{
  "resourceType": "Bundle",
  "id": "8a98a6a7-f2d2-4339-ab90-800245285d79",
  "meta": {
    "profile": [
      "http://hl7.eu/fhir/laboratory/StructureDefinition/Bundle-eu-lab"
    ]
  },
  "identifier": {
    "assigner": {
      "display": "HL7 Europe"
    },
    "system": "urn:oid:2.16.840.1.113883.2.51.999",
    "value": "cc840c1e-b9a7-4cac-aee6-758be144ce2d"
  },
  "entry": [
    {
      "fullUrl": "urn:uuid:deb726f2-73db-498a-a463-49deba9a20b2",
      "resource": {
        "resourceType": "Composition",
        "id": "deb726f2-73db-498a-a463-49deba9a20b2",
        "meta": {
          "profile": [
            "http://hl7.eu/fhir/laboratory/StructureDefinition/Composition-eu-lab"
          ]
        },
        "identifier": {
          "assigner": {
            "display": "HL7 Europe"
          },
          "system": "urn:oid:2.16.840.1.113883.2.51.999",
          "value": "2498cb61-2fe8-47c0-9f10-ad67eea1bf54"
        },
        "author": [
          {
            "reference": "urn:uuid:7be89a33-537c-42e4-b7f9-cefcbef19d69"
          }
        ],
        "category": [
          {
            "coding": [
              {
                "code": "26436-6",
                "system": "http://loinc.org",
                "display": "Laboratory studies (set)"
              }
            ]
          }
        ],
        "type": {
          "coding": [
            {
              "code": "11502-2",
              "system": "http://loinc.org",
              "display": "Laboratory report"
            }
          ],
          "text": "Laboratory Report"
        },
        "section": [
          {
            "code": {
              "coding": [
                {
                  "code": "26436-6",
                  "system": "http://loinc.org",
                  "display": "Laboratory studies (set)"
                }
              ],
              "text": "Laboratory studies"
            },
            "section": [
              {
                "code": {
                  "coding": [
                    {
                      "code": "$18719-5",
                      "system": "http://loinc.org",
                      "display": "Chemistry studies (set)"
                    }
                  ],
                  "text": "Chemistry"
                },
                "entry": [
                  {
                    "reference": "urn:uuid:c0e612cc-c238-4d22-a6a2-83f9a8bfd9f7"
                  },
                  {
                    "reference": "urn:uuid:e83ace5a-ff9f-4b76-aa5c-20b75fd10500"
                  },
                  {
                    "reference": "urn:uuid:586db4b5-8ad1-4d7b-9ad7-70807bba7420"
                  },
                  {
                    "reference": "urn:uuid:c8507c77-b8cc-454c-9ec3-71231af69c71"
                  },
                  {
                    "reference": "urn:uuid:ed0cb594-ddf5-42f6-b300-fb924e8a0b3d"
                  },
                  {
                    "reference": "urn:uuid:da529af0-1e63-4790-a1be-26b8f6efa49a"
                  },
                  {
                    "reference": "urn:uuid:1ad562d7-d379-4dfa-b459-faafc6a27d1f"
                  },
                  {
                    "reference": "urn:uuid:ea402107-0693-4953-87cc-5f52ddbfd445"
                  },
                  {
                    "reference": "urn:uuid:008a17a8-8092-41c3-bb8e-d93ab0a8b75d"
                  },
                  {
                    "reference": "urn:uuid:df23e135-5266-4866-8c39-b97fc6d2a818"
                  },
                  {
                    "reference": "urn:uuid:6caa2221-ed33-4c17-afa1-3c5a8efb55c4"
                  },
                  {
                    "reference": "urn:uuid:d5074a8e-75f4-42cc-81ff-e573dc38389e"
                  },
                  {
                    "reference": "urn:uuid:ae173e84-bb65-4b62-a347-342260a031b9"
                  },
                  {
                    "reference": "urn:uuid:ab424f2b-9b33-4350-b85e-25dbd1bb5572"
                  },
                  {
                    "reference": "urn:uuid:4333c970-0bd2-4df9-a011-12d9a2fc4e30"
                  },
                  {
                    "reference": "urn:uuid:a6cb4161-4fd6-4f0c-b2bd-aa3fa6186980"
                  },
                  {
                    "reference": "urn:uuid:6c198750-3c7e-4844-96cd-7c8dc7584b3d"
                  },
                  {
                    "reference": "urn:uuid:faf1d6e6-466f-4a14-a6f8-ce15746c96a7"
                  }
                ],
                "text": {
                  "status": "generated",
                  "div": "<div xmlns=\"http://www.w3.org/1999/xhtml\"><h3>Chemistry</h3><table class=\"hl7__eu__lab__report\"><thead><tr><th>Test</th><th>03-MAY-2022</th><th>Reference&#xA0;Range</th><th>Unit</th></tr></thead><tbody><tr><td>Glucose [Mass/volume] in Serum or Plasma</td><td><strong>66.6 L</strong></td><td>70 - 99</td><td>mg/dL</td></tr><tr><td>Urea nitrogen [Mass/volume] in Serum or Plasma</td><td>19.7</td><td>7 - 50</td><td>mg/dL</td></tr><tr><td>Creatinine [Mass/volume] in Serum or Plasma</td><td><strong>2.0 H</strong></td><td>0.6 - 1.1</td><td>mg/dL</td></tr><tr><td>Calcium [Mass/volume] in Serum or Plasma</td><td>8.6</td><td>8.6 - 10.4</td><td>mg/dL</td></tr><tr><td>Sodium [Moles/volume] in Serum or Plasma</td><td>137.1</td><td>135 - 145</td><td>mmol/L</td></tr><tr><td>Potassium [Moles/volume] in Serum or Plasma</td><td>4.7</td><td>3.5 - 5.1</td><td>mmol/L</td></tr><tr><td>Chloride [Moles/volume] in Serum or Plasma</td><td>105.4</td><td>98 - 108</td><td>mmol/L</td></tr><tr><td>Carbon dioxide, total [Moles/volume] in Serum or Plasma</td><td>27.8</td><td>22 - 32</td><td>mmol/L</td></tr><tr><td>Ketones [Presence] in Urine by Test strip</td><td>Urine ketone test = ++</td><td></td><td></td></tr><tr><td>Hemoglobin A1c/Hemoglobin.total in Blood</td><td><strong>2.8 L</strong></td><td>4 - 6.4</td><td>%</td></tr><tr><td>Glucose [Mass/volume] in Blood</td><td><strong>66.6 L</strong></td><td>70 - 100</td><td>mg/dL</td></tr><tr><td>Urea nitrogen [Mass/volume] in Blood</td><td>19.7</td><td>7 - 43</td><td>mg/dL</td></tr><tr><td>Creatinine [Mass/volume] in Blood</td><td><strong>4.4 H</strong></td><td>0.6 - 1.1</td><td>mg/dL</td></tr><tr><td>Calcium [Mass/volume] in Blood</td><td>8.6</td><td>8.5 - 10.5</td><td>mg/dL</td></tr><tr><td>Sodium [Moles/volume] in Blood</td><td>137.1</td><td>135 - 145</td><td>mmol/L</td></tr><tr><td>Potassium [Moles/volume] in Blood</td><td>4.7</td><td>3.5 - 5.1</td><td>mmol/L</td></tr><tr><td>Chloride [Moles/volume] in Blood</td><td>105.4</td><td>98 - 108</td><td>mmol/L</td></tr><tr><td>Carbon dioxide, total [Moles/volume] in Blood</td><td>27.8</td><td>22 - 29</td><td>mmol/L</td></tr></tbody></table></div>"
                },
                "title": "Chemistry"
              },
              {
                "code": {
                  "coding": [
                    {
                      "code": "$18729-4",
                      "system": "http://loinc.org",
                      "display": "Urinalysis studies (set)"
                    }
                  ],
                  "text": "Urinalysis"
                },
                "entry": [
                  {
                    "reference": "urn:uuid:a7bd9c4a-9138-44f8-bbbb-0b561a4026c0"
                  },
                  {
                    "reference": "urn:uuid:c101f90a-7cb4-4dbf-96d0-9555a89e12a0"
                  },
                  {
                    "reference": "urn:uuid:c410bd76-1f63-4418-972f-afaae5eaa89c"
                  },
                  {
                    "reference": "urn:uuid:0a3294a7-23ac-46dd-8daf-dd532a421afa"
                  },
                  {
                    "reference": "urn:uuid:a79b2f1c-32f8-43bb-b325-13c374059e58"
                  },
                  {
                    "reference": "urn:uuid:81130f75-5aec-43dc-8cec-b2022bc4ac76"
                  },
                  {
                    "reference": "urn:uuid:2249d7aa-bef5-4e73-b992-7f8e5f7dbd6c"
                  },
                  {
                    "reference": "urn:uuid:f9d9ec06-f2d0-480d-b09f-bebdd74be472"
                  },
                  {
                    "reference": "urn:uuid:c91088bd-e24e-4aec-a167-c8dfa0f5af1e"
                  },
                  {
                    "reference": "urn:uuid:54b63c45-46c8-4aa2-b0e2-33c417b490af"
                  },
                  {
                    "reference": "urn:uuid:5fa723bf-5b8c-435b-8359-d1d267938d86"
                  },
                  {
                    "reference": "urn:uuid:e07cba4f-95d8-4e16-9ec6-30753b45daf4"
                  }
                ],
                "text": {
                  "status": "generated",
                  "div": "<div xmlns=\"http://www.w3.org/1999/xhtml\"><h3>Urinalysis</h3><table class=\"hl7__eu__lab__report\"><thead><tr><th>Test</th><th>03-MAY-2022</th><th>Reference&#xA0;Range</th><th>Unit</th></tr></thead><tbody><tr><td>Glucose [Mass/volume] in Urine by Test strip</td><td><strong>1.5 H</strong></td><td>0.8 - 0</td><td>mg/dL</td></tr><tr><td>Glucose [Presence] in Urine by Test strip</td><td>++</td><td></td><td></td></tr><tr><td>Bilirubin.total [Mass/volume] in Urine by Test strip</td><td>0.7</td><td>0 - 1</td><td>mg/dL</td></tr><tr><td>Bilirubin.total [Presence] in Urine by Test strip</td><td>Finding of bilirubin in urine</td><td></td><td></td></tr><tr><td>Ketones [Mass/volume] in Urine by Test strip</td><td><strong>9.6 H</strong></td><td>0 - 4</td><td>mg/dL</td></tr><tr><td>Specific gravity of Urine by Test strip</td><td><strong>1.0 L</strong></td><td>1.005 - 1.03</td><td>{nominal}</td></tr><tr><td>pH of Urine by Test strip</td><td>6.7</td><td>4.6 - 7</td><td>pH</td></tr><tr><td>Protein [Mass/volume] in Urine by Test strip</td><td><strong>267.4 H</strong></td><td>0 - 14</td><td>mg/dL</td></tr><tr><td>Protein [Presence] in Urine by Test strip</td><td>Urine protein test = ++</td><td></td><td></td></tr><tr><td>Nitrite [Presence] in Urine by Test strip</td><td>Urine nitrite negative</td><td></td><td></td></tr><tr><td>Hemoglobin [Presence] in Urine by Test strip</td><td>Urine blood test = negative</td><td></td><td></td></tr><tr><td>Leukocyte esterase [Presence] in Urine by Test strip</td><td>Urine leukocyte test negative</td><td></td><td></td></tr></tbody></table></div>"
                },
                "title": "Urinalysis"
              },
              {
                "code": {
                  "coding": [
                    {
                      "code": "$LP7846-1",
                      "system": "http://loinc.org",
                      "display": "Specimen information"
                    }
                  ],
                  "text": "Specimen information"
                },
                "entry": [
                  {
                    "reference": "urn:uuid:2c1dd8a2-717b-4870-bb29-3122decc16bf"
                  },
                  {
                    "reference": "urn:uuid:adb57450-ae27-4545-8c2e-e265b5cabbe6"
                  },
                  {
                    "reference": "urn:uuid:6d0e40fc-9998-4c01-b054-9a97cad554da"
                  },
                  {
                    "reference": "urn:uuid:5cc0c183-7bee-4d05-914c-7940f6e9b9fb"
                  }
                ],
                "text": {
                  "status": "generated",
                  "div": "<div xmlns=\"http://www.w3.org/1999/xhtml\"><h3>Specimen information</h3><table class=\"hl7__eu__lab__report\"><thead><tr><th>Test</th><th>03-MAY-2022</th><th>Specimen</th><th></th></tr></thead><tbody><tr><td>Appearance of Urine</td><td>Cloudy urine</td><td>Urine</td><td></td></tr><tr><td>Odor of Urine</td><td>Urine smell ammoniacal</td><td>Urine</td><td></td></tr><tr><td>Clarity of Urine</td><td>Translucent</td><td>Urine</td><td></td></tr><tr><td>Color of Urine</td><td>Brown color</td><td>Urine</td><td></td></tr></tbody></table></div>"
                },
                "title": "Specimen information"
              }
            ],
            "title": "Laboratory Report"
          },
          {
            "text": {
              "status": "generated",
              "div": "<div xmlns=\"http://www.w3.org/1999/xhtml\"><h3>Annotation</h3><table class=\"hl7__eu__lab__report\"><tr><th>Conclusion and Recommendations based on this report and previous findings known to us</th></tr><tr><td>The patient shows significant renal dysfunction (markedly elevated creatinine), proteinuria, and abnormal urine findings (cloudy, brown, low specific gravity, ketones, glucose, bilirubin). Blood glucose and HbA1c are low, suggesting hypoglycemia and no evidence of chronic hyperglycemia. Findings are consistent with acute or chronic kidney disease with nephrotic-range proteinuria and possible metabolic derangements. Prompt clinical evaluation and nephrology referral are recommended.</td></tr></table></div>"
            },
            "code": {
              "coding": [
                {
                  "system": "http://loinc.org",
                  "code": "48767-8",
                  "display": "Annotation comment"
                }
              ]
            },
            "title": "Annotation comment"
          }
        ],
        "status": "final",
        "subject": {
          "reference": "urn:uuid:c0b56cd4-5e79-41b8-846b-c07556485719",
          "display": "Meaghan Neary"
        },
        "date": "2022-05-03T00:11:04Z",
        "title": "Laboratory Report",
        "confidentiality": "N"
      }
    },
    {
      "fullUrl": "urn:uuid:a9a8482f-8314-47b0-af07-17d4fcd82cc7",
      "resource": {
        "resourceType": "DiagnosticReport",
        "id": "a9a8482f-8314-47b0-af07-17d4fcd82cc7",
        "meta": {
          "profile": [
            "http://hl7.eu/fhir/laboratory/StructureDefinition/DiagnosticReport-eu-lab"
          ]
        },
        "identifier": [
          {
            "assigner": {
              "display": "HL7 Europe"
            },
            "system": "urn:oid:2.16.840.1.113883.2.51.999",
            "value": "a5377f71-84d1-4f6c-b0ef-a36578ec275b"
          }
        ],
        "extension": [
          {
            "url": "http://hl7.org/fhir/5.0/StructureDefinition/extension-DiagnosticReport.composition",
            "valueReference": {
              "reference": "urn:uuid:2498cb61-2fe8-47c0-9f10-ad67eea1bf54"
            }
          }
        ],
        "category": [
          {
            "coding": [
              {
                "code": "26436-6",
                "system": "http://loinc.org",
                "display": "Laboratory studies (set)"
              }
            ]
          }
        ],
        "specimen": [
          {
            "reference": "urn:uuid:f994b440-baad-489b-90f1-d61fa68e413f"
          },
          {
            "reference": "urn:uuid:34fa434f-062b-48c9-8777-c75b6bcb0e21"
          },
          {
            "reference": "urn:uuid:c587267d-843c-4d22-8103-f74241487ba6"
          }
        ],
        "result": [
          {
            "reference": "urn:uuid:c0e612cc-c238-4d22-a6a2-83f9a8bfd9f7"
          },
          {
            "reference": "urn:uuid:e83ace5a-ff9f-4b76-aa5c-20b75fd10500"
          },
          {
            "reference": "urn:uuid:586db4b5-8ad1-4d7b-9ad7-70807bba7420"
          },
          {
            "reference": "urn:uuid:c8507c77-b8cc-454c-9ec3-71231af69c71"
          },
          {
            "reference": "urn:uuid:ed0cb594-ddf5-42f6-b300-fb924e8a0b3d"
          },
          {
            "reference": "urn:uuid:da529af0-1e63-4790-a1be-26b8f6efa49a"
          },
          {
            "reference": "urn:uuid:1ad562d7-d379-4dfa-b459-faafc6a27d1f"
          },
          {
            "reference": "urn:uuid:ea402107-0693-4953-87cc-5f52ddbfd445"
          },
          {
            "reference": "urn:uuid:2c1dd8a2-717b-4870-bb29-3122decc16bf"
          },
          {
            "reference": "urn:uuid:adb57450-ae27-4545-8c2e-e265b5cabbe6"
          },
          {
            "reference": "urn:uuid:6d0e40fc-9998-4c01-b054-9a97cad554da"
          },
          {
            "reference": "urn:uuid:5cc0c183-7bee-4d05-914c-7940f6e9b9fb"
          },
          {
            "reference": "urn:uuid:a7bd9c4a-9138-44f8-bbbb-0b561a4026c0"
          },
          {
            "reference": "urn:uuid:c101f90a-7cb4-4dbf-96d0-9555a89e12a0"
          },
          {
            "reference": "urn:uuid:c410bd76-1f63-4418-972f-afaae5eaa89c"
          },
          {
            "reference": "urn:uuid:0a3294a7-23ac-46dd-8daf-dd532a421afa"
          },
          {
            "reference": "urn:uuid:a79b2f1c-32f8-43bb-b325-13c374059e58"
          },
          {
            "reference": "urn:uuid:008a17a8-8092-41c3-bb8e-d93ab0a8b75d"
          },
          {
            "reference": "urn:uuid:81130f75-5aec-43dc-8cec-b2022bc4ac76"
          },
          {
            "reference": "urn:uuid:2249d7aa-bef5-4e73-b992-7f8e5f7dbd6c"
          },
          {
            "reference": "urn:uuid:f9d9ec06-f2d0-480d-b09f-bebdd74be472"
          },
          {
            "reference": "urn:uuid:c91088bd-e24e-4aec-a167-c8dfa0f5af1e"
          },
          {
            "reference": "urn:uuid:54b63c45-46c8-4aa2-b0e2-33c417b490af"
          },
          {
            "reference": "urn:uuid:5fa723bf-5b8c-435b-8359-d1d267938d86"
          },
          {
            "reference": "urn:uuid:e07cba4f-95d8-4e16-9ec6-30753b45daf4"
          },
          {
            "reference": "urn:uuid:df23e135-5266-4866-8c39-b97fc6d2a818"
          },
          {
            "reference": "urn:uuid:6caa2221-ed33-4c17-afa1-3c5a8efb55c4"
          },
          {
            "reference": "urn:uuid:d5074a8e-75f4-42cc-81ff-e573dc38389e"
          },
          {
            "reference": "urn:uuid:ae173e84-bb65-4b62-a347-342260a031b9"
          },
          {
            "reference": "urn:uuid:ab424f2b-9b33-4350-b85e-25dbd1bb5572"
          },
          {
            "reference": "urn:uuid:4333c970-0bd2-4df9-a011-12d9a2fc4e30"
          },
          {
            "reference": "urn:uuid:a6cb4161-4fd6-4f0c-b2bd-aa3fa6186980"
          },
          {
            "reference": "urn:uuid:6c198750-3c7e-4844-96cd-7c8dc7584b3d"
          },
          {
            "reference": "urn:uuid:faf1d6e6-466f-4a14-a6f8-ce15746c96a7"
          }
        ],
        "status": "registered",
        "code": {
          "coding": [
            {
              "code": "11502-2",
              "system": "http://loinc.org",
              "display": "Laboratory report"
            }
          ]
        },
        "subject": {
          "reference": "urn:uuid:c0b56cd4-5e79-41b8-846b-c07556485719",
          "display": "Meaghan Neary"
        }
      }
    },
    {
      "fullUrl": "urn:uuid:c0b56cd4-5e79-41b8-846b-c07556485719",
      "resource": {
        "resourceType": "Patient",
        "id": "c0b56cd4-5e79-41b8-846b-c07556485719",
        "meta": {
          "security": [
            {
              "system": "http://terminology.hl7.org/CodeSystem/v3-ActReason",
              "code": "HTEST"
            },
            {
              "system": "http://terminology.hl7.org/CodeSystem/v3-ActReason",
              "code": "TRAIN"
            }
          ],
          "tag": [
            {
              "system": "https://synderai.net/fhir/CodeSystem/tags",
              "code": "synthetic",
              "display": "SYNDERAI Synthetic data"
            }
          ],
          "profile": [
            "http://hl7.eu/fhir/base/StructureDefinition/patient-eu-core"
          ]
        },
        "identifier": [
          {
            "type": {
              "coding": [
                {
                  "code": "PT",
                  "system": "http://terminology.hl7.org/CodeSystem/v2-0203"
                }
              ]
            },
            "system": "http://ec.europa.eu/identifier/eci",
            "value": "1586-567257-8"
          },
          {
            "type": {
              "coding": [
                {
                  "code": "MR",
                  "system": "http://terminology.hl7.org/CodeSystem/v2-0203"
                }
              ]
            },
            "system": "http://local.setting.eu/identifier",
            "value": "443e6379-f231-b364-3ccb-644740a1aa2a"
          }
        ],
        "name": [
          {
            "family": "Neary"
          },
          {
            "given": [
              "Meaghan"
            ]
          },
          {
            "text": "Meaghan Neary"
          }
        ],
        "address": [
          {
            "line": [
              "64 Linskey Street"
            ],
            "use": "home",
            "type": "physical",
            "postalCode": "D02",
            "city": "Dublin",
            "country": "Ireland"
          }
        ],
        "telecom": [
          {
            "system": "phone",
            "value": "001-967-573-0911x465"
          }
        ],
        "extension": [
          {
            "url": "http://hl7.org/fhir/StructureDefinition/patient-nationality",
            "valueCodeableConcept": {
              "coding": [
                {
                  "code": "IE",
                  "system": "http://hl7.org/fhir/ValueSet/country"
                }
              ]
            }
          }
        ],
        "text": {
          "status": "generated",
          "div": "<div xmlns=\"http://www.w3.org/1999/xhtml\"><table class=\"hl7__ips\"><tr><td>Meaghan Neary</td><td>female</td><td>19-Dec-1960</td></tr></table></div>"
        },
        "gender": "female",
        "birthDate": "1960-12-19"
      }
    },
    {
      "fullUrl": "urn:uuid:25fd39fb-bf1c-4bc7-87ee-c0de217c31d4",
      "resource": {
        "resourceType": "ServiceRequest",
        "id": "25fd39fb-bf1c-4bc7-87ee-c0de217c31d4",
        "meta": {
          "profile": [
            "http://hl7.eu/fhir/laboratory/StructureDefinition/ServiceRequest-eu-lab"
          ]
        },
        "identifier": [
          {
            "system": "http://example.org",
            "value": "4c287055-bde2-4673-90d9-015ceb4673ad"
          }
        ],
        "specimen": [
          {
            "reference": "urn:uuid:f994b440-baad-489b-90f1-d61fa68e413f"
          },
          {
            "reference": "urn:uuid:34fa434f-062b-48c9-8777-c75b6bcb0e21"
          },
          {
            "reference": "urn:uuid:c587267d-843c-4d22-8103-f74241487ba6"
          }
        ],
        "reasonCode": [
          {
            "coding": [
              {
                "code": "55822004",
                "system": "http://snomed.info/sct",
                "display": "Hyperlipidemia"
              }
            ]
          },
          {
            "coding": [
              {
                "code": "433144002",
                "system": "http://snomed.info/sct",
                "display": "Chronic kidney disease stage 3"
              }
            ]
          },
          {
            "coding": [
              {
                "code": "157141000119108",
                "system": "http://snomed.info/sct",
                "display": "Proteinuria due to type 2 diabetes mellitus"
              }
            ]
          },
          {
            "coding": [
              {
                "code": "431856006",
                "system": "http://snomed.info/sct",
                "display": "Chronic kidney disease stage 2"
              }
            ]
          },
          {
            "coding": [
              {
                "code": "90781000119102",
                "system": "http://snomed.info/sct",
                "display": "Microalbuminuria due to type 2 diabetes mellitus"
              }
            ]
          },
          {
            "coding": [
              {
                "code": "127013003",
                "system": "http://snomed.info/sct",
                "display": "Disorder of kidney due to diabetes mellitus"
              }
            ]
          },
          {
            "coding": [
              {
                "code": "431855005",
                "system": "http://snomed.info/sct",
                "display": "Chronic kidney disease stage 1"
              }
            ]
          },
          {
            "coding": [
              {
                "code": "237602007",
                "system": "http://snomed.info/sct",
                "display": "Metabolic syndrome X"
              }
            ]
          },
          {
            "coding": [
              {
                "code": "271737000",
                "system": "http://snomed.info/sct",
                "display": "Anemia"
              }
            ]
          },
          {
            "coding": [
              {
                "code": "15777000",
                "system": "http://snomed.info/sct",
                "display": "Prediabetes"
              }
            ]
          },
          {
            "coding": [
              {
                "code": "59621000",
                "system": "http://snomed.info/sct",
                "display": "Essential hypertension"
              }
            ]
          }
        ],
        "status": "active",
        "intent": "order",
        "code": {
          "coding": [
            {
              "code": "108252007",
              "system": "http://snomed.info/sct",
              "display": "Laboratory procedure"
            }
          ]
        },
        "subject": {
          "reference": "urn:uuid:c0b56cd4-5e79-41b8-846b-c07556485719",
          "display": "Meaghan Neary"
        },
        "requester": {
          "reference": "urn:uuid:9ec8664d-b57e-4be9-8044-6ce29b2be6f4"
        }
      }
    },
    {
      "fullUrl": "urn:uuid:9ec8664d-b57e-4be9-8044-6ce29b2be6f4",
      "resource": {
        "resourceType": "PractitionerRole",
        "id": "9ec8664d-b57e-4be9-8044-6ce29b2be6f4",
        "meta": {
          "profile": [
            "http://hl7.eu/fhir/base/StructureDefinition/practitionerRole-eu"
          ]
        },
        "text": {
          "status": "generated",
          "div": "<div xmlns=\"http://www.w3.org/1999/xhtml\">Provider Role Id: 9ec8664d-b57e-4be9-8044-6ce29b2be6f4</div>"
        },
        "organization": {
          "reference": "urn:uuid:c10699d4-5da2-4bfb-aba9-6f3ddb1d2199"
        }
      }
    },
    {
      "fullUrl": "urn:uuid:c10699d4-5da2-4bfb-aba9-6f3ddb1d2199",
      "resource": {
        "resourceType": "Organization",
        "id": "c10699d4-5da2-4bfb-aba9-6f3ddb1d2199",
        "meta": {
          "profile": [
            "http://hl7.eu/fhir/base/StructureDefinition/organization-eu"
          ]
        },
        "identifier": [
          {
            "assigner": {
              "display": "HL7 Europe"
            },
            "system": "urn:oid:2.16.840.1.113883.2.51.999",
            "value": "99827433-86ab-4f9a-8e69-5fcac40405aa"
          }
        ],
        "address": [
          {
            "line": [
              "Parnell Square West nan"
            ],
            "city": "Dublin",
            "postalCode": "D01",
            "country": "Ireland"
          }
        ],
        "text": {
          "status": "generated",
          "div": "<div xmlns=\"http://www.w3.org/1999/xhtml\">Provider Organization: Rotunda Hospital</div>"
        },
        "name": "Rotunda Hospital"
      }
    },
    {
      "fullUrl": "urn:uuid:f994b440-baad-489b-90f1-d61fa68e413f",
      "resource": {
        "resourceType": "Specimen",
        "id": "f994b440-baad-489b-90f1-d61fa68e413f",
        "meta": {
          "profile": [
            "http://hl7.eu/fhir/laboratory/StructureDefinition/Specimen-eu-lab"
          ]
        },
        "collection": {
          "collectedDateTime": "2022-05-02"
        },
        "text": {
          "status": "generated",
          "div": "<div xmlns=\"http://www.w3.org/1999/xhtml\"><table class=\"hl7__eu__lab__report\"><tr><th>Specimen</th><th>Collection Date</th></tr><tr><td>Acellular blood (serum or plasma) specimen</td><td><span class=\"nb\">02-May-2022</span></td></tr></table></div>"
        },
        "type": {
          "coding": [
            {
              "code": "122592007",
              "system": "http://snomed.info/sct",
              "display": "Acellular blood (serum or plasma) specimen"
            }
          ]
        }
      }
    },
    {
      "fullUrl": "urn:uuid:34fa434f-062b-48c9-8777-c75b6bcb0e21",
      "resource": {
        "resourceType": "Specimen",
        "id": "34fa434f-062b-48c9-8777-c75b6bcb0e21",
        "meta": {
          "profile": [
            "http://hl7.eu/fhir/laboratory/StructureDefinition/Specimen-eu-lab"
          ]
        },
        "collection": {
          "collectedDateTime": "2022-05-02"
        },
        "text": {
          "status": "generated",
          "div": "<div xmlns=\"http://www.w3.org/1999/xhtml\"><table class=\"hl7__eu__lab__report\"><tr><th>Specimen</th><th>Collection Date</th></tr><tr><td>Urine specimen</td><td><span class=\"nb\">02-May-2022</span></td></tr></table></div>"
        },
        "type": {
          "coding": [
            {
              "code": "122575003",
              "system": "http://snomed.info/sct",
              "display": "Urine specimen"
            }
          ]
        }
      }
    },
    {
      "fullUrl": "urn:uuid:c587267d-843c-4d22-8103-f74241487ba6",
      "resource": {
        "resourceType": "Specimen",
        "id": "c587267d-843c-4d22-8103-f74241487ba6",
        "meta": {
          "profile": [
            "http://hl7.eu/fhir/laboratory/StructureDefinition/Specimen-eu-lab"
          ]
        },
        "collection": {
          "collectedDateTime": "2022-05-02"
        },
        "text": {
          "status": "generated",
          "div": "<div xmlns=\"http://www.w3.org/1999/xhtml\"><table class=\"hl7__eu__lab__report\"><tr><th>Specimen</th><th>Collection Date</th></tr><tr><td>Whole blood specimen (specimen)</td><td><span class=\"nb\">02-May-2022</span></td></tr></table></div>"
        },
        "type": {
          "coding": [
            {
              "code": "258580003",
              "system": "http://snomed.info/sct",
              "display": "Whole blood specimen (specimen)"
            }
          ]
        }
      }
    },
    {
      "fullUrl": "urn:uuid:c0e612cc-c238-4d22-a6a2-83f9a8bfd9f7",
      "resource": {
        "resourceType": "Observation",
        "id": "c0e612cc-c238-4d22-a6a2-83f9a8bfd9f7",
        "meta": {
          "profile": [
            "http://hl7.eu/fhir/laboratory/StructureDefinition/Observation-resultslab-eu-lab"
          ]
        },
        "performer": [
          {
            "display": "The Central European Lab"
          }
        ],
        "category": [
          {
            "coding": [
              {
                "system": "http://terminology.hl7.org/CodeSystem/observation-category",
                "code": "laboratory"
              }
            ]
          }
        ],
        "code": {
          "coding": [
            {
              "code": "2345-7",
              "system": "http://loinc.org",
              "display": "Glucose [Mass/volume] in Serum or Plasma"
            }
          ],
          "text": "Glucose [Mass/volume] in Serum or Plasma"
        },
        "valueQuantity": {
          "system": "http://unitsofmeasure.org",
          "value": 66.6,
          "unit": "mg/dL",
          "code": "mg/dL"
        },
        "referenceRange": [
          {
            "low": {
              "value": 70,
              "code": "mg/dL",
              "system": "http://unitsofmeasure.org"
            }
          },
          {
            "high": {
              "value": 99,
              "code": "mg/dL",
              "system": "http://unitsofmeasure.org"
            }
          }
        ],
        "interpretation": [
          {
            "coding": [
              {
                "code": "L",
                "system": "http://terminology.hl7.org/CodeSystem/v3-ObservationInterpretation",
                "display": "Low"
              }
            ]
          }
        ],
        "text": {
          "status": "generated",
          "div": "<div xmlns=\"http://www.w3.org/1999/xhtml\"><table class=\"hl7__eu__lab__report\"><tr><th>Test</th><th>03-May-2022</th><th>Reference&#xA0;Range</th><th>Unit</th></tr><tr><td>Glucose [Mass/volume] in Serum or Plasma</td><td>66.6</td><td>70 - 99</td><td>L</td><td>mg/dL</td></tr></table></div>"
        },
        "status": "final",
        "subject": {
          "reference": "urn:uuid:c0b56cd4-5e79-41b8-846b-c07556485719",
          "display": "Meaghan Neary"
        },
        "effectiveDateTime": "2022-05-02T22:11:04Z",
        "specimen": {
          "reference": "urn:uuid:f994b440-baad-489b-90f1-d61fa68e413f"
        }
      }
    },
    {
      "fullUrl": "urn:uuid:e83ace5a-ff9f-4b76-aa5c-20b75fd10500",
      "resource": {
        "resourceType": "Observation",
        "id": "e83ace5a-ff9f-4b76-aa5c-20b75fd10500",
        "meta": {
          "profile": [
            "http://hl7.eu/fhir/laboratory/StructureDefinition/Observation-resultslab-eu-lab"
          ]
        },
        "performer": [
          {
            "display": "The Central European Lab"
          }
        ],
        "category": [
          {
            "coding": [
              {
                "system": "http://terminology.hl7.org/CodeSystem/observation-category",
                "code": "laboratory"
              }
            ]
          }
        ],
        "code": {
          "coding": [
            {
              "code": "3094-0",
              "system": "http://loinc.org",
              "display": "Urea nitrogen [Mass/volume] in Serum or Plasma"
            }
          ],
          "text": "Urea nitrogen [Mass/volume] in Serum or Plasma"
        },
        "valueQuantity": {
          "system": "http://unitsofmeasure.org",
          "value": 19.7,
          "unit": "mg/dL",
          "code": "mg/dL"
        },
        "referenceRange": [
          {
            "low": {
              "value": 7,
              "code": "mg/dL",
              "system": "http://unitsofmeasure.org"
            }
          },
          {
            "high": {
              "value": 50,
              "code": "mg/dL",
              "system": "http://unitsofmeasure.org"
            }
          }
        ],
        "text": {
          "status": "generated",
          "div": "<div xmlns=\"http://www.w3.org/1999/xhtml\"><table class=\"hl7__eu__lab__report\"><tr><th>Test</th><th>03-May-2022</th><th>Reference&#xA0;Range</th><th>Unit</th></tr><tr><td>Urea nitrogen [Mass/volume] in Serum or Plasma</td><td>19.7</td><td>7 - 50</td><td></td><td>mg/dL</td></tr></table></div>"
        },
        "status": "final",
        "subject": {
          "reference": "urn:uuid:c0b56cd4-5e79-41b8-846b-c07556485719",
          "display": "Meaghan Neary"
        },
        "effectiveDateTime": "2022-05-02T22:11:04Z",
        "specimen": {
          "reference": "urn:uuid:f994b440-baad-489b-90f1-d61fa68e413f"
        }
      }
    },
    {
      "fullUrl": "urn:uuid:586db4b5-8ad1-4d7b-9ad7-70807bba7420",
      "resource": {
        "resourceType": "Observation",
        "id": "586db4b5-8ad1-4d7b-9ad7-70807bba7420",
        "meta": {
          "profile": [
            "http://hl7.eu/fhir/laboratory/StructureDefinition/Observation-resultslab-eu-lab"
          ]
        },
        "performer": [
          {
            "display": "The Central European Lab"
          }
        ],
        "category": [
          {
            "coding": [
              {
                "system": "http://terminology.hl7.org/CodeSystem/observation-category",
                "code": "laboratory"
              }
            ]
          }
        ],
        "code": {
          "coding": [
            {
              "code": "2160-0",
              "system": "http://loinc.org",
              "display": "Creatinine [Mass/volume] in Serum or Plasma"
            }
          ],
          "text": "Creatinine [Mass/volume] in Serum or Plasma"
        },
        "valueQuantity": {
          "system": "http://unitsofmeasure.org",
          "value": 2,
          "unit": "mg/dL",
          "code": "mg/dL"
        },
        "referenceRange": [
          {
            "low": {
              "value": 0.6,
              "code": "mg/dL",
              "system": "http://unitsofmeasure.org"
            }
          },
          {
            "high": {
              "value": 1.1,
              "code": "mg/dL",
              "system": "http://unitsofmeasure.org"
            }
          }
        ],
        "interpretation": [
          {
            "coding": [
              {
                "code": "H",
                "system": "http://terminology.hl7.org/CodeSystem/v3-ObservationInterpretation",
                "display": "High"
              }
            ]
          }
        ],
        "text": {
          "status": "generated",
          "div": "<div xmlns=\"http://www.w3.org/1999/xhtml\"><table class=\"hl7__eu__lab__report\"><tr><th>Test</th><th>03-May-2022</th><th>Reference&#xA0;Range</th><th>Unit</th></tr><tr><td>Creatinine [Mass/volume] in Serum or Plasma</td><td>2.0</td><td>0.6 - 1.1</td><td>H</td><td>mg/dL</td></tr></table></div>"
        },
        "status": "final",
        "subject": {
          "reference": "urn:uuid:c0b56cd4-5e79-41b8-846b-c07556485719",
          "display": "Meaghan Neary"
        },
        "effectiveDateTime": "2022-05-02T22:11:04Z",
        "specimen": {
          "reference": "urn:uuid:f994b440-baad-489b-90f1-d61fa68e413f"
        }
      }
    },
    {
      "fullUrl": "urn:uuid:c8507c77-b8cc-454c-9ec3-71231af69c71",
      "resource": {
        "resourceType": "Observation",
        "id": "c8507c77-b8cc-454c-9ec3-71231af69c71",
        "meta": {
          "profile": [
            "http://hl7.eu/fhir/laboratory/StructureDefinition/Observation-resultslab-eu-lab"
          ]
        },
        "performer": [
          {
            "display": "The Central European Lab"
          }
        ],
        "category": [
          {
            "coding": [
              {
                "system": "http://terminology.hl7.org/CodeSystem/observation-category",
                "code": "laboratory"
              }
            ]
          }
        ],
        "code": {
          "coding": [
            {
              "code": "17861-6",
              "system": "http://loinc.org",
              "display": "Calcium [Mass/volume] in Serum or Plasma"
            }
          ],
          "text": "Calcium [Mass/volume] in Serum or Plasma"
        },
        "valueQuantity": {
          "system": "http://unitsofmeasure.org",
          "value": 8.6,
          "unit": "mg/dL",
          "code": "mg/dL"
        },
        "referenceRange": [
          {
            "low": {
              "value": 8.6,
              "code": "mg/dL",
              "system": "http://unitsofmeasure.org"
            }
          },
          {
            "high": {
              "value": 10.4,
              "code": "mg/dL",
              "system": "http://unitsofmeasure.org"
            }
          }
        ],
        "text": {
          "status": "generated",
          "div": "<div xmlns=\"http://www.w3.org/1999/xhtml\"><table class=\"hl7__eu__lab__report\"><tr><th>Test</th><th>03-May-2022</th><th>Reference&#xA0;Range</th><th>Unit</th></tr><tr><td>Calcium [Mass/volume] in Serum or Plasma</td><td>8.6</td><td>8.6 - 10.4</td><td></td><td>mg/dL</td></tr></table></div>"
        },
        "status": "final",
        "subject": {
          "reference": "urn:uuid:c0b56cd4-5e79-41b8-846b-c07556485719",
          "display": "Meaghan Neary"
        },
        "effectiveDateTime": "2022-05-02T22:11:04Z",
        "specimen": {
          "reference": "urn:uuid:f994b440-baad-489b-90f1-d61fa68e413f"
        }
      }
    },
    {
      "fullUrl": "urn:uuid:ed0cb594-ddf5-42f6-b300-fb924e8a0b3d",
      "resource": {
        "resourceType": "Observation",
        "id": "ed0cb594-ddf5-42f6-b300-fb924e8a0b3d",
        "meta": {
          "profile": [
            "http://hl7.eu/fhir/laboratory/StructureDefinition/Observation-resultslab-eu-lab"
          ]
        },
        "performer": [
          {
            "display": "The Central European Lab"
          }
        ],
        "category": [
          {
            "coding": [
              {
                "system": "http://terminology.hl7.org/CodeSystem/observation-category",
                "code": "laboratory"
              }
            ]
          }
        ],
        "code": {
          "coding": [
            {
              "code": "2951-2",
              "system": "http://loinc.org",
              "display": "Sodium [Moles/volume] in Serum or Plasma"
            }
          ],
          "text": "Sodium [Moles/volume] in Serum or Plasma"
        },
        "valueQuantity": {
          "system": "http://unitsofmeasure.org",
          "value": 137.1,
          "unit": "mmol/L",
          "code": "mmol/L"
        },
        "referenceRange": [
          {
            "low": {
              "value": 135,
              "code": "mmol/L",
              "system": "http://unitsofmeasure.org"
            }
          },
          {
            "high": {
              "value": 145,
              "code": "mmol/L",
              "system": "http://unitsofmeasure.org"
            }
          }
        ],
        "text": {
          "status": "generated",
          "div": "<div xmlns=\"http://www.w3.org/1999/xhtml\"><table class=\"hl7__eu__lab__report\"><tr><th>Test</th><th>03-May-2022</th><th>Reference&#xA0;Range</th><th>Unit</th></tr><tr><td>Sodium [Moles/volume] in Serum or Plasma</td><td>137.1</td><td>135 - 145</td><td></td><td>mmol/L</td></tr></table></div>"
        },
        "status": "final",
        "subject": {
          "reference": "urn:uuid:c0b56cd4-5e79-41b8-846b-c07556485719",
          "display": "Meaghan Neary"
        },
        "effectiveDateTime": "2022-05-02T22:11:04Z",
        "specimen": {
          "reference": "urn:uuid:f994b440-baad-489b-90f1-d61fa68e413f"
        }
      }
    },
    {
      "fullUrl": "urn:uuid:da529af0-1e63-4790-a1be-26b8f6efa49a",
      "resource": {
        "resourceType": "Observation",
        "id": "da529af0-1e63-4790-a1be-26b8f6efa49a",
        "meta": {
          "profile": [
            "http://hl7.eu/fhir/laboratory/StructureDefinition/Observation-resultslab-eu-lab"
          ]
        },
        "performer": [
          {
            "display": "The Central European Lab"
          }
        ],
        "category": [
          {
            "coding": [
              {
                "system": "http://terminology.hl7.org/CodeSystem/observation-category",
                "code": "laboratory"
              }
            ]
          }
        ],
        "code": {
          "coding": [
            {
              "code": "2823-3",
              "system": "http://loinc.org",
              "display": "Potassium [Moles/volume] in Serum or Plasma"
            }
          ],
          "text": "Potassium [Moles/volume] in Serum or Plasma"
        },
        "valueQuantity": {
          "system": "http://unitsofmeasure.org",
          "value": 4.7,
          "unit": "mmol/L",
          "code": "mmol/L"
        },
        "referenceRange": [
          {
            "low": {
              "value": 3.5,
              "code": "mmol/L",
              "system": "http://unitsofmeasure.org"
            }
          },
          {
            "high": {
              "value": 5.1,
              "code": "mmol/L",
              "system": "http://unitsofmeasure.org"
            }
          }
        ],
        "text": {
          "status": "generated",
          "div": "<div xmlns=\"http://www.w3.org/1999/xhtml\"><table class=\"hl7__eu__lab__report\"><tr><th>Test</th><th>03-May-2022</th><th>Reference&#xA0;Range</th><th>Unit</th></tr><tr><td>Potassium [Moles/volume] in Serum or Plasma</td><td>4.7</td><td>3.5 - 5.1</td><td></td><td>mmol/L</td></tr></table></div>"
        },
        "status": "final",
        "subject": {
          "reference": "urn:uuid:c0b56cd4-5e79-41b8-846b-c07556485719",
          "display": "Meaghan Neary"
        },
        "effectiveDateTime": "2022-05-02T22:11:04Z",
        "specimen": {
          "reference": "urn:uuid:f994b440-baad-489b-90f1-d61fa68e413f"
        }
      }
    },
    {
      "fullUrl": "urn:uuid:1ad562d7-d379-4dfa-b459-faafc6a27d1f",
      "resource": {
        "resourceType": "Observation",
        "id": "1ad562d7-d379-4dfa-b459-faafc6a27d1f",
        "meta": {
          "profile": [
            "http://hl7.eu/fhir/laboratory/StructureDefinition/Observation-resultslab-eu-lab"
          ]
        },
        "performer": [
          {
            "display": "The Central European Lab"
          }
        ],
        "category": [
          {
            "coding": [
              {
                "system": "http://terminology.hl7.org/CodeSystem/observation-category",
                "code": "laboratory"
              }
            ]
          }
        ],
        "code": {
          "coding": [
            {
              "code": "2075-0",
              "system": "http://loinc.org",
              "display": "Chloride [Moles/volume] in Serum or Plasma"
            }
          ],
          "text": "Chloride [Moles/volume] in Serum or Plasma"
        },
        "valueQuantity": {
          "system": "http://unitsofmeasure.org",
          "value": 105.4,
          "unit": "mmol/L",
          "code": "mmol/L"
        },
        "referenceRange": [
          {
            "low": {
              "value": 98,
              "code": "mmol/L",
              "system": "http://unitsofmeasure.org"
            }
          },
          {
            "high": {
              "value": 108,
              "code": "mmol/L",
              "system": "http://unitsofmeasure.org"
            }
          }
        ],
        "text": {
          "status": "generated",
          "div": "<div xmlns=\"http://www.w3.org/1999/xhtml\"><table class=\"hl7__eu__lab__report\"><tr><th>Test</th><th>03-May-2022</th><th>Reference&#xA0;Range</th><th>Unit</th></tr><tr><td>Chloride [Moles/volume] in Serum or Plasma</td><td>105.4</td><td>98 - 108</td><td></td><td>mmol/L</td></tr></table></div>"
        },
        "status": "final",
        "subject": {
          "reference": "urn:uuid:c0b56cd4-5e79-41b8-846b-c07556485719",
          "display": "Meaghan Neary"
        },
        "effectiveDateTime": "2022-05-02T22:11:04Z",
        "specimen": {
          "reference": "urn:uuid:f994b440-baad-489b-90f1-d61fa68e413f"
        }
      }
    },
    {
      "fullUrl": "urn:uuid:ea402107-0693-4953-87cc-5f52ddbfd445",
      "resource": {
        "resourceType": "Observation",
        "id": "ea402107-0693-4953-87cc-5f52ddbfd445",
        "meta": {
          "profile": [
            "http://hl7.eu/fhir/laboratory/StructureDefinition/Observation-resultslab-eu-lab"
          ]
        },
        "performer": [
          {
            "display": "The Central European Lab"
          }
        ],
        "category": [
          {
            "coding": [
              {
                "system": "http://terminology.hl7.org/CodeSystem/observation-category",
                "code": "laboratory"
              }
            ]
          }
        ],
        "code": {
          "coding": [
            {
              "code": "2028-9",
              "system": "http://loinc.org",
              "display": "Carbon dioxide, total [Moles/volume] in Serum or Plasma"
            }
          ],
          "text": "Carbon dioxide, total [Moles/volume] in Serum or Plasma"
        },
        "valueQuantity": {
          "system": "http://unitsofmeasure.org",
          "value": 27.8,
          "unit": "mmol/L",
          "code": "mmol/L"
        },
        "referenceRange": [
          {
            "low": {
              "value": 22,
              "code": "mmol/L",
              "system": "http://unitsofmeasure.org"
            }
          },
          {
            "high": {
              "value": 32,
              "code": "mmol/L",
              "system": "http://unitsofmeasure.org"
            }
          }
        ],
        "text": {
          "status": "generated",
          "div": "<div xmlns=\"http://www.w3.org/1999/xhtml\"><table class=\"hl7__eu__lab__report\"><tr><th>Test</th><th>03-May-2022</th><th>Reference&#xA0;Range</th><th>Unit</th></tr><tr><td>Carbon dioxide, total [Moles/volume] in Serum or Plasma</td><td>27.8</td><td>22 - 32</td><td></td><td>mmol/L</td></tr></table></div>"
        },
        "status": "final",
        "subject": {
          "reference": "urn:uuid:c0b56cd4-5e79-41b8-846b-c07556485719",
          "display": "Meaghan Neary"
        },
        "effectiveDateTime": "2022-05-02T22:11:04Z",
        "specimen": {
          "reference": "urn:uuid:f994b440-baad-489b-90f1-d61fa68e413f"
        }
      }
    },
    {
      "fullUrl": "urn:uuid:2c1dd8a2-717b-4870-bb29-3122decc16bf",
      "resource": {
        "resourceType": "Observation",
        "id": "2c1dd8a2-717b-4870-bb29-3122decc16bf",
        "meta": {
          "profile": [
            "http://hl7.eu/fhir/laboratory/StructureDefinition/Observation-resultslab-eu-lab"
          ]
        },
        "performer": [
          {
            "display": "The Central European Lab"
          }
        ],
        "category": [
          {
            "coding": [
              {
                "system": "http://terminology.hl7.org/CodeSystem/observation-category",
                "code": "laboratory"
              }
            ]
          }
        ],
        "code": {
          "coding": [
            {
              "code": "5767-9",
              "system": "http://loinc.org",
              "display": "Appearance of Urine"
            }
          ],
          "text": "Appearance of Urine"
        },
        "text": {
          "status": "generated",
          "div": "<div xmlns=\"http://www.w3.org/1999/xhtml\"><table class=\"hl7__eu__lab__report\"><tr><th>Test</th><th>03-May-2022</th><th>Reference&#xA0;Range</th><th>Unit</th></tr><tr><td>Appearance of Urine</td></tr></table></div>"
        },
        "status": "final",
        "subject": {
          "reference": "urn:uuid:c0b56cd4-5e79-41b8-846b-c07556485719",
          "display": "Meaghan Neary"
        },
        "effectiveDateTime": "2022-05-02T22:11:04Z",
        "specimen": {
          "reference": "urn:uuid:34fa434f-062b-48c9-8777-c75b6bcb0e21"
        }
      }
    },
    {
      "fullUrl": "urn:uuid:adb57450-ae27-4545-8c2e-e265b5cabbe6",
      "resource": {
        "resourceType": "Observation",
        "id": "adb57450-ae27-4545-8c2e-e265b5cabbe6",
        "meta": {
          "profile": [
            "http://hl7.eu/fhir/laboratory/StructureDefinition/Observation-resultslab-eu-lab"
          ]
        },
        "performer": [
          {
            "display": "The Central European Lab"
          }
        ],
        "category": [
          {
            "coding": [
              {
                "system": "http://terminology.hl7.org/CodeSystem/observation-category",
                "code": "laboratory"
              }
            ]
          }
        ],
        "code": {
          "coding": [
            {
              "code": "34533-0",
              "system": "http://loinc.org",
              "display": "Odor of Urine"
            }
          ],
          "text": "Odor of Urine"
        },
        "text": {
          "status": "generated",
          "div": "<div xmlns=\"http://www.w3.org/1999/xhtml\"><table class=\"hl7__eu__lab__report\"><tr><th>Test</th><th>03-May-2022</th><th>Reference&#xA0;Range</th><th>Unit</th></tr><tr><td>Odor of Urine</td></tr></table></div>"
        },
        "status": "final",
        "subject": {
          "reference": "urn:uuid:c0b56cd4-5e79-41b8-846b-c07556485719",
          "display": "Meaghan Neary"
        },
        "effectiveDateTime": "2022-05-02T22:11:04Z",
        "specimen": {
          "reference": "urn:uuid:34fa434f-062b-48c9-8777-c75b6bcb0e21"
        }
      }
    },
    {
      "fullUrl": "urn:uuid:6d0e40fc-9998-4c01-b054-9a97cad554da",
      "resource": {
        "resourceType": "Observation",
        "id": "6d0e40fc-9998-4c01-b054-9a97cad554da",
        "meta": {
          "profile": [
            "http://hl7.eu/fhir/laboratory/StructureDefinition/Observation-resultslab-eu-lab"
          ]
        },
        "performer": [
          {
            "display": "The Central European Lab"
          }
        ],
        "category": [
          {
            "coding": [
              {
                "system": "http://terminology.hl7.org/CodeSystem/observation-category",
                "code": "laboratory"
              }
            ]
          }
        ],
        "code": {
          "coding": [
            {
              "code": "32167-9",
              "system": "http://loinc.org",
              "display": "Clarity of Urine"
            }
          ],
          "text": "Clarity of Urine"
        },
        "text": {
          "status": "generated",
          "div": "<div xmlns=\"http://www.w3.org/1999/xhtml\"><table class=\"hl7__eu__lab__report\"><tr><th>Test</th><th>03-May-2022</th><th>Reference&#xA0;Range</th><th>Unit</th></tr><tr><td>Clarity of Urine</td></tr></table></div>"
        },
        "status": "final",
        "subject": {
          "reference": "urn:uuid:c0b56cd4-5e79-41b8-846b-c07556485719",
          "display": "Meaghan Neary"
        },
        "effectiveDateTime": "2022-05-02T22:11:04Z",
        "specimen": {
          "reference": "urn:uuid:34fa434f-062b-48c9-8777-c75b6bcb0e21"
        }
      }
    },
    {
      "fullUrl": "urn:uuid:5cc0c183-7bee-4d05-914c-7940f6e9b9fb",
      "resource": {
        "resourceType": "Observation",
        "id": "5cc0c183-7bee-4d05-914c-7940f6e9b9fb",
        "meta": {
          "profile": [
            "http://hl7.eu/fhir/laboratory/StructureDefinition/Observation-resultslab-eu-lab"
          ]
        },
        "performer": [
          {
            "display": "The Central European Lab"
          }
        ],
        "category": [
          {
            "coding": [
              {
                "system": "http://terminology.hl7.org/CodeSystem/observation-category",
                "code": "laboratory"
              }
            ]
          }
        ],
        "code": {
          "coding": [
            {
              "code": "5778-6",
              "system": "http://loinc.org",
              "display": "Color of Urine"
            }
          ],
          "text": "Color of Urine"
        },
        "text": {
          "status": "generated",
          "div": "<div xmlns=\"http://www.w3.org/1999/xhtml\"><table class=\"hl7__eu__lab__report\"><tr><th>Test</th><th>03-May-2022</th><th>Reference&#xA0;Range</th><th>Unit</th></tr><tr><td>Color of Urine</td></tr></table></div>"
        },
        "status": "final",
        "subject": {
          "reference": "urn:uuid:c0b56cd4-5e79-41b8-846b-c07556485719",
          "display": "Meaghan Neary"
        },
        "effectiveDateTime": "2022-05-02T22:11:04Z",
        "specimen": {
          "reference": "urn:uuid:34fa434f-062b-48c9-8777-c75b6bcb0e21"
        }
      }
    },
    {
      "fullUrl": "urn:uuid:a7bd9c4a-9138-44f8-bbbb-0b561a4026c0",
      "resource": {
        "resourceType": "Observation",
        "id": "a7bd9c4a-9138-44f8-bbbb-0b561a4026c0",
        "meta": {
          "profile": [
            "http://hl7.eu/fhir/laboratory/StructureDefinition/Observation-resultslab-eu-lab"
          ]
        },
        "performer": [
          {
            "display": "The Central European Lab"
          }
        ],
        "category": [
          {
            "coding": [
              {
                "system": "http://terminology.hl7.org/CodeSystem/observation-category",
                "code": "laboratory"
              }
            ]
          }
        ],
        "code": {
          "coding": [
            {
              "code": "5792-7",
              "system": "http://loinc.org",
              "display": "Glucose [Mass/volume] in Urine by Test strip"
            }
          ],
          "text": "Glucose [Mass/volume] in Urine by Test strip"
        },
        "valueQuantity": {
          "system": "http://unitsofmeasure.org",
          "value": 1.5,
          "unit": "mg/dL",
          "code": "mg/dL"
        },
        "referenceRange": [
          {
            "low": {
              "value": 0.8,
              "code": "mg/dL",
              "system": "http://unitsofmeasure.org"
            }
          },
          {
            "high": {
              "value": 0,
              "code": "mg/dL",
              "system": "http://unitsofmeasure.org"
            }
          }
        ],
        "interpretation": [
          {
            "coding": [
              {
                "code": "H",
                "system": "http://terminology.hl7.org/CodeSystem/v3-ObservationInterpretation",
                "display": "High"
              }
            ]
          }
        ],
        "text": {
          "status": "generated",
          "div": "<div xmlns=\"http://www.w3.org/1999/xhtml\"><table class=\"hl7__eu__lab__report\"><tr><th>Test</th><th>03-May-2022</th><th>Reference&#xA0;Range</th><th>Unit</th></tr><tr><td>Glucose [Mass/volume] in Urine by Test strip</td><td>1.5</td><td>0.8 - 0</td><td>H</td><td>mg/dL</td></tr></table></div>"
        },
        "status": "final",
        "subject": {
          "reference": "urn:uuid:c0b56cd4-5e79-41b8-846b-c07556485719",
          "display": "Meaghan Neary"
        },
        "effectiveDateTime": "2022-05-02T22:11:04Z",
        "specimen": {
          "reference": "urn:uuid:34fa434f-062b-48c9-8777-c75b6bcb0e21"
        }
      }
    },
    {
      "fullUrl": "urn:uuid:c101f90a-7cb4-4dbf-96d0-9555a89e12a0",
      "resource": {
        "resourceType": "Observation",
        "id": "c101f90a-7cb4-4dbf-96d0-9555a89e12a0",
        "meta": {
          "profile": [
            "http://hl7.eu/fhir/laboratory/StructureDefinition/Observation-resultslab-eu-lab"
          ]
        },
        "performer": [
          {
            "display": "The Central European Lab"
          }
        ],
        "category": [
          {
            "coding": [
              {
                "system": "http://terminology.hl7.org/CodeSystem/observation-category",
                "code": "laboratory"
              }
            ]
          }
        ],
        "code": {
          "coding": [
            {
              "code": "25428-4",
              "system": "http://loinc.org",
              "display": "Glucose [Presence] in Urine by Test strip"
            }
          ],
          "text": "Glucose [Presence] in Urine by Test strip"
        },
        "text": {
          "status": "generated",
          "div": "<div xmlns=\"http://www.w3.org/1999/xhtml\"><table class=\"hl7__eu__lab__report\"><tr><th>Test</th><th>03-May-2022</th><th>Reference&#xA0;Range</th><th>Unit</th></tr><tr><td>Glucose [Presence] in Urine by Test strip</td></tr></table></div>"
        },
        "status": "final",
        "subject": {
          "reference": "urn:uuid:c0b56cd4-5e79-41b8-846b-c07556485719",
          "display": "Meaghan Neary"
        },
        "effectiveDateTime": "2022-05-02T22:11:04Z",
        "specimen": {
          "reference": "urn:uuid:34fa434f-062b-48c9-8777-c75b6bcb0e21"
        }
      }
    },
    {
      "fullUrl": "urn:uuid:c410bd76-1f63-4418-972f-afaae5eaa89c",
      "resource": {
        "resourceType": "Observation",
        "id": "c410bd76-1f63-4418-972f-afaae5eaa89c",
        "meta": {
          "profile": [
            "http://hl7.eu/fhir/laboratory/StructureDefinition/Observation-resultslab-eu-lab"
          ]
        },
        "performer": [
          {
            "display": "The Central European Lab"
          }
        ],
        "category": [
          {
            "coding": [
              {
                "system": "http://terminology.hl7.org/CodeSystem/observation-category",
                "code": "laboratory"
              }
            ]
          }
        ],
        "code": {
          "coding": [
            {
              "code": "20505-4",
              "system": "http://loinc.org",
              "display": "Bilirubin.total [Mass/volume] in Urine by Test strip"
            }
          ],
          "text": "Bilirubin.total [Mass/volume] in Urine by Test strip"
        },
        "valueQuantity": {
          "system": "http://unitsofmeasure.org",
          "value": 0.7,
          "unit": "mg/dL",
          "code": "mg/dL"
        },
        "referenceRange": [
          {
            "low": {
              "value": 0,
              "code": "mg/dL",
              "system": "http://unitsofmeasure.org"
            }
          },
          {
            "high": {
              "value": 1,
              "code": "mg/dL",
              "system": "http://unitsofmeasure.org"
            }
          }
        ],
        "text": {
          "status": "generated",
          "div": "<div xmlns=\"http://www.w3.org/1999/xhtml\"><table class=\"hl7__eu__lab__report\"><tr><th>Test</th><th>03-May-2022</th><th>Reference&#xA0;Range</th><th>Unit</th></tr><tr><td>Bilirubin.total [Mass/volume] in Urine by Test strip</td><td>0.7</td><td>0 - 1</td><td></td><td>mg/dL</td></tr></table></div>"
        },
        "status": "final",
        "subject": {
          "reference": "urn:uuid:c0b56cd4-5e79-41b8-846b-c07556485719",
          "display": "Meaghan Neary"
        },
        "effectiveDateTime": "2022-05-02T22:11:04Z",
        "specimen": {
          "reference": "urn:uuid:34fa434f-062b-48c9-8777-c75b6bcb0e21"
        }
      }
    },
    {
      "fullUrl": "urn:uuid:0a3294a7-23ac-46dd-8daf-dd532a421afa",
      "resource": {
        "resourceType": "Observation",
        "id": "0a3294a7-23ac-46dd-8daf-dd532a421afa",
        "meta": {
          "profile": [
            "http://hl7.eu/fhir/laboratory/StructureDefinition/Observation-resultslab-eu-lab"
          ]
        },
        "performer": [
          {
            "display": "The Central European Lab"
          }
        ],
        "category": [
          {
            "coding": [
              {
                "system": "http://terminology.hl7.org/CodeSystem/observation-category",
                "code": "laboratory"
              }
            ]
          }
        ],
        "code": {
          "coding": [
            {
              "code": "5770-3",
              "system": "http://loinc.org",
              "display": "Bilirubin.total [Presence] in Urine by Test strip"
            }
          ],
          "text": "Bilirubin.total [Presence] in Urine by Test strip"
        },
        "text": {
          "status": "generated",
          "div": "<div xmlns=\"http://www.w3.org/1999/xhtml\"><table class=\"hl7__eu__lab__report\"><tr><th>Test</th><th>03-May-2022</th><th>Reference&#xA0;Range</th><th>Unit</th></tr><tr><td>Bilirubin.total [Presence] in Urine by Test strip</td></tr></table></div>"
        },
        "status": "final",
        "subject": {
          "reference": "urn:uuid:c0b56cd4-5e79-41b8-846b-c07556485719",
          "display": "Meaghan Neary"
        },
        "effectiveDateTime": "2022-05-02T22:11:04Z",
        "specimen": {
          "reference": "urn:uuid:34fa434f-062b-48c9-8777-c75b6bcb0e21"
        }
      }
    },
    {
      "fullUrl": "urn:uuid:a79b2f1c-32f8-43bb-b325-13c374059e58",
      "resource": {
        "resourceType": "Observation",
        "id": "a79b2f1c-32f8-43bb-b325-13c374059e58",
        "meta": {
          "profile": [
            "http://hl7.eu/fhir/laboratory/StructureDefinition/Observation-resultslab-eu-lab"
          ]
        },
        "performer": [
          {
            "display": "The Central European Lab"
          }
        ],
        "category": [
          {
            "coding": [
              {
                "system": "http://terminology.hl7.org/CodeSystem/observation-category",
                "code": "laboratory"
              }
            ]
          }
        ],
        "code": {
          "coding": [
            {
              "code": "5797-6",
              "system": "http://loinc.org",
              "display": "Ketones [Mass/volume] in Urine by Test strip"
            }
          ],
          "text": "Ketones [Mass/volume] in Urine by Test strip"
        },
        "valueQuantity": {
          "system": "http://unitsofmeasure.org",
          "value": 9.6,
          "unit": "mg/dL",
          "code": "mg/dL"
        },
        "referenceRange": [
          {
            "low": {
              "value": 0,
              "code": "mg/dL",
              "system": "http://unitsofmeasure.org"
            }
          },
          {
            "high": {
              "value": 4,
              "code": "mg/dL",
              "system": "http://unitsofmeasure.org"
            }
          }
        ],
        "interpretation": [
          {
            "coding": [
              {
                "code": "H",
                "system": "http://terminology.hl7.org/CodeSystem/v3-ObservationInterpretation",
                "display": "High"
              }
            ]
          }
        ],
        "text": {
          "status": "generated",
          "div": "<div xmlns=\"http://www.w3.org/1999/xhtml\"><table class=\"hl7__eu__lab__report\"><tr><th>Test</th><th>03-May-2022</th><th>Reference&#xA0;Range</th><th>Unit</th></tr><tr><td>Ketones [Mass/volume] in Urine by Test strip</td><td>9.6</td><td>0 - 4</td><td>H</td><td>mg/dL</td></tr></table></div>"
        },
        "status": "final",
        "subject": {
          "reference": "urn:uuid:c0b56cd4-5e79-41b8-846b-c07556485719",
          "display": "Meaghan Neary"
        },
        "effectiveDateTime": "2022-05-02T22:11:04Z",
        "specimen": {
          "reference": "urn:uuid:34fa434f-062b-48c9-8777-c75b6bcb0e21"
        }
      }
    },
    {
      "fullUrl": "urn:uuid:008a17a8-8092-41c3-bb8e-d93ab0a8b75d",
      "resource": {
        "resourceType": "Observation",
        "id": "008a17a8-8092-41c3-bb8e-d93ab0a8b75d",
        "meta": {
          "profile": [
            "http://hl7.eu/fhir/laboratory/StructureDefinition/Observation-resultslab-eu-lab"
          ]
        },
        "performer": [
          {
            "display": "The Central European Lab"
          }
        ],
        "category": [
          {
            "coding": [
              {
                "system": "http://terminology.hl7.org/CodeSystem/observation-category",
                "code": "laboratory"
              }
            ]
          }
        ],
        "code": {
          "coding": [
            {
              "code": "2514-8",
              "system": "http://loinc.org",
              "display": "Ketones [Presence] in Urine by Test strip"
            }
          ],
          "text": "Ketones [Presence] in Urine by Test strip"
        },
        "text": {
          "status": "generated",
          "div": "<div xmlns=\"http://www.w3.org/1999/xhtml\"><table class=\"hl7__eu__lab__report\"><tr><th>Test</th><th>03-May-2022</th><th>Reference&#xA0;Range</th><th>Unit</th></tr><tr><td>Ketones [Presence] in Urine by Test strip</td></tr></table></div>"
        },
        "status": "final",
        "subject": {
          "reference": "urn:uuid:c0b56cd4-5e79-41b8-846b-c07556485719",
          "display": "Meaghan Neary"
        },
        "effectiveDateTime": "2022-05-02T22:11:04Z",
        "specimen": {
          "reference": "urn:uuid:34fa434f-062b-48c9-8777-c75b6bcb0e21"
        }
      }
    },
    {
      "fullUrl": "urn:uuid:81130f75-5aec-43dc-8cec-b2022bc4ac76",
      "resource": {
        "resourceType": "Observation",
        "id": "81130f75-5aec-43dc-8cec-b2022bc4ac76",
        "meta": {
          "profile": [
            "http://hl7.eu/fhir/laboratory/StructureDefinition/Observation-resultslab-eu-lab"
          ]
        },
        "performer": [
          {
            "display": "The Central European Lab"
          }
        ],
        "category": [
          {
            "coding": [
              {
                "system": "http://terminology.hl7.org/CodeSystem/observation-category",
                "code": "laboratory"
              }
            ]
          }
        ],
        "code": {
          "coding": [
            {
              "code": "5811-5",
              "system": "http://loinc.org",
              "display": "Specific gravity of Urine by Test strip"
            }
          ],
          "text": "Specific gravity of Urine by Test strip"
        },
        "valueQuantity": {
          "system": "http://unitsofmeasure.org",
          "value": 1,
          "unit": "{nominal}",
          "code": "{nominal}"
        },
        "referenceRange": [
          {
            "low": {
              "value": 1.005,
              "code": "g/mL",
              "system": "http://unitsofmeasure.org"
            }
          },
          {
            "high": {
              "value": 1.03,
              "code": "g/mL",
              "system": "http://unitsofmeasure.org"
            }
          }
        ],
        "interpretation": [
          {
            "coding": [
              {
                "code": "L",
                "system": "http://terminology.hl7.org/CodeSystem/v3-ObservationInterpretation",
                "display": "Low"
              }
            ]
          }
        ],
        "text": {
          "status": "generated",
          "div": "<div xmlns=\"http://www.w3.org/1999/xhtml\"><table class=\"hl7__eu__lab__report\"><tr><th>Test</th><th>03-May-2022</th><th>Reference&#xA0;Range</th><th>Unit</th></tr><tr><td>Specific gravity of Urine by Test strip</td><td>1.0</td><td>1.005 - 1.03</td><td>L</td><td>{nominal}</td></tr></table></div>"
        },
        "status": "final",
        "subject": {
          "reference": "urn:uuid:c0b56cd4-5e79-41b8-846b-c07556485719",
          "display": "Meaghan Neary"
        },
        "effectiveDateTime": "2022-05-02T22:11:04Z",
        "specimen": {
          "reference": "urn:uuid:34fa434f-062b-48c9-8777-c75b6bcb0e21"
        }
      }
    },
    {
      "fullUrl": "urn:uuid:2249d7aa-bef5-4e73-b992-7f8e5f7dbd6c",
      "resource": {
        "resourceType": "Observation",
        "id": "2249d7aa-bef5-4e73-b992-7f8e5f7dbd6c",
        "meta": {
          "profile": [
            "http://hl7.eu/fhir/laboratory/StructureDefinition/Observation-resultslab-eu-lab"
          ]
        },
        "performer": [
          {
            "display": "The Central European Lab"
          }
        ],
        "category": [
          {
            "coding": [
              {
                "system": "http://terminology.hl7.org/CodeSystem/observation-category",
                "code": "laboratory"
              }
            ]
          }
        ],
        "code": {
          "coding": [
            {
              "code": "5803-2",
              "system": "http://loinc.org",
              "display": "pH of Urine by Test strip"
            }
          ],
          "text": "pH of Urine by Test strip"
        },
        "valueQuantity": {
          "system": "http://unitsofmeasure.org",
          "value": 6.7,
          "unit": "pH",
          "code": "pH"
        },
        "referenceRange": [
          {
            "low": {
              "value": 4.6,
              "code": "pH",
              "system": "http://unitsofmeasure.org"
            }
          },
          {
            "high": {
              "value": 7,
              "code": "pH",
              "system": "http://unitsofmeasure.org"
            }
          }
        ],
        "text": {
          "status": "generated",
          "div": "<div xmlns=\"http://www.w3.org/1999/xhtml\"><table class=\"hl7__eu__lab__report\"><tr><th>Test</th><th>03-May-2022</th><th>Reference&#xA0;Range</th><th>Unit</th></tr><tr><td>pH of Urine by Test strip</td><td>6.7</td><td>4.6 - 7</td><td></td><td>pH</td></tr></table></div>"
        },
        "status": "final",
        "subject": {
          "reference": "urn:uuid:c0b56cd4-5e79-41b8-846b-c07556485719",
          "display": "Meaghan Neary"
        },
        "effectiveDateTime": "2022-05-02T22:11:04Z",
        "specimen": {
          "reference": "urn:uuid:34fa434f-062b-48c9-8777-c75b6bcb0e21"
        }
      }
    },
    {
      "fullUrl": "urn:uuid:f9d9ec06-f2d0-480d-b09f-bebdd74be472",
      "resource": {
        "resourceType": "Observation",
        "id": "f9d9ec06-f2d0-480d-b09f-bebdd74be472",
        "meta": {
          "profile": [
            "http://hl7.eu/fhir/laboratory/StructureDefinition/Observation-resultslab-eu-lab"
          ]
        },
        "performer": [
          {
            "display": "The Central European Lab"
          }
        ],
        "category": [
          {
            "coding": [
              {
                "system": "http://terminology.hl7.org/CodeSystem/observation-category",
                "code": "laboratory"
              }
            ]
          }
        ],
        "code": {
          "coding": [
            {
              "code": "5804-0",
              "system": "http://loinc.org",
              "display": "Protein [Mass/volume] in Urine by Test strip"
            }
          ],
          "text": "Protein [Mass/volume] in Urine by Test strip"
        },
        "valueQuantity": {
          "system": "http://unitsofmeasure.org",
          "value": 267.4,
          "unit": "mg/dL",
          "code": "mg/dL"
        },
        "referenceRange": [
          {
            "low": {
              "value": 0,
              "code": "mg/dL",
              "system": "http://unitsofmeasure.org"
            }
          },
          {
            "high": {
              "value": 14,
              "code": "mg/dL",
              "system": "http://unitsofmeasure.org"
            }
          }
        ],
        "interpretation": [
          {
            "coding": [
              {
                "code": "H",
                "system": "http://terminology.hl7.org/CodeSystem/v3-ObservationInterpretation",
                "display": "High"
              }
            ]
          }
        ],
        "text": {
          "status": "generated",
          "div": "<div xmlns=\"http://www.w3.org/1999/xhtml\"><table class=\"hl7__eu__lab__report\"><tr><th>Test</th><th>03-May-2022</th><th>Reference&#xA0;Range</th><th>Unit</th></tr><tr><td>Protein [Mass/volume] in Urine by Test strip</td><td>267.4</td><td>0 - 14</td><td>H</td><td>mg/dL</td></tr></table></div>"
        },
        "status": "final",
        "subject": {
          "reference": "urn:uuid:c0b56cd4-5e79-41b8-846b-c07556485719",
          "display": "Meaghan Neary"
        },
        "effectiveDateTime": "2022-05-02T22:11:04Z",
        "specimen": {
          "reference": "urn:uuid:34fa434f-062b-48c9-8777-c75b6bcb0e21"
        }
      }
    },
    {
      "fullUrl": "urn:uuid:c91088bd-e24e-4aec-a167-c8dfa0f5af1e",
      "resource": {
        "resourceType": "Observation",
        "id": "c91088bd-e24e-4aec-a167-c8dfa0f5af1e",
        "meta": {
          "profile": [
            "http://hl7.eu/fhir/laboratory/StructureDefinition/Observation-resultslab-eu-lab"
          ]
        },
        "performer": [
          {
            "display": "The Central European Lab"
          }
        ],
        "category": [
          {
            "coding": [
              {
                "system": "http://terminology.hl7.org/CodeSystem/observation-category",
                "code": "laboratory"
              }
            ]
          }
        ],
        "code": {
          "coding": [
            {
              "code": "20454-5",
              "system": "http://loinc.org",
              "display": "Protein [Presence] in Urine by Test strip"
            }
          ],
          "text": "Protein [Presence] in Urine by Test strip"
        },
        "text": {
          "status": "generated",
          "div": "<div xmlns=\"http://www.w3.org/1999/xhtml\"><table class=\"hl7__eu__lab__report\"><tr><th>Test</th><th>03-May-2022</th><th>Reference&#xA0;Range</th><th>Unit</th></tr><tr><td>Protein [Presence] in Urine by Test strip</td></tr></table></div>"
        },
        "status": "final",
        "subject": {
          "reference": "urn:uuid:c0b56cd4-5e79-41b8-846b-c07556485719",
          "display": "Meaghan Neary"
        },
        "effectiveDateTime": "2022-05-02T22:11:04Z",
        "specimen": {
          "reference": "urn:uuid:34fa434f-062b-48c9-8777-c75b6bcb0e21"
        }
      }
    },
    {
      "fullUrl": "urn:uuid:54b63c45-46c8-4aa2-b0e2-33c417b490af",
      "resource": {
        "resourceType": "Observation",
        "id": "54b63c45-46c8-4aa2-b0e2-33c417b490af",
        "meta": {
          "profile": [
            "http://hl7.eu/fhir/laboratory/StructureDefinition/Observation-resultslab-eu-lab"
          ]
        },
        "performer": [
          {
            "display": "The Central European Lab"
          }
        ],
        "category": [
          {
            "coding": [
              {
                "system": "http://terminology.hl7.org/CodeSystem/observation-category",
                "code": "laboratory"
              }
            ]
          }
        ],
        "code": {
          "coding": [
            {
              "code": "5802-4",
              "system": "http://loinc.org",
              "display": "Nitrite [Presence] in Urine by Test strip"
            }
          ],
          "text": "Nitrite [Presence] in Urine by Test strip"
        },
        "text": {
          "status": "generated",
          "div": "<div xmlns=\"http://www.w3.org/1999/xhtml\"><table class=\"hl7__eu__lab__report\"><tr><th>Test</th><th>03-May-2022</th><th>Reference&#xA0;Range</th><th>Unit</th></tr><tr><td>Nitrite [Presence] in Urine by Test strip</td></tr></table></div>"
        },
        "status": "final",
        "subject": {
          "reference": "urn:uuid:c0b56cd4-5e79-41b8-846b-c07556485719",
          "display": "Meaghan Neary"
        },
        "effectiveDateTime": "2022-05-02T22:11:04Z",
        "specimen": {
          "reference": "urn:uuid:34fa434f-062b-48c9-8777-c75b6bcb0e21"
        }
      }
    },
    {
      "fullUrl": "urn:uuid:5fa723bf-5b8c-435b-8359-d1d267938d86",
      "resource": {
        "resourceType": "Observation",
        "id": "5fa723bf-5b8c-435b-8359-d1d267938d86",
        "meta": {
          "profile": [
            "http://hl7.eu/fhir/laboratory/StructureDefinition/Observation-resultslab-eu-lab"
          ]
        },
        "performer": [
          {
            "display": "The Central European Lab"
          }
        ],
        "category": [
          {
            "coding": [
              {
                "system": "http://terminology.hl7.org/CodeSystem/observation-category",
                "code": "laboratory"
              }
            ]
          }
        ],
        "code": {
          "coding": [
            {
              "code": "5794-3",
              "system": "http://loinc.org",
              "display": "Hemoglobin [Presence] in Urine by Test strip"
            }
          ],
          "text": "Hemoglobin [Presence] in Urine by Test strip"
        },
        "text": {
          "status": "generated",
          "div": "<div xmlns=\"http://www.w3.org/1999/xhtml\"><table class=\"hl7__eu__lab__report\"><tr><th>Test</th><th>03-May-2022</th><th>Reference&#xA0;Range</th><th>Unit</th></tr><tr><td>Hemoglobin [Presence] in Urine by Test strip</td></tr></table></div>"
        },
        "status": "final",
        "subject": {
          "reference": "urn:uuid:c0b56cd4-5e79-41b8-846b-c07556485719",
          "display": "Meaghan Neary"
        },
        "effectiveDateTime": "2022-05-02T22:11:04Z",
        "specimen": {
          "reference": "urn:uuid:34fa434f-062b-48c9-8777-c75b6bcb0e21"
        }
      }
    },
    {
      "fullUrl": "urn:uuid:e07cba4f-95d8-4e16-9ec6-30753b45daf4",
      "resource": {
        "resourceType": "Observation",
        "id": "e07cba4f-95d8-4e16-9ec6-30753b45daf4",
        "meta": {
          "profile": [
            "http://hl7.eu/fhir/laboratory/StructureDefinition/Observation-resultslab-eu-lab"
          ]
        },
        "performer": [
          {
            "display": "The Central European Lab"
          }
        ],
        "category": [
          {
            "coding": [
              {
                "system": "http://terminology.hl7.org/CodeSystem/observation-category",
                "code": "laboratory"
              }
            ]
          }
        ],
        "code": {
          "coding": [
            {
              "code": "5799-2",
              "system": "http://loinc.org",
              "display": "Leukocyte esterase [Presence] in Urine by Test strip"
            }
          ],
          "text": "Leukocyte esterase [Presence] in Urine by Test strip"
        },
        "text": {
          "status": "generated",
          "div": "<div xmlns=\"http://www.w3.org/1999/xhtml\"><table class=\"hl7__eu__lab__report\"><tr><th>Test</th><th>03-May-2022</th><th>Reference&#xA0;Range</th><th>Unit</th></tr><tr><td>Leukocyte esterase [Presence] in Urine by Test strip</td></tr></table></div>"
        },
        "status": "final",
        "subject": {
          "reference": "urn:uuid:c0b56cd4-5e79-41b8-846b-c07556485719",
          "display": "Meaghan Neary"
        },
        "effectiveDateTime": "2022-05-02T22:11:04Z",
        "specimen": {
          "reference": "urn:uuid:34fa434f-062b-48c9-8777-c75b6bcb0e21"
        }
      }
    },
    {
      "fullUrl": "urn:uuid:df23e135-5266-4866-8c39-b97fc6d2a818",
      "resource": {
        "resourceType": "Observation",
        "id": "df23e135-5266-4866-8c39-b97fc6d2a818",
        "meta": {
          "profile": [
            "http://hl7.eu/fhir/laboratory/StructureDefinition/Observation-resultslab-eu-lab"
          ]
        },
        "performer": [
          {
            "display": "The Central European Lab"
          }
        ],
        "category": [
          {
            "coding": [
              {
                "system": "http://terminology.hl7.org/CodeSystem/observation-category",
                "code": "laboratory"
              }
            ]
          }
        ],
        "code": {
          "coding": [
            {
              "code": "4548-4",
              "system": "http://loinc.org",
              "display": "Hemoglobin A1c/Hemoglobin.total in Blood"
            }
          ],
          "text": "Hemoglobin A1c/Hemoglobin.total in Blood"
        },
        "valueQuantity": {
          "system": "http://unitsofmeasure.org",
          "value": 2.8,
          "unit": "%",
          "code": "%"
        },
        "referenceRange": [
          {
            "low": {
              "value": 4,
              "code": "%",
              "system": "http://unitsofmeasure.org"
            }
          },
          {
            "high": {
              "value": 6.4,
              "code": "%",
              "system": "http://unitsofmeasure.org"
            }
          }
        ],
        "interpretation": [
          {
            "coding": [
              {
                "code": "L",
                "system": "http://terminology.hl7.org/CodeSystem/v3-ObservationInterpretation",
                "display": "Low"
              }
            ]
          }
        ],
        "text": {
          "status": "generated",
          "div": "<div xmlns=\"http://www.w3.org/1999/xhtml\"><table class=\"hl7__eu__lab__report\"><tr><th>Test</th><th>03-May-2022</th><th>Reference&#xA0;Range</th><th>Unit</th></tr><tr><td>Hemoglobin A1c/Hemoglobin.total in Blood</td><td>2.8</td><td>4 - 6.4</td><td>L</td><td>%</td></tr></table></div>"
        },
        "status": "final",
        "subject": {
          "reference": "urn:uuid:c0b56cd4-5e79-41b8-846b-c07556485719",
          "display": "Meaghan Neary"
        },
        "effectiveDateTime": "2022-05-02T22:11:04Z",
        "specimen": {
          "reference": "urn:uuid:c587267d-843c-4d22-8103-f74241487ba6"
        }
      }
    },
    {
      "fullUrl": "urn:uuid:6caa2221-ed33-4c17-afa1-3c5a8efb55c4",
      "resource": {
        "resourceType": "Observation",
        "id": "6caa2221-ed33-4c17-afa1-3c5a8efb55c4",
        "meta": {
          "profile": [
            "http://hl7.eu/fhir/laboratory/StructureDefinition/Observation-resultslab-eu-lab"
          ]
        },
        "performer": [
          {
            "display": "The Central European Lab"
          }
        ],
        "category": [
          {
            "coding": [
              {
                "system": "http://terminology.hl7.org/CodeSystem/observation-category",
                "code": "laboratory"
              }
            ]
          }
        ],
        "code": {
          "coding": [
            {
              "code": "2339-0",
              "system": "http://loinc.org",
              "display": "Glucose [Mass/volume] in Blood"
            }
          ],
          "text": "Glucose [Mass/volume] in Blood"
        },
        "valueQuantity": {
          "system": "http://unitsofmeasure.org",
          "value": 66.6,
          "unit": "mg/dL",
          "code": "mg/dL"
        },
        "referenceRange": [
          {
            "low": {
              "value": 70,
              "code": "mg/dL",
              "system": "http://unitsofmeasure.org"
            }
          },
          {
            "high": {
              "value": 100,
              "code": "mg/dL",
              "system": "http://unitsofmeasure.org"
            }
          }
        ],
        "interpretation": [
          {
            "coding": [
              {
                "code": "L",
                "system": "http://terminology.hl7.org/CodeSystem/v3-ObservationInterpretation",
                "display": "Low"
              }
            ]
          }
        ],
        "text": {
          "status": "generated",
          "div": "<div xmlns=\"http://www.w3.org/1999/xhtml\"><table class=\"hl7__eu__lab__report\"><tr><th>Test</th><th>03-May-2022</th><th>Reference&#xA0;Range</th><th>Unit</th></tr><tr><td>Glucose [Mass/volume] in Blood</td><td>66.6</td><td>70 - 100</td><td>L</td><td>mg/dL</td></tr></table></div>"
        },
        "status": "final",
        "subject": {
          "reference": "urn:uuid:c0b56cd4-5e79-41b8-846b-c07556485719",
          "display": "Meaghan Neary"
        },
        "effectiveDateTime": "2022-05-02T22:11:04Z",
        "specimen": {
          "reference": "urn:uuid:c587267d-843c-4d22-8103-f74241487ba6"
        }
      }
    },
    {
      "fullUrl": "urn:uuid:d5074a8e-75f4-42cc-81ff-e573dc38389e",
      "resource": {
        "resourceType": "Observation",
        "id": "d5074a8e-75f4-42cc-81ff-e573dc38389e",
        "meta": {
          "profile": [
            "http://hl7.eu/fhir/laboratory/StructureDefinition/Observation-resultslab-eu-lab"
          ]
        },
        "performer": [
          {
            "display": "The Central European Lab"
          }
        ],
        "category": [
          {
            "coding": [
              {
                "system": "http://terminology.hl7.org/CodeSystem/observation-category",
                "code": "laboratory"
              }
            ]
          }
        ],
        "code": {
          "coding": [
            {
              "code": "6299-2",
              "system": "http://loinc.org",
              "display": "Urea nitrogen [Mass/volume] in Blood"
            }
          ],
          "text": "Urea nitrogen [Mass/volume] in Blood"
        },
        "valueQuantity": {
          "system": "http://unitsofmeasure.org",
          "value": 19.7,
          "unit": "mg/dL",
          "code": "mg/dL"
        },
        "referenceRange": [
          {
            "low": {
              "value": 7,
              "code": "mg/dL",
              "system": "http://unitsofmeasure.org"
            }
          },
          {
            "high": {
              "value": 43,
              "code": "mg/dL",
              "system": "http://unitsofmeasure.org"
            }
          }
        ],
        "text": {
          "status": "generated",
          "div": "<div xmlns=\"http://www.w3.org/1999/xhtml\"><table class=\"hl7__eu__lab__report\"><tr><th>Test</th><th>03-May-2022</th><th>Reference&#xA0;Range</th><th>Unit</th></tr><tr><td>Urea nitrogen [Mass/volume] in Blood</td><td>19.7</td><td>7 - 43</td><td></td><td>mg/dL</td></tr></table></div>"
        },
        "status": "final",
        "subject": {
          "reference": "urn:uuid:c0b56cd4-5e79-41b8-846b-c07556485719",
          "display": "Meaghan Neary"
        },
        "effectiveDateTime": "2022-05-02T22:11:04Z",
        "specimen": {
          "reference": "urn:uuid:c587267d-843c-4d22-8103-f74241487ba6"
        }
      }
    },
    {
      "fullUrl": "urn:uuid:ae173e84-bb65-4b62-a347-342260a031b9",
      "resource": {
        "resourceType": "Observation",
        "id": "ae173e84-bb65-4b62-a347-342260a031b9",
        "meta": {
          "profile": [
            "http://hl7.eu/fhir/laboratory/StructureDefinition/Observation-resultslab-eu-lab"
          ]
        },
        "performer": [
          {
            "display": "The Central European Lab"
          }
        ],
        "category": [
          {
            "coding": [
              {
                "system": "http://terminology.hl7.org/CodeSystem/observation-category",
                "code": "laboratory"
              }
            ]
          }
        ],
        "code": {
          "coding": [
            {
              "code": "38483-4",
              "system": "http://loinc.org",
              "display": "Creatinine [Mass/volume] in Blood"
            }
          ],
          "text": "Creatinine [Mass/volume] in Blood"
        },
        "valueQuantity": {
          "system": "http://unitsofmeasure.org",
          "value": 4.4,
          "unit": "mg/dL",
          "code": "mg/dL"
        },
        "referenceRange": [
          {
            "low": {
              "value": 0.6,
              "code": "mg/dL",
              "system": "http://unitsofmeasure.org"
            }
          },
          {
            "high": {
              "value": 1.1,
              "code": "mg/dL",
              "system": "http://unitsofmeasure.org"
            }
          }
        ],
        "interpretation": [
          {
            "coding": [
              {
                "code": "H",
                "system": "http://terminology.hl7.org/CodeSystem/v3-ObservationInterpretation",
                "display": "High"
              }
            ]
          }
        ],
        "text": {
          "status": "generated",
          "div": "<div xmlns=\"http://www.w3.org/1999/xhtml\"><table class=\"hl7__eu__lab__report\"><tr><th>Test</th><th>03-May-2022</th><th>Reference&#xA0;Range</th><th>Unit</th></tr><tr><td>Creatinine [Mass/volume] in Blood</td><td>4.4</td><td>0.6 - 1.1</td><td>H</td><td>mg/dL</td></tr></table></div>"
        },
        "status": "final",
        "subject": {
          "reference": "urn:uuid:c0b56cd4-5e79-41b8-846b-c07556485719",
          "display": "Meaghan Neary"
        },
        "effectiveDateTime": "2022-05-02T22:11:04Z",
        "specimen": {
          "reference": "urn:uuid:c587267d-843c-4d22-8103-f74241487ba6"
        }
      }
    },
    {
      "fullUrl": "urn:uuid:ab424f2b-9b33-4350-b85e-25dbd1bb5572",
      "resource": {
        "resourceType": "Observation",
        "id": "ab424f2b-9b33-4350-b85e-25dbd1bb5572",
        "meta": {
          "profile": [
            "http://hl7.eu/fhir/laboratory/StructureDefinition/Observation-resultslab-eu-lab"
          ]
        },
        "performer": [
          {
            "display": "The Central European Lab"
          }
        ],
        "category": [
          {
            "coding": [
              {
                "system": "http://terminology.hl7.org/CodeSystem/observation-category",
                "code": "laboratory"
              }
            ]
          }
        ],
        "code": {
          "coding": [
            {
              "code": "49765-1",
              "system": "http://loinc.org",
              "display": "Calcium [Mass/volume] in Blood"
            }
          ],
          "text": "Calcium [Mass/volume] in Blood"
        },
        "valueQuantity": {
          "system": "http://unitsofmeasure.org",
          "value": 8.6,
          "unit": "mg/dL",
          "code": "mg/dL"
        },
        "referenceRange": [
          {
            "low": {
              "value": 8.5,
              "code": "mg/dL",
              "system": "http://unitsofmeasure.org"
            }
          },
          {
            "high": {
              "value": 10.5,
              "code": "mg/dL",
              "system": "http://unitsofmeasure.org"
            }
          }
        ],
        "text": {
          "status": "generated",
          "div": "<div xmlns=\"http://www.w3.org/1999/xhtml\"><table class=\"hl7__eu__lab__report\"><tr><th>Test</th><th>03-May-2022</th><th>Reference&#xA0;Range</th><th>Unit</th></tr><tr><td>Calcium [Mass/volume] in Blood</td><td>8.6</td><td>8.5 - 10.5</td><td></td><td>mg/dL</td></tr></table></div>"
        },
        "status": "final",
        "subject": {
          "reference": "urn:uuid:c0b56cd4-5e79-41b8-846b-c07556485719",
          "display": "Meaghan Neary"
        },
        "effectiveDateTime": "2022-05-02T22:11:04Z",
        "specimen": {
          "reference": "urn:uuid:c587267d-843c-4d22-8103-f74241487ba6"
        }
      }
    },
    {
      "fullUrl": "urn:uuid:4333c970-0bd2-4df9-a011-12d9a2fc4e30",
      "resource": {
        "resourceType": "Observation",
        "id": "4333c970-0bd2-4df9-a011-12d9a2fc4e30",
        "meta": {
          "profile": [
            "http://hl7.eu/fhir/laboratory/StructureDefinition/Observation-resultslab-eu-lab"
          ]
        },
        "performer": [
          {
            "display": "The Central European Lab"
          }
        ],
        "category": [
          {
            "coding": [
              {
                "system": "http://terminology.hl7.org/CodeSystem/observation-category",
                "code": "laboratory"
              }
            ]
          }
        ],
        "code": {
          "coding": [
            {
              "code": "2947-0",
              "system": "http://loinc.org",
              "display": "Sodium [Moles/volume] in Blood"
            }
          ],
          "text": "Sodium [Moles/volume] in Blood"
        },
        "valueQuantity": {
          "system": "http://unitsofmeasure.org",
          "value": 137.1,
          "unit": "mmol/L",
          "code": "mmol/L"
        },
        "referenceRange": [
          {
            "low": {
              "value": 135,
              "code": "mmol/L",
              "system": "http://unitsofmeasure.org"
            }
          },
          {
            "high": {
              "value": 145,
              "code": "mmol/L",
              "system": "http://unitsofmeasure.org"
            }
          }
        ],
        "text": {
          "status": "generated",
          "div": "<div xmlns=\"http://www.w3.org/1999/xhtml\"><table class=\"hl7__eu__lab__report\"><tr><th>Test</th><th>03-May-2022</th><th>Reference&#xA0;Range</th><th>Unit</th></tr><tr><td>Sodium [Moles/volume] in Blood</td><td>137.1</td><td>135 - 145</td><td></td><td>mmol/L</td></tr></table></div>"
        },
        "status": "final",
        "subject": {
          "reference": "urn:uuid:c0b56cd4-5e79-41b8-846b-c07556485719",
          "display": "Meaghan Neary"
        },
        "effectiveDateTime": "2022-05-02T22:11:04Z",
        "specimen": {
          "reference": "urn:uuid:c587267d-843c-4d22-8103-f74241487ba6"
        }
      }
    },
    {
      "fullUrl": "urn:uuid:a6cb4161-4fd6-4f0c-b2bd-aa3fa6186980",
      "resource": {
        "resourceType": "Observation",
        "id": "a6cb4161-4fd6-4f0c-b2bd-aa3fa6186980",
        "meta": {
          "profile": [
            "http://hl7.eu/fhir/laboratory/StructureDefinition/Observation-resultslab-eu-lab"
          ]
        },
        "performer": [
          {
            "display": "The Central European Lab"
          }
        ],
        "category": [
          {
            "coding": [
              {
                "system": "http://terminology.hl7.org/CodeSystem/observation-category",
                "code": "laboratory"
              }
            ]
          }
        ],
        "code": {
          "coding": [
            {
              "code": "6298-4",
              "system": "http://loinc.org",
              "display": "Potassium [Moles/volume] in Blood"
            }
          ],
          "text": "Potassium [Moles/volume] in Blood"
        },
        "valueQuantity": {
          "system": "http://unitsofmeasure.org",
          "value": 4.7,
          "unit": "mmol/L",
          "code": "mmol/L"
        },
        "referenceRange": [
          {
            "low": {
              "value": 3.5,
              "code": "mmol/L",
              "system": "http://unitsofmeasure.org"
            }
          },
          {
            "high": {
              "value": 5.1,
              "code": "mmol/L",
              "system": "http://unitsofmeasure.org"
            }
          }
        ],
        "text": {
          "status": "generated",
          "div": "<div xmlns=\"http://www.w3.org/1999/xhtml\"><table class=\"hl7__eu__lab__report\"><tr><th>Test</th><th>03-May-2022</th><th>Reference&#xA0;Range</th><th>Unit</th></tr><tr><td>Potassium [Moles/volume] in Blood</td><td>4.7</td><td>3.5 - 5.1</td><td></td><td>mmol/L</td></tr></table></div>"
        },
        "status": "final",
        "subject": {
          "reference": "urn:uuid:c0b56cd4-5e79-41b8-846b-c07556485719",
          "display": "Meaghan Neary"
        },
        "effectiveDateTime": "2022-05-02T22:11:04Z",
        "specimen": {
          "reference": "urn:uuid:c587267d-843c-4d22-8103-f74241487ba6"
        }
      }
    },
    {
      "fullUrl": "urn:uuid:6c198750-3c7e-4844-96cd-7c8dc7584b3d",
      "resource": {
        "resourceType": "Observation",
        "id": "6c198750-3c7e-4844-96cd-7c8dc7584b3d",
        "meta": {
          "profile": [
            "http://hl7.eu/fhir/laboratory/StructureDefinition/Observation-resultslab-eu-lab"
          ]
        },
        "performer": [
          {
            "display": "The Central European Lab"
          }
        ],
        "category": [
          {
            "coding": [
              {
                "system": "http://terminology.hl7.org/CodeSystem/observation-category",
                "code": "laboratory"
              }
            ]
          }
        ],
        "code": {
          "coding": [
            {
              "code": "2069-3",
              "system": "http://loinc.org",
              "display": "Chloride [Moles/volume] in Blood"
            }
          ],
          "text": "Chloride [Moles/volume] in Blood"
        },
        "valueQuantity": {
          "system": "http://unitsofmeasure.org",
          "value": 105.4,
          "unit": "mmol/L",
          "code": "mmol/L"
        },
        "referenceRange": [
          {
            "low": {
              "value": 98,
              "code": "mmol/L",
              "system": "http://unitsofmeasure.org"
            }
          },
          {
            "high": {
              "value": 108,
              "code": "mmol/L",
              "system": "http://unitsofmeasure.org"
            }
          }
        ],
        "text": {
          "status": "generated",
          "div": "<div xmlns=\"http://www.w3.org/1999/xhtml\"><table class=\"hl7__eu__lab__report\"><tr><th>Test</th><th>03-May-2022</th><th>Reference&#xA0;Range</th><th>Unit</th></tr><tr><td>Chloride [Moles/volume] in Blood</td><td>105.4</td><td>98 - 108</td><td></td><td>mmol/L</td></tr></table></div>"
        },
        "status": "final",
        "subject": {
          "reference": "urn:uuid:c0b56cd4-5e79-41b8-846b-c07556485719",
          "display": "Meaghan Neary"
        },
        "effectiveDateTime": "2022-05-02T22:11:04Z",
        "specimen": {
          "reference": "urn:uuid:c587267d-843c-4d22-8103-f74241487ba6"
        }
      }
    },
    {
      "fullUrl": "urn:uuid:faf1d6e6-466f-4a14-a6f8-ce15746c96a7",
      "resource": {
        "resourceType": "Observation",
        "id": "faf1d6e6-466f-4a14-a6f8-ce15746c96a7",
        "meta": {
          "profile": [
            "http://hl7.eu/fhir/laboratory/StructureDefinition/Observation-resultslab-eu-lab"
          ]
        },
        "performer": [
          {
            "display": "The Central European Lab"
          }
        ],
        "category": [
          {
            "coding": [
              {
                "system": "http://terminology.hl7.org/CodeSystem/observation-category",
                "code": "laboratory"
              }
            ]
          }
        ],
        "code": {
          "coding": [
            {
              "code": "20565-8",
              "system": "http://loinc.org",
              "display": "Carbon dioxide, total [Moles/volume] in Blood"
            }
          ],
          "text": "Carbon dioxide, total [Moles/volume] in Blood"
        },
        "valueQuantity": {
          "system": "http://unitsofmeasure.org",
          "value": 27.8,
          "unit": "mmol/L",
          "code": "mmol/L"
        },
        "referenceRange": [
          {
            "low": {
              "value": 22,
              "code": "mmol/L",
              "system": "http://unitsofmeasure.org"
            }
          },
          {
            "high": {
              "value": 29,
              "code": "mmol/L",
              "system": "http://unitsofmeasure.org"
            }
          }
        ],
        "text": {
          "status": "generated",
          "div": "<div xmlns=\"http://www.w3.org/1999/xhtml\"><table class=\"hl7__eu__lab__report\"><tr><th>Test</th><th>03-May-2022</th><th>Reference&#xA0;Range</th><th>Unit</th></tr><tr><td>Carbon dioxide, total [Moles/volume] in Blood</td><td>27.8</td><td>22 - 29</td><td></td><td>mmol/L</td></tr></table></div>"
        },
        "status": "final",
        "subject": {
          "reference": "urn:uuid:c0b56cd4-5e79-41b8-846b-c07556485719",
          "display": "Meaghan Neary"
        },
        "effectiveDateTime": "2022-05-02T22:11:04Z",
        "specimen": {
          "reference": "urn:uuid:c587267d-843c-4d22-8103-f74241487ba6"
        }
      }
    },
    {
      "fullUrl": "urn:uuid:4ef4ff8d-9a2b-4973-8b6d-9ba3bd6912e3",
      "resource": {
        "resourceType": "Device",
        "id": "4ef4ff8d-9a2b-4973-8b6d-9ba3bd6912e3",
        "deviceName": [
          {
            "name": "SYNDERAI Synthetic Generator",
            "type": "manufacturer-name"
          }
        ],
        "version": [
          {
            "value": "5.0"
          }
        ],
        "text": {
          "status": "generated",
          "div": "<div xmlns=\"http://www.w3.org/1999/xhtml\">SYNDERAI Synthetic Generator v5.0</div>"
        },
        "status": "active\"",
        "distinctIdentifier": "synderai-generator-50",
        "manufacturer": "SYNDERAI Project"
      }
    },
    {
      "fullUrl": "urn:uuid:0cd26245-ed8f-4414-bee7-af53f5f66fbe",
      "resource": {
        "resourceType": "Provenance",
        "id": "0cd26245-ed8f-4414-bee7-af53f5f66fbe",
        "target": [
          {
            "reference": "Patient/c0b56cd4-5e79-41b8-846b-c07556485719"
          },
          {
            "reference": "Bundle/8a98a6a7-f2d2-4339-ab90-800245285d79"
          },
          {
            "reference": "Composition/deb726f2-73db-498a-a463-49deba9a20b2"
          },
          {
            "reference": "PractitionerRole/7be89a33-537c-42e4-b7f9-cefcbef19d69"
          },
          {
            "reference": "Practitioner/93840e16-5257-410c-a561-83e6a495ac0f"
          },
          {
            "reference": "PractitionerRole/9ec8664d-b57e-4be9-8044-6ce29b2be6f4"
          },
          {
            "reference": "Organization/c10699d4-5da2-4bfb-aba9-6f3ddb1d2199"
          }
        ],
        "activity": {
          "text": "Synthetic Example Data Generation"
        },
        "policy": [
          "https://synderai.net/synderai-synthetic-data-policy"
        ],
        "agent": [
          {
            "type": {
              "text": "author"
            },
            "who": {
              "reference": "Device/4ef4ff8d-9a2b-4973-8b6d-9ba3bd6912e3"
            }
          }
        ],
        "reason": [
          {
            "text": "Interoperability Testing and Training (non-clinical use)"
          }
        ],
        "text": {
          "status": "generated",
          "div": "<div xmlns=\"http://www.w3.org/1999/xhtml\">Provenance for SYNDERAI Synthetic Example Data Resource</div>"
        },
        "recorded": "2022-05-03T00:11:04Z"
      }
    },
    {
      "fullUrl": "urn:uuid:7be89a33-537c-42e4-b7f9-cefcbef19d69",
      "resource": {
        "resourceType": "PractitionerRole",
        "id": "7be89a33-537c-42e4-b7f9-cefcbef19d69",
        "meta": {
          "profile": [
            "http://hl7.eu/fhir/base/StructureDefinition/practitionerRole-eu"
          ]
        },
        "text": {
          "status": "generated",
          "div": "<div xmlns=\"http://www.w3.org/1999/xhtml\">Laboratory Role Id: 7be89a33-537c-42e4-b7f9-cefcbef19d69</div>"
        },
        "practitioner": {
          "reference": "urn:uuid:93840e16-5257-410c-a561-83e6a495ac0f"
        }
      }
    },
    {
      "fullUrl": "urn:uuid:93840e16-5257-410c-a561-83e6a495ac0f",
      "resource": {
        "resourceType": "Practitioner",
        "id": "93840e16-5257-410c-a561-83e6a495ac0f",
        "meta": {
          "profile": [
            "http://hl7.eu/fhir/base/StructureDefinition/practitioner-eu"
          ]
        },
        "identifier": [
          {
            "assigner": {
              "display": "HL7 Europe"
            },
            "system": "urn:oid:2.16.840.1.113883.2.51.999",
            "value": "fc086f0e-5871-41ba-988d-3cb4ea2511b9"
          }
        ],
        "name": [
          {
            "prefix": [
              "dr"
            ],
            "given": [
              "Ex"
            ],
            "family": "Ample"
          }
        ],
        "address": [
          {
            "line": [
              "Laboratoire Central Européenne",
              "Boulevard du Jardin Botanique 32"
            ],
            "postalCode": "1000",
            "city": "Brussels",
            "country": "Belgium"
          }
        ],
        "text": {
          "status": "generated",
          "div": "<div xmlns=\"http://www.w3.org/1999/xhtml\">Laboratory: Laboratoire Central Européenne, 1000 Brussels, Belgium</div>"
        }
      }
    }
  ],
  "type": "document",
  "timestamp": "2022-05-03T00:11:04Z"
}
