{
  "resourceType": "Bundle",
  "id": "de76bd23-08f8-43bd-9c74-20326b65bf26",
  "meta": {
    "profile": [
      "http://hl7.eu/fhir/laboratory/StructureDefinition/Bundle-eu-lab"
    ]
  },
  "identifier": {
    "assigner": {
      "display": "HL7 Europe"
    },
    "system": "urn:oid:2.16.840.1.113883.2.51.999",
    "value": "cac9bde2-9b5d-4af3-b531-d9b85f9def35"
  },
  "entry": [
    {
      "fullUrl": "urn:uuid:15bd9e10-d31c-45f8-a00d-f1a4bca4f085",
      "resource": {
        "resourceType": "Composition",
        "id": "15bd9e10-d31c-45f8-a00d-f1a4bca4f085",
        "meta": {
          "profile": [
            "http://hl7.eu/fhir/laboratory/StructureDefinition/Composition-eu-lab"
          ]
        },
        "identifier": {
          "assigner": {
            "display": "HL7 Europe"
          },
          "system": "urn:oid:2.16.840.1.113883.2.51.999",
          "value": "f786284b-1ef3-4c54-b7c5-362aa098af27"
        },
        "author": [
          {
            "reference": "urn:uuid:f69a74ac-320d-4e4a-a8cc-4efe20f5cc4c"
          }
        ],
        "category": [
          {
            "coding": [
              {
                "code": "26436-6",
                "system": "http://loinc.org",
                "display": "Laboratory studies (set)"
              }
            ]
          }
        ],
        "type": {
          "coding": [
            {
              "code": "11502-2",
              "system": "http://loinc.org",
              "display": "Laboratory report"
            }
          ],
          "text": "Laboratory Report"
        },
        "section": [
          {
            "code": {
              "coding": [
                {
                  "code": "26436-6",
                  "system": "http://loinc.org",
                  "display": "Laboratory studies (set)"
                }
              ],
              "text": "Laboratory studies"
            },
            "section": [
              {
                "code": {
                  "coding": [
                    {
                      "code": "$18719-5",
                      "system": "http://loinc.org",
                      "display": "Chemistry studies (set)"
                    }
                  ],
                  "text": "Chemistry"
                },
                "entry": [
                  {
                    "reference": "urn:uuid:f2744256-625e-479c-bef5-2320dc813aba"
                  }
                ],
                "text": {
                  "status": "generated",
                  "div": "<div xmlns=\"http://www.w3.org/1999/xhtml\"><h3>Chemistry</h3><table class=\"hl7__eu__lab__report\"><thead><tr><th>Test</th><th>28-JAN-2025</th><th>Reference&#xA0;Range</th><th>Unit</th></tr></thead><tbody><tr><td>Oxygen saturation in Arterial blood</td><td><strong>76.0 L</strong></td><td>95 - 100</td><td>%</td></tr></tbody></table></div>"
                },
                "title": "Chemistry"
              }
            ],
            "title": "Laboratory Report"
          },
          {
            "text": {
              "status": "generated",
              "div": "<div xmlns=\"http://www.w3.org/1999/xhtml\"><h3>Annotation</h3><table class=\"hl7__eu__lab__report\"><tr><th>Conclusion and Recommendations based on this report and previous findings known to us</th></tr><tr><td>Severely reduced arterial oxygen saturation (76%) indicates significant hypoxemia, which is critical and requires immediate clinical attention. This finding suggests impaired respiratory function or gas exchange and may be life-threatening, especially in an elderly patient. Prompt evaluation and intervention are strongly recommended.</td></tr></table></div>"
            },
            "code": {
              "coding": [
                {
                  "system": "http://loinc.org",
                  "code": "48767-8",
                  "display": "Annotation comment"
                }
              ]
            },
            "title": "Annotation comment"
          }
        ],
        "status": "final",
        "subject": {
          "reference": "urn:uuid:f0018130-f182-4e28-81bb-19927f4fce02",
          "display": "Timothy Smith"
        },
        "date": "2025-01-28T16:53:59Z",
        "title": "Laboratory Report",
        "confidentiality": "N"
      }
    },
    {
      "fullUrl": "urn:uuid:60c29f16-9abd-4ab1-bd1e-ec3003a47c36",
      "resource": {
        "resourceType": "DiagnosticReport",
        "id": "60c29f16-9abd-4ab1-bd1e-ec3003a47c36",
        "meta": {
          "profile": [
            "http://hl7.eu/fhir/laboratory/StructureDefinition/DiagnosticReport-eu-lab"
          ]
        },
        "identifier": [
          {
            "assigner": {
              "display": "HL7 Europe"
            },
            "system": "urn:oid:2.16.840.1.113883.2.51.999",
            "value": "ac2b29db-afca-4841-a41c-92c30a3bc615"
          }
        ],
        "extension": [
          {
            "url": "http://hl7.org/fhir/5.0/StructureDefinition/extension-DiagnosticReport.composition",
            "valueReference": {
              "reference": "urn:uuid:f786284b-1ef3-4c54-b7c5-362aa098af27"
            }
          }
        ],
        "category": [
          {
            "coding": [
              {
                "code": "26436-6",
                "system": "http://loinc.org",
                "display": "Laboratory studies (set)"
              }
            ]
          }
        ],
        "specimen": [
          {
            "reference": "urn:uuid:b3a11651-7d1d-42fc-9758-9e9af2f4af6d"
          }
        ],
        "result": [
          {
            "reference": "urn:uuid:f2744256-625e-479c-bef5-2320dc813aba"
          }
        ],
        "status": "registered",
        "code": {
          "coding": [
            {
              "code": "11502-2",
              "system": "http://loinc.org",
              "display": "Laboratory report"
            }
          ]
        },
        "subject": {
          "reference": "urn:uuid:f0018130-f182-4e28-81bb-19927f4fce02",
          "display": "Timothy Smith"
        }
      }
    },
    {
      "fullUrl": "urn:uuid:f0018130-f182-4e28-81bb-19927f4fce02",
      "resource": {
        "resourceType": "Patient",
        "id": "f0018130-f182-4e28-81bb-19927f4fce02",
        "meta": {
          "security": [
            {
              "system": "http://terminology.hl7.org/CodeSystem/v3-ActReason",
              "code": "HTEST"
            },
            {
              "system": "http://terminology.hl7.org/CodeSystem/v3-ActReason",
              "code": "TRAIN"
            }
          ],
          "tag": [
            {
              "system": "https://synderai.net/fhir/CodeSystem/tags",
              "code": "synthetic",
              "display": "SYNDERAI Synthetic data"
            }
          ],
          "profile": [
            "http://hl7.eu/fhir/base/StructureDefinition/patient-eu-core"
          ]
        },
        "identifier": [
          {
            "type": {
              "coding": [
                {
                  "code": "PT",
                  "system": "http://terminology.hl7.org/CodeSystem/v2-0203"
                }
              ]
            },
            "system": "http://ec.europa.eu/identifier/eci",
            "value": "8029-862360-6"
          },
          {
            "type": {
              "coding": [
                {
                  "code": "MR",
                  "system": "http://terminology.hl7.org/CodeSystem/v2-0203"
                }
              ]
            },
            "system": "http://local.setting.eu/identifier",
            "value": "1fe71aa8-fb8e-4622-d398-65f6235c4fef"
          }
        ],
        "name": [
          {
            "family": "Smith"
          },
          {
            "given": [
              "Timothy"
            ]
          },
          {
            "text": "Timothy Smith"
          }
        ],
        "address": [
          {
            "line": [
              "9 Jeffrey orchard"
            ],
            "use": "home",
            "type": "physical",
            "postalCode": "NW1",
            "city": "North Joshuaville",
            "country": "United Kingdom"
          }
        ],
        "telecom": [
          {
            "system": "phone",
            "value": "+44(0)28 9018592"
          }
        ],
        "extension": [
          {
            "url": "http://hl7.org/fhir/StructureDefinition/patient-nationality",
            "valueCodeableConcept": {
              "coding": [
                {
                  "code": "GB",
                  "system": "http://hl7.org/fhir/ValueSet/country"
                }
              ]
            }
          }
        ],
        "text": {
          "status": "generated",
          "div": "<div xmlns=\"http://www.w3.org/1999/xhtml\"><table class=\"hl7__ips\"><tr><td>Timothy Smith</td><td>male</td><td>10-Sep-1941</td></tr></table></div>"
        },
        "gender": "male",
        "birthDate": "1941-09-10"
      }
    },
    {
      "fullUrl": "urn:uuid:5ba11421-fff7-4fde-8f72-8c84af5e85ac",
      "resource": {
        "resourceType": "ServiceRequest",
        "id": "5ba11421-fff7-4fde-8f72-8c84af5e85ac",
        "meta": {
          "profile": [
            "http://hl7.eu/fhir/laboratory/StructureDefinition/ServiceRequest-eu-lab"
          ]
        },
        "identifier": [
          {
            "system": "http://example.org",
            "value": "b10941ec-e7ee-445d-8532-68078bb2ed03"
          }
        ],
        "specimen": [
          {
            "reference": "urn:uuid:b3a11651-7d1d-42fc-9758-9e9af2f4af6d"
          }
        ],
        "reasonCode": [
          {
            "coding": [
              {
                "code": "88805009",
                "system": "http://snomed.info/sct",
                "display": "Chronic congestive heart failure"
              }
            ]
          },
          {
            "coding": [
              {
                "code": "60573004",
                "system": "http://snomed.info/sct",
                "display": "Aortic valve stenosis"
              }
            ]
          },
          {
            "coding": [
              {
                "code": "414545008",
                "system": "http://snomed.info/sct",
                "display": "Ischemic heart disease"
              }
            ]
          },
          {
            "coding": [
              {
                "code": "64859006",
                "system": "http://snomed.info/sct",
                "display": "Osteoporosis"
              }
            ]
          },
          {
            "coding": [
              {
                "code": "6525002",
                "system": "http://snomed.info/sct",
                "display": "Dependent drug abuse"
              }
            ]
          },
          {
            "coding": [
              {
                "code": "55822004",
                "system": "http://snomed.info/sct",
                "display": "Hyperlipidemia"
              }
            ]
          },
          {
            "coding": [
              {
                "code": "78275009",
                "system": "http://snomed.info/sct",
                "display": "Obstructive sleep apnea syndrome"
              }
            ]
          },
          {
            "coding": [
              {
                "code": "39898005",
                "system": "http://snomed.info/sct",
                "display": "Sleep disorder"
              }
            ]
          },
          {
            "coding": [
              {
                "code": "401314000",
                "system": "http://snomed.info/sct",
                "display": "Acute non-ST segment elevation myocardial infarction"
              }
            ]
          },
          {
            "coding": [
              {
                "code": "124171000119105",
                "system": "http://snomed.info/sct",
                "display": "Chronic intractable migraine without aura"
              }
            ]
          },
          {
            "coding": [
              {
                "code": "196416002",
                "system": "http://snomed.info/sct",
                "display": "Impacted molars"
              }
            ]
          },
          {
            "coding": [
              {
                "code": "59621000",
                "system": "http://snomed.info/sct",
                "display": "Essential hypertension"
              }
            ]
          },
          {
            "coding": [
              {
                "code": "80394007",
                "system": "http://snomed.info/sct",
                "display": "Hyperglycemia"
              }
            ]
          },
          {
            "coding": [
              {
                "code": "237602007",
                "system": "http://snomed.info/sct",
                "display": "Metabolic syndrome X"
              }
            ]
          },
          {
            "coding": [
              {
                "code": "302870006",
                "system": "http://snomed.info/sct",
                "display": "Hypertriglyceridemia"
              }
            ]
          },
          {
            "coding": [
              {
                "code": "44054006",
                "system": "http://snomed.info/sct",
                "display": "Type 2 diabetes mellitus"
              }
            ]
          },
          {
            "coding": [
              {
                "code": "271737000",
                "system": "http://snomed.info/sct",
                "display": "Anemia"
              }
            ]
          },
          {
            "coding": [
              {
                "code": "15777000",
                "system": "http://snomed.info/sct",
                "display": "Prediabetes"
              }
            ]
          }
        ],
        "status": "active",
        "intent": "order",
        "code": {
          "coding": [
            {
              "code": "108252007",
              "system": "http://snomed.info/sct",
              "display": "Laboratory procedure"
            }
          ]
        },
        "subject": {
          "reference": "urn:uuid:f0018130-f182-4e28-81bb-19927f4fce02",
          "display": "Timothy Smith"
        },
        "requester": {
          "reference": "urn:uuid:0ea9e98a-d5ea-4310-bb48-e6d354d72844"
        }
      }
    },
    {
      "fullUrl": "urn:uuid:0ea9e98a-d5ea-4310-bb48-e6d354d72844",
      "resource": {
        "resourceType": "PractitionerRole",
        "id": "0ea9e98a-d5ea-4310-bb48-e6d354d72844",
        "meta": {
          "profile": [
            "http://hl7.eu/fhir/base/StructureDefinition/practitionerRole-eu"
          ]
        },
        "text": {
          "status": "generated",
          "div": "<div xmlns=\"http://www.w3.org/1999/xhtml\">Provider Role Id: 0ea9e98a-d5ea-4310-bb48-e6d354d72844</div>"
        },
        "organization": {
          "reference": "urn:uuid:efea2c0a-1b90-4ed8-b699-36b99b8a804d"
        }
      }
    },
    {
      "fullUrl": "urn:uuid:efea2c0a-1b90-4ed8-b699-36b99b8a804d",
      "resource": {
        "resourceType": "Organization",
        "id": "efea2c0a-1b90-4ed8-b699-36b99b8a804d",
        "meta": {
          "profile": [
            "http://hl7.eu/fhir/base/StructureDefinition/organization-eu"
          ]
        },
        "identifier": [
          {
            "assigner": {
              "display": "HL7 Europe"
            },
            "system": "urn:oid:2.16.840.1.113883.2.51.999",
            "value": "37d62899-2aa4-4e21-87eb-aa8d3b2c13c9"
          }
        ],
        "address": [
          {
            "city": "London",
            "postalCode": "SE1 7",
            "country": "United Kingdom"
          }
        ],
        "text": {
          "status": "generated",
          "div": "<div xmlns=\"http://www.w3.org/1999/xhtml\">Provider Organization: Evelina Children&#039;s Hospital</div>"
        },
        "name": "Evelina Children&#039;s Hospital"
      }
    },
    {
      "fullUrl": "urn:uuid:b3a11651-7d1d-42fc-9758-9e9af2f4af6d",
      "resource": {
        "resourceType": "Specimen",
        "id": "b3a11651-7d1d-42fc-9758-9e9af2f4af6d",
        "meta": {
          "profile": [
            "http://hl7.eu/fhir/laboratory/StructureDefinition/Specimen-eu-lab"
          ]
        },
        "collection": {
          "collectedDateTime": "2025-01-28"
        },
        "text": {
          "status": "generated",
          "div": "<div xmlns=\"http://www.w3.org/1999/xhtml\"><table class=\"hl7__eu__lab__report\"><tr><th>Specimen</th><th>Collection Date</th></tr><tr><td>Arterial blood specimen</td><td><span class=\"nb\">28-Jan-2025</span></td></tr></table></div>"
        },
        "type": {
          "coding": [
            {
              "code": "122552005",
              "system": "http://snomed.info/sct",
              "display": "Arterial blood specimen"
            }
          ]
        }
      }
    },
    {
      "fullUrl": "urn:uuid:f2744256-625e-479c-bef5-2320dc813aba",
      "resource": {
        "resourceType": "Observation",
        "id": "f2744256-625e-479c-bef5-2320dc813aba",
        "meta": {
          "profile": [
            "http://hl7.eu/fhir/laboratory/StructureDefinition/Observation-resultslab-eu-lab"
          ]
        },
        "performer": [
          {
            "display": "The Central European Lab"
          }
        ],
        "category": [
          {
            "coding": [
              {
                "system": "http://terminology.hl7.org/CodeSystem/observation-category",
                "code": "laboratory"
              }
            ]
          }
        ],
        "code": {
          "coding": [
            {
              "code": "2708-6",
              "system": "http://loinc.org",
              "display": "Oxygen saturation in Arterial blood"
            }
          ],
          "text": "Oxygen saturation in Arterial blood"
        },
        "valueQuantity": {
          "system": "http://unitsofmeasure.org",
          "value": 76,
          "unit": "%",
          "code": "%"
        },
        "referenceRange": [
          {
            "low": {
              "value": 95,
              "code": "%",
              "system": "http://unitsofmeasure.org"
            }
          },
          {
            "high": {
              "value": 100,
              "code": "%",
              "system": "http://unitsofmeasure.org"
            }
          }
        ],
        "interpretation": [
          {
            "coding": [
              {
                "code": "L",
                "system": "http://terminology.hl7.org/CodeSystem/v3-ObservationInterpretation",
                "display": "Low"
              }
            ]
          }
        ],
        "text": {
          "status": "generated",
          "div": "<div xmlns=\"http://www.w3.org/1999/xhtml\"><table class=\"hl7__eu__lab__report\"><tr><th>Test</th><th>28-Jan-2025</th><th>Reference&#xA0;Range</th><th>Unit</th></tr><tr><td>Oxygen saturation in Arterial blood</td><td>76.0</td><td>95 - 100</td><td>L</td><td>%</td></tr></table></div>"
        },
        "status": "final",
        "subject": {
          "reference": "urn:uuid:f0018130-f182-4e28-81bb-19927f4fce02",
          "display": "Timothy Smith"
        },
        "effectiveDateTime": "2025-01-28T15:53:59Z",
        "specimen": {
          "reference": "urn:uuid:b3a11651-7d1d-42fc-9758-9e9af2f4af6d"
        }
      }
    },
    {
      "fullUrl": "urn:uuid:867c63f7-39f0-465c-bfc5-f362b2038219",
      "resource": {
        "resourceType": "Device",
        "id": "867c63f7-39f0-465c-bfc5-f362b2038219",
        "deviceName": [
          {
            "name": "SYNDERAI Synthetic Generator",
            "type": "manufacturer-name"
          }
        ],
        "version": [
          {
            "value": "5.0"
          }
        ],
        "text": {
          "status": "generated",
          "div": "<div xmlns=\"http://www.w3.org/1999/xhtml\">SYNDERAI Synthetic Generator v5.0</div>"
        },
        "status": "active\"",
        "distinctIdentifier": "synderai-generator-50",
        "manufacturer": "SYNDERAI Project"
      }
    },
    {
      "fullUrl": "urn:uuid:0bdb4005-070d-4e4b-b64d-be50476a3597",
      "resource": {
        "resourceType": "Provenance",
        "id": "0bdb4005-070d-4e4b-b64d-be50476a3597",
        "target": [
          {
            "reference": "Patient/f0018130-f182-4e28-81bb-19927f4fce02"
          },
          {
            "reference": "Bundle/de76bd23-08f8-43bd-9c74-20326b65bf26"
          },
          {
            "reference": "Composition/15bd9e10-d31c-45f8-a00d-f1a4bca4f085"
          },
          {
            "reference": "PractitionerRole/f69a74ac-320d-4e4a-a8cc-4efe20f5cc4c"
          },
          {
            "reference": "Practitioner/18c52735-9ed3-4ea2-9b1d-4fc7f1b0d924"
          },
          {
            "reference": "PractitionerRole/0ea9e98a-d5ea-4310-bb48-e6d354d72844"
          },
          {
            "reference": "Organization/efea2c0a-1b90-4ed8-b699-36b99b8a804d"
          }
        ],
        "activity": {
          "text": "Synthetic Example Data Generation"
        },
        "policy": [
          "https://synderai.net/synderai-synthetic-data-policy"
        ],
        "agent": [
          {
            "type": {
              "text": "author"
            },
            "who": {
              "reference": "Device/867c63f7-39f0-465c-bfc5-f362b2038219"
            }
          }
        ],
        "reason": [
          {
            "text": "Interoperability Testing and Training (non-clinical use)"
          }
        ],
        "text": {
          "status": "generated",
          "div": "<div xmlns=\"http://www.w3.org/1999/xhtml\">Provenance for SYNDERAI Synthetic Example Data Resource</div>"
        },
        "recorded": "2025-01-28T16:53:59Z"
      }
    },
    {
      "fullUrl": "urn:uuid:f69a74ac-320d-4e4a-a8cc-4efe20f5cc4c",
      "resource": {
        "resourceType": "PractitionerRole",
        "id": "f69a74ac-320d-4e4a-a8cc-4efe20f5cc4c",
        "meta": {
          "profile": [
            "http://hl7.eu/fhir/base/StructureDefinition/practitionerRole-eu"
          ]
        },
        "text": {
          "status": "generated",
          "div": "<div xmlns=\"http://www.w3.org/1999/xhtml\">Laboratory Role Id: f69a74ac-320d-4e4a-a8cc-4efe20f5cc4c</div>"
        },
        "practitioner": {
          "reference": "urn:uuid:18c52735-9ed3-4ea2-9b1d-4fc7f1b0d924"
        }
      }
    },
    {
      "fullUrl": "urn:uuid:18c52735-9ed3-4ea2-9b1d-4fc7f1b0d924",
      "resource": {
        "resourceType": "Practitioner",
        "id": "18c52735-9ed3-4ea2-9b1d-4fc7f1b0d924",
        "meta": {
          "profile": [
            "http://hl7.eu/fhir/base/StructureDefinition/practitioner-eu"
          ]
        },
        "identifier": [
          {
            "assigner": {
              "display": "HL7 Europe"
            },
            "system": "urn:oid:2.16.840.1.113883.2.51.999",
            "value": "9be120c2-0cad-4c1a-9615-a20295d81fe8"
          }
        ],
        "name": [
          {
            "prefix": [
              "dr"
            ],
            "given": [
              "Ex"
            ],
            "family": "Ample"
          }
        ],
        "address": [
          {
            "line": [
              "Laboratoire Central Européenne",
              "Boulevard du Jardin Botanique 32"
            ],
            "postalCode": "1000",
            "city": "Brussels",
            "country": "Belgium"
          }
        ],
        "text": {
          "status": "generated",
          "div": "<div xmlns=\"http://www.w3.org/1999/xhtml\">Laboratory: Laboratoire Central Européenne, 1000 Brussels, Belgium</div>"
        }
      }
    }
  ],
  "type": "document",
  "timestamp": "2025-01-28T16:53:59Z"
}
