{
  "resourceType": "Bundle",
  "id": "2e12f50b-ad4d-48ba-b747-49bf75e43b8c",
  "meta": {
    "profile": [
      "http://hl7.eu/fhir/laboratory/StructureDefinition/Bundle-eu-lab"
    ]
  },
  "identifier": {
    "assigner": {
      "display": "HL7 Europe"
    },
    "system": "urn:oid:2.16.840.1.113883.2.51.999",
    "value": "17e5e2a3-43fa-41ed-a825-6f9a9f9caa50"
  },
  "entry": [
    {
      "fullUrl": "urn:uuid:7abcdd11-0746-4571-9c6e-c04d1d37e053",
      "resource": {
        "resourceType": "Composition",
        "id": "7abcdd11-0746-4571-9c6e-c04d1d37e053",
        "meta": {
          "profile": [
            "http://hl7.eu/fhir/laboratory/StructureDefinition/Composition-eu-lab"
          ]
        },
        "identifier": {
          "assigner": {
            "display": "HL7 Europe"
          },
          "system": "urn:oid:2.16.840.1.113883.2.51.999",
          "value": "fef45a66-760f-4d02-bb78-74c996568fda"
        },
        "author": [
          {
            "reference": "urn:uuid:47ffa8e1-f0c2-4afa-9509-86b6469e12c6"
          }
        ],
        "category": [
          {
            "coding": [
              {
                "code": "26436-6",
                "system": "http://loinc.org",
                "display": "Laboratory studies (set)"
              }
            ]
          }
        ],
        "type": {
          "coding": [
            {
              "code": "11502-2",
              "system": "http://loinc.org",
              "display": "Laboratory report"
            }
          ],
          "text": "Laboratory Report"
        },
        "section": [
          {
            "code": {
              "coding": [
                {
                  "code": "26436-6",
                  "system": "http://loinc.org",
                  "display": "Laboratory studies (set)"
                }
              ],
              "text": "Laboratory studies"
            },
            "section": [
              {
                "code": {
                  "coding": [
                    {
                      "code": "$18719-5",
                      "system": "http://loinc.org",
                      "display": "Chemistry studies (set)"
                    }
                  ],
                  "text": "Chemistry"
                },
                "entry": [
                  {
                    "reference": "urn:uuid:4c097968-cdcb-4685-8a7f-c4cb458cb2f8"
                  },
                  {
                    "reference": "urn:uuid:c48ab145-717d-44bf-8445-11fce2089789"
                  },
                  {
                    "reference": "urn:uuid:84821d7d-fef3-4a6a-b309-2e31318fa263"
                  },
                  {
                    "reference": "urn:uuid:23c0a9db-7c10-4031-9915-810e9a783b84"
                  },
                  {
                    "reference": "urn:uuid:c6649667-fcfc-4f6f-9ffa-a2e57b0a3316"
                  },
                  {
                    "reference": "urn:uuid:69dc4b41-11e8-4f90-98db-d2c91d520d0a"
                  },
                  {
                    "reference": "urn:uuid:f4293aba-b9e8-4c01-a8d0-7db40efe5439"
                  },
                  {
                    "reference": "urn:uuid:2bd25f80-49eb-4675-aa8c-70d923f8a821"
                  },
                  {
                    "reference": "urn:uuid:0a5e25ee-3647-40d4-b9e7-d99f8638e99d"
                  }
                ],
                "text": {
                  "status": "generated",
                  "div": "<div xmlns=\"http://www.w3.org/1999/xhtml\"><h3>Chemistry</h3><table class=\"hl7__eu__lab__report\"><thead><tr><th>Test</th><th>20-APR-2025</th><th>Reference&#xA0;Range</th><th>Unit</th></tr></thead><tbody><tr><td>Hemoglobin A1c/Hemoglobin.total in Blood</td><td>5.9</td><td>4 - 6</td><td>%</td></tr><tr><td>Glucose [Mass/volume] in Blood</td><td><strong>64.8 L</strong></td><td>70 - 99</td><td>mg/dL</td></tr><tr><td>Urea nitrogen [Mass/volume] in Blood</td><td>10.3</td><td>7 - 20</td><td>mg/dL</td></tr><tr><td>Creatinine [Mass/volume] in Blood</td><td><strong>1.4 H</strong></td><td>0.6 - 1.3</td><td>mg/dL</td></tr><tr><td>Calcium [Mass/volume] in Blood</td><td>9.5</td><td>8.5 - 10.5</td><td>mg/dL</td></tr><tr><td>Sodium [Moles/volume] in Blood</td><td>137.8</td><td>135 - 145</td><td>mmol/L</td></tr><tr><td>Potassium [Moles/volume] in Blood</td><td>4.4</td><td>3.5 - 5.2</td><td>mmol/L</td></tr><tr><td>Chloride [Moles/volume] in Blood</td><td>108.2</td><td>98 - 114</td><td>mmol/L</td></tr><tr><td>Carbon dioxide, total [Moles/volume] in Blood</td><td>25.7</td><td>24 - 29</td><td>mmol/L</td></tr></tbody></table></div>"
                },
                "title": "Chemistry"
              }
            ],
            "title": "Laboratory Report"
          },
          {
            "text": {
              "status": "generated",
              "div": "<div xmlns=\"http://www.w3.org/1999/xhtml\"><h3>Annotation</h3><table class=\"hl7__eu__lab__report\"><tr><th>Conclusion and Recommendations based on this report and previous findings known to us</th></tr><tr><td>The patient shows mildly elevated creatinine, suggesting possible reduced kidney function, and a low fasting glucose, which may indicate hypoglycemia or recent fasting. HbA1c is at the upper end of normal, reflecting good long-term glycemic control. Other parameters are within normal limits. Clinical correlation and follow-up of renal function and glucose levels are recommended.</td></tr></table></div>"
            },
            "code": {
              "coding": [
                {
                  "system": "http://loinc.org",
                  "code": "48767-8",
                  "display": "Annotation comment"
                }
              ]
            },
            "title": "Annotation comment"
          }
        ],
        "status": "final",
        "subject": {
          "reference": "urn:uuid:a8325593-e7bc-43ba-95b4-ea38bc43d57d",
          "display": "Benedetto Lombroso"
        },
        "date": "2025-04-20T09:22:02Z",
        "title": "Laboratory Report",
        "confidentiality": "N"
      }
    },
    {
      "fullUrl": "urn:uuid:6adad5a5-57a1-4b7b-aa9e-b0187f3b5c01",
      "resource": {
        "resourceType": "DiagnosticReport",
        "id": "6adad5a5-57a1-4b7b-aa9e-b0187f3b5c01",
        "meta": {
          "profile": [
            "http://hl7.eu/fhir/laboratory/StructureDefinition/DiagnosticReport-eu-lab"
          ]
        },
        "identifier": [
          {
            "assigner": {
              "display": "HL7 Europe"
            },
            "system": "urn:oid:2.16.840.1.113883.2.51.999",
            "value": "4ee9e2db-953c-4d55-b5ec-b569fbfe660d"
          }
        ],
        "extension": [
          {
            "url": "http://hl7.org/fhir/5.0/StructureDefinition/extension-DiagnosticReport.composition",
            "valueReference": {
              "reference": "urn:uuid:fef45a66-760f-4d02-bb78-74c996568fda"
            }
          }
        ],
        "category": [
          {
            "coding": [
              {
                "code": "26436-6",
                "system": "http://loinc.org",
                "display": "Laboratory studies (set)"
              }
            ]
          }
        ],
        "specimen": [
          {
            "reference": "urn:uuid:83951900-bca3-4b68-90c4-7f36cb5e94d0"
          }
        ],
        "result": [
          {
            "reference": "urn:uuid:4c097968-cdcb-4685-8a7f-c4cb458cb2f8"
          },
          {
            "reference": "urn:uuid:c48ab145-717d-44bf-8445-11fce2089789"
          },
          {
            "reference": "urn:uuid:84821d7d-fef3-4a6a-b309-2e31318fa263"
          },
          {
            "reference": "urn:uuid:23c0a9db-7c10-4031-9915-810e9a783b84"
          },
          {
            "reference": "urn:uuid:c6649667-fcfc-4f6f-9ffa-a2e57b0a3316"
          },
          {
            "reference": "urn:uuid:69dc4b41-11e8-4f90-98db-d2c91d520d0a"
          },
          {
            "reference": "urn:uuid:f4293aba-b9e8-4c01-a8d0-7db40efe5439"
          },
          {
            "reference": "urn:uuid:2bd25f80-49eb-4675-aa8c-70d923f8a821"
          },
          {
            "reference": "urn:uuid:0a5e25ee-3647-40d4-b9e7-d99f8638e99d"
          }
        ],
        "status": "registered",
        "code": {
          "coding": [
            {
              "code": "11502-2",
              "system": "http://loinc.org",
              "display": "Laboratory report"
            }
          ]
        },
        "subject": {
          "reference": "urn:uuid:a8325593-e7bc-43ba-95b4-ea38bc43d57d",
          "display": "Benedetto Lombroso"
        }
      }
    },
    {
      "fullUrl": "urn:uuid:a8325593-e7bc-43ba-95b4-ea38bc43d57d",
      "resource": {
        "resourceType": "Patient",
        "id": "a8325593-e7bc-43ba-95b4-ea38bc43d57d",
        "meta": {
          "security": [
            {
              "system": "http://terminology.hl7.org/CodeSystem/v3-ActReason",
              "code": "HTEST"
            },
            {
              "system": "http://terminology.hl7.org/CodeSystem/v3-ActReason",
              "code": "TRAIN"
            }
          ],
          "tag": [
            {
              "system": "https://synderai.net/fhir/CodeSystem/tags",
              "code": "synthetic",
              "display": "SYNDERAI Synthetic data"
            }
          ],
          "profile": [
            "http://hl7.eu/fhir/base/StructureDefinition/patient-eu-core"
          ]
        },
        "identifier": [
          {
            "type": {
              "coding": [
                {
                  "code": "PT",
                  "system": "http://terminology.hl7.org/CodeSystem/v2-0203"
                }
              ]
            },
            "system": "http://ec.europa.eu/identifier/eci",
            "value": "9244-804304-9"
          },
          {
            "type": {
              "coding": [
                {
                  "code": "MR",
                  "system": "http://terminology.hl7.org/CodeSystem/v2-0203"
                }
              ]
            },
            "system": "http://local.setting.eu/identifier",
            "value": "320c36e6-403e-bb27-4756-8ebdd21bc0e5"
          }
        ],
        "name": [
          {
            "family": "Lombroso"
          },
          {
            "given": [
              "Benedetto"
            ]
          },
          {
            "text": "Benedetto Lombroso"
          }
        ],
        "address": [
          {
            "line": [
              "Stretto Zaccagnini, 924"
            ],
            "use": "home",
            "type": "physical",
            "postalCode": "37121",
            "city": "Verona",
            "country": "Italy"
          }
        ],
        "telecom": [
          {
            "system": "phone",
            "value": "+39 016691228"
          }
        ],
        "extension": [
          {
            "url": "http://hl7.org/fhir/StructureDefinition/patient-nationality",
            "valueCodeableConcept": {
              "coding": [
                {
                  "code": "IT",
                  "system": "http://hl7.org/fhir/ValueSet/country"
                }
              ]
            }
          }
        ],
        "text": {
          "status": "generated",
          "div": "<div xmlns=\"http://www.w3.org/1999/xhtml\"><table class=\"hl7__ips\"><tr><td>Benedetto Lombroso</td><td>male</td><td>07-May-1989</td></tr></table></div>"
        },
        "gender": "male",
        "birthDate": "1989-05-07"
      }
    },
    {
      "fullUrl": "urn:uuid:32a8ba96-0478-4610-a5a8-08ca228835eb",
      "resource": {
        "resourceType": "ServiceRequest",
        "id": "32a8ba96-0478-4610-a5a8-08ca228835eb",
        "meta": {
          "profile": [
            "http://hl7.eu/fhir/laboratory/StructureDefinition/ServiceRequest-eu-lab"
          ]
        },
        "identifier": [
          {
            "system": "http://example.org",
            "value": "0cfb548c-20da-4343-9b0b-4426d4ee73d8"
          }
        ],
        "specimen": [
          {
            "reference": "urn:uuid:83951900-bca3-4b68-90c4-7f36cb5e94d0"
          }
        ],
        "reasonCode": [
          {
            "coding": [
              {
                "code": "15777000",
                "system": "http://snomed.info/sct",
                "display": "Prediabetes"
              }
            ]
          },
          {
            "coding": [
              {
                "code": "271737000",
                "system": "http://snomed.info/sct",
                "display": "Anemia"
              }
            ]
          }
        ],
        "status": "active",
        "intent": "order",
        "code": {
          "coding": [
            {
              "code": "108252007",
              "system": "http://snomed.info/sct",
              "display": "Laboratory procedure"
            }
          ]
        },
        "subject": {
          "reference": "urn:uuid:a8325593-e7bc-43ba-95b4-ea38bc43d57d",
          "display": "Benedetto Lombroso"
        },
        "requester": {
          "reference": "urn:uuid:59bf43d1-5bde-4d55-abc8-0906f05da8a2"
        }
      }
    },
    {
      "fullUrl": "urn:uuid:59bf43d1-5bde-4d55-abc8-0906f05da8a2",
      "resource": {
        "resourceType": "PractitionerRole",
        "id": "59bf43d1-5bde-4d55-abc8-0906f05da8a2",
        "meta": {
          "profile": [
            "http://hl7.eu/fhir/base/StructureDefinition/practitionerRole-eu"
          ]
        },
        "text": {
          "status": "generated",
          "div": "<div xmlns=\"http://www.w3.org/1999/xhtml\">Provider Role Id: 59bf43d1-5bde-4d55-abc8-0906f05da8a2</div>"
        },
        "organization": {
          "reference": "urn:uuid:7c16cf7e-be85-4dc9-ae1a-299a09ce9c5f"
        }
      }
    },
    {
      "fullUrl": "urn:uuid:7c16cf7e-be85-4dc9-ae1a-299a09ce9c5f",
      "resource": {
        "resourceType": "Organization",
        "id": "7c16cf7e-be85-4dc9-ae1a-299a09ce9c5f",
        "meta": {
          "profile": [
            "http://hl7.eu/fhir/base/StructureDefinition/organization-eu"
          ]
        },
        "identifier": [
          {
            "assigner": {
              "display": "HL7 Europe"
            },
            "system": "urn:oid:2.16.840.1.113883.2.51.999",
            "value": "3829648b-50e3-4fe1-b154-bb03e4cb6c25"
          }
        ],
        "address": [
          {
            "line": [
              "Piazzale Aristide Stefani 1"
            ],
            "city": "Verona",
            "postalCode": "37124",
            "country": "Italy"
          }
        ],
        "text": {
          "status": "generated",
          "div": "<div xmlns=\"http://www.w3.org/1999/xhtml\">Provider Organization: Ospedale Civile Maggiore</div>"
        },
        "name": "Ospedale Civile Maggiore"
      }
    },
    {
      "fullUrl": "urn:uuid:83951900-bca3-4b68-90c4-7f36cb5e94d0",
      "resource": {
        "resourceType": "Specimen",
        "id": "83951900-bca3-4b68-90c4-7f36cb5e94d0",
        "meta": {
          "profile": [
            "http://hl7.eu/fhir/laboratory/StructureDefinition/Specimen-eu-lab"
          ]
        },
        "collection": {
          "collectedDateTime": "2025-04-20"
        },
        "text": {
          "status": "generated",
          "div": "<div xmlns=\"http://www.w3.org/1999/xhtml\"><table class=\"hl7__eu__lab__report\"><tr><th>Specimen</th><th>Collection Date</th></tr><tr><td>Whole blood specimen (specimen)</td><td><span class=\"nb\">20-Apr-2025</span></td></tr></table></div>"
        },
        "type": {
          "coding": [
            {
              "code": "258580003",
              "system": "http://snomed.info/sct",
              "display": "Whole blood specimen (specimen)"
            }
          ]
        }
      }
    },
    {
      "fullUrl": "urn:uuid:4c097968-cdcb-4685-8a7f-c4cb458cb2f8",
      "resource": {
        "resourceType": "Observation",
        "id": "4c097968-cdcb-4685-8a7f-c4cb458cb2f8",
        "meta": {
          "profile": [
            "http://hl7.eu/fhir/laboratory/StructureDefinition/Observation-resultslab-eu-lab"
          ]
        },
        "performer": [
          {
            "display": "The Central European Lab"
          }
        ],
        "category": [
          {
            "coding": [
              {
                "system": "http://terminology.hl7.org/CodeSystem/observation-category",
                "code": "laboratory"
              }
            ]
          }
        ],
        "code": {
          "coding": [
            {
              "code": "4548-4",
              "system": "http://loinc.org",
              "display": "Hemoglobin A1c/Hemoglobin.total in Blood"
            }
          ],
          "text": "Hemoglobin A1c/Hemoglobin.total in Blood"
        },
        "valueQuantity": {
          "system": "http://unitsofmeasure.org",
          "value": 5.9,
          "unit": "%",
          "code": "%"
        },
        "referenceRange": [
          {
            "low": {
              "value": 4,
              "code": "%",
              "system": "http://unitsofmeasure.org"
            }
          },
          {
            "high": {
              "value": 6,
              "code": "%",
              "system": "http://unitsofmeasure.org"
            }
          }
        ],
        "text": {
          "status": "generated",
          "div": "<div xmlns=\"http://www.w3.org/1999/xhtml\"><table class=\"hl7__eu__lab__report\"><tr><th>Test</th><th>20-Apr-2025</th><th>Reference&#xA0;Range</th><th>Unit</th></tr><tr><td>Hemoglobin A1c/Hemoglobin.total in Blood</td><td>5.9</td><td>4 - 6</td><td></td><td>%</td></tr></table></div>"
        },
        "status": "final",
        "subject": {
          "reference": "urn:uuid:a8325593-e7bc-43ba-95b4-ea38bc43d57d",
          "display": "Benedetto Lombroso"
        },
        "effectiveDateTime": "2025-04-20T07:22:02Z",
        "specimen": {
          "reference": "urn:uuid:83951900-bca3-4b68-90c4-7f36cb5e94d0"
        }
      }
    },
    {
      "fullUrl": "urn:uuid:c48ab145-717d-44bf-8445-11fce2089789",
      "resource": {
        "resourceType": "Observation",
        "id": "c48ab145-717d-44bf-8445-11fce2089789",
        "meta": {
          "profile": [
            "http://hl7.eu/fhir/laboratory/StructureDefinition/Observation-resultslab-eu-lab"
          ]
        },
        "performer": [
          {
            "display": "The Central European Lab"
          }
        ],
        "category": [
          {
            "coding": [
              {
                "system": "http://terminology.hl7.org/CodeSystem/observation-category",
                "code": "laboratory"
              }
            ]
          }
        ],
        "code": {
          "coding": [
            {
              "code": "2339-0",
              "system": "http://loinc.org",
              "display": "Glucose [Mass/volume] in Blood"
            }
          ],
          "text": "Glucose [Mass/volume] in Blood"
        },
        "valueQuantity": {
          "system": "http://unitsofmeasure.org",
          "value": 64.8,
          "unit": "mg/dL",
          "code": "mg/dL"
        },
        "referenceRange": [
          {
            "low": {
              "value": 70,
              "code": "mg/dL",
              "system": "http://unitsofmeasure.org"
            }
          },
          {
            "high": {
              "value": 99,
              "code": "mg/dL",
              "system": "http://unitsofmeasure.org"
            }
          }
        ],
        "interpretation": [
          {
            "coding": [
              {
                "code": "L",
                "system": "http://terminology.hl7.org/CodeSystem/v3-ObservationInterpretation",
                "display": "Low"
              }
            ]
          }
        ],
        "text": {
          "status": "generated",
          "div": "<div xmlns=\"http://www.w3.org/1999/xhtml\"><table class=\"hl7__eu__lab__report\"><tr><th>Test</th><th>20-Apr-2025</th><th>Reference&#xA0;Range</th><th>Unit</th></tr><tr><td>Glucose [Mass/volume] in Blood</td><td>64.8</td><td>70 - 99</td><td>L</td><td>mg/dL</td></tr></table></div>"
        },
        "status": "final",
        "subject": {
          "reference": "urn:uuid:a8325593-e7bc-43ba-95b4-ea38bc43d57d",
          "display": "Benedetto Lombroso"
        },
        "effectiveDateTime": "2025-04-20T07:22:02Z",
        "specimen": {
          "reference": "urn:uuid:83951900-bca3-4b68-90c4-7f36cb5e94d0"
        }
      }
    },
    {
      "fullUrl": "urn:uuid:84821d7d-fef3-4a6a-b309-2e31318fa263",
      "resource": {
        "resourceType": "Observation",
        "id": "84821d7d-fef3-4a6a-b309-2e31318fa263",
        "meta": {
          "profile": [
            "http://hl7.eu/fhir/laboratory/StructureDefinition/Observation-resultslab-eu-lab"
          ]
        },
        "performer": [
          {
            "display": "The Central European Lab"
          }
        ],
        "category": [
          {
            "coding": [
              {
                "system": "http://terminology.hl7.org/CodeSystem/observation-category",
                "code": "laboratory"
              }
            ]
          }
        ],
        "code": {
          "coding": [
            {
              "code": "6299-2",
              "system": "http://loinc.org",
              "display": "Urea nitrogen [Mass/volume] in Blood"
            }
          ],
          "text": "Urea nitrogen [Mass/volume] in Blood"
        },
        "valueQuantity": {
          "system": "http://unitsofmeasure.org",
          "value": 10.3,
          "unit": "mg/dL",
          "code": "mg/dL"
        },
        "referenceRange": [
          {
            "low": {
              "value": 7,
              "code": "mg/dL",
              "system": "http://unitsofmeasure.org"
            }
          },
          {
            "high": {
              "value": 20,
              "code": "mg/dL",
              "system": "http://unitsofmeasure.org"
            }
          }
        ],
        "text": {
          "status": "generated",
          "div": "<div xmlns=\"http://www.w3.org/1999/xhtml\"><table class=\"hl7__eu__lab__report\"><tr><th>Test</th><th>20-Apr-2025</th><th>Reference&#xA0;Range</th><th>Unit</th></tr><tr><td>Urea nitrogen [Mass/volume] in Blood</td><td>10.3</td><td>7 - 20</td><td></td><td>mg/dL</td></tr></table></div>"
        },
        "status": "final",
        "subject": {
          "reference": "urn:uuid:a8325593-e7bc-43ba-95b4-ea38bc43d57d",
          "display": "Benedetto Lombroso"
        },
        "effectiveDateTime": "2025-04-20T07:22:02Z",
        "specimen": {
          "reference": "urn:uuid:83951900-bca3-4b68-90c4-7f36cb5e94d0"
        }
      }
    },
    {
      "fullUrl": "urn:uuid:23c0a9db-7c10-4031-9915-810e9a783b84",
      "resource": {
        "resourceType": "Observation",
        "id": "23c0a9db-7c10-4031-9915-810e9a783b84",
        "meta": {
          "profile": [
            "http://hl7.eu/fhir/laboratory/StructureDefinition/Observation-resultslab-eu-lab"
          ]
        },
        "performer": [
          {
            "display": "The Central European Lab"
          }
        ],
        "category": [
          {
            "coding": [
              {
                "system": "http://terminology.hl7.org/CodeSystem/observation-category",
                "code": "laboratory"
              }
            ]
          }
        ],
        "code": {
          "coding": [
            {
              "code": "38483-4",
              "system": "http://loinc.org",
              "display": "Creatinine [Mass/volume] in Blood"
            }
          ],
          "text": "Creatinine [Mass/volume] in Blood"
        },
        "valueQuantity": {
          "system": "http://unitsofmeasure.org",
          "value": 1.4,
          "unit": "mg/dL",
          "code": "mg/dL"
        },
        "referenceRange": [
          {
            "low": {
              "value": 0.6,
              "code": "mg/dL",
              "system": "http://unitsofmeasure.org"
            }
          },
          {
            "high": {
              "value": 1.3,
              "code": "mg/dL",
              "system": "http://unitsofmeasure.org"
            }
          }
        ],
        "interpretation": [
          {
            "coding": [
              {
                "code": "H",
                "system": "http://terminology.hl7.org/CodeSystem/v3-ObservationInterpretation",
                "display": "High"
              }
            ]
          }
        ],
        "text": {
          "status": "generated",
          "div": "<div xmlns=\"http://www.w3.org/1999/xhtml\"><table class=\"hl7__eu__lab__report\"><tr><th>Test</th><th>20-Apr-2025</th><th>Reference&#xA0;Range</th><th>Unit</th></tr><tr><td>Creatinine [Mass/volume] in Blood</td><td>1.4</td><td>0.6 - 1.3</td><td>H</td><td>mg/dL</td></tr></table></div>"
        },
        "status": "final",
        "subject": {
          "reference": "urn:uuid:a8325593-e7bc-43ba-95b4-ea38bc43d57d",
          "display": "Benedetto Lombroso"
        },
        "effectiveDateTime": "2025-04-20T07:22:02Z",
        "specimen": {
          "reference": "urn:uuid:83951900-bca3-4b68-90c4-7f36cb5e94d0"
        }
      }
    },
    {
      "fullUrl": "urn:uuid:c6649667-fcfc-4f6f-9ffa-a2e57b0a3316",
      "resource": {
        "resourceType": "Observation",
        "id": "c6649667-fcfc-4f6f-9ffa-a2e57b0a3316",
        "meta": {
          "profile": [
            "http://hl7.eu/fhir/laboratory/StructureDefinition/Observation-resultslab-eu-lab"
          ]
        },
        "performer": [
          {
            "display": "The Central European Lab"
          }
        ],
        "category": [
          {
            "coding": [
              {
                "system": "http://terminology.hl7.org/CodeSystem/observation-category",
                "code": "laboratory"
              }
            ]
          }
        ],
        "code": {
          "coding": [
            {
              "code": "49765-1",
              "system": "http://loinc.org",
              "display": "Calcium [Mass/volume] in Blood"
            }
          ],
          "text": "Calcium [Mass/volume] in Blood"
        },
        "valueQuantity": {
          "system": "http://unitsofmeasure.org",
          "value": 9.5,
          "unit": "mg/dL",
          "code": "mg/dL"
        },
        "referenceRange": [
          {
            "low": {
              "value": 8.5,
              "code": "mg/dL",
              "system": "http://unitsofmeasure.org"
            }
          },
          {
            "high": {
              "value": 10.5,
              "code": "mg/dL",
              "system": "http://unitsofmeasure.org"
            }
          }
        ],
        "text": {
          "status": "generated",
          "div": "<div xmlns=\"http://www.w3.org/1999/xhtml\"><table class=\"hl7__eu__lab__report\"><tr><th>Test</th><th>20-Apr-2025</th><th>Reference&#xA0;Range</th><th>Unit</th></tr><tr><td>Calcium [Mass/volume] in Blood</td><td>9.5</td><td>8.5 - 10.5</td><td></td><td>mg/dL</td></tr></table></div>"
        },
        "status": "final",
        "subject": {
          "reference": "urn:uuid:a8325593-e7bc-43ba-95b4-ea38bc43d57d",
          "display": "Benedetto Lombroso"
        },
        "effectiveDateTime": "2025-04-20T07:22:02Z",
        "specimen": {
          "reference": "urn:uuid:83951900-bca3-4b68-90c4-7f36cb5e94d0"
        }
      }
    },
    {
      "fullUrl": "urn:uuid:69dc4b41-11e8-4f90-98db-d2c91d520d0a",
      "resource": {
        "resourceType": "Observation",
        "id": "69dc4b41-11e8-4f90-98db-d2c91d520d0a",
        "meta": {
          "profile": [
            "http://hl7.eu/fhir/laboratory/StructureDefinition/Observation-resultslab-eu-lab"
          ]
        },
        "performer": [
          {
            "display": "The Central European Lab"
          }
        ],
        "category": [
          {
            "coding": [
              {
                "system": "http://terminology.hl7.org/CodeSystem/observation-category",
                "code": "laboratory"
              }
            ]
          }
        ],
        "code": {
          "coding": [
            {
              "code": "2947-0",
              "system": "http://loinc.org",
              "display": "Sodium [Moles/volume] in Blood"
            }
          ],
          "text": "Sodium [Moles/volume] in Blood"
        },
        "valueQuantity": {
          "system": "http://unitsofmeasure.org",
          "value": 137.8,
          "unit": "mmol/L",
          "code": "mmol/L"
        },
        "referenceRange": [
          {
            "low": {
              "value": 135,
              "code": "mmol/L",
              "system": "http://unitsofmeasure.org"
            }
          },
          {
            "high": {
              "value": 145,
              "code": "mmol/L",
              "system": "http://unitsofmeasure.org"
            }
          }
        ],
        "text": {
          "status": "generated",
          "div": "<div xmlns=\"http://www.w3.org/1999/xhtml\"><table class=\"hl7__eu__lab__report\"><tr><th>Test</th><th>20-Apr-2025</th><th>Reference&#xA0;Range</th><th>Unit</th></tr><tr><td>Sodium [Moles/volume] in Blood</td><td>137.8</td><td>135 - 145</td><td></td><td>mmol/L</td></tr></table></div>"
        },
        "status": "final",
        "subject": {
          "reference": "urn:uuid:a8325593-e7bc-43ba-95b4-ea38bc43d57d",
          "display": "Benedetto Lombroso"
        },
        "effectiveDateTime": "2025-04-20T07:22:02Z",
        "specimen": {
          "reference": "urn:uuid:83951900-bca3-4b68-90c4-7f36cb5e94d0"
        }
      }
    },
    {
      "fullUrl": "urn:uuid:f4293aba-b9e8-4c01-a8d0-7db40efe5439",
      "resource": {
        "resourceType": "Observation",
        "id": "f4293aba-b9e8-4c01-a8d0-7db40efe5439",
        "meta": {
          "profile": [
            "http://hl7.eu/fhir/laboratory/StructureDefinition/Observation-resultslab-eu-lab"
          ]
        },
        "performer": [
          {
            "display": "The Central European Lab"
          }
        ],
        "category": [
          {
            "coding": [
              {
                "system": "http://terminology.hl7.org/CodeSystem/observation-category",
                "code": "laboratory"
              }
            ]
          }
        ],
        "code": {
          "coding": [
            {
              "code": "6298-4",
              "system": "http://loinc.org",
              "display": "Potassium [Moles/volume] in Blood"
            }
          ],
          "text": "Potassium [Moles/volume] in Blood"
        },
        "valueQuantity": {
          "system": "http://unitsofmeasure.org",
          "value": 4.4,
          "unit": "mmol/L",
          "code": "mmol/L"
        },
        "referenceRange": [
          {
            "low": {
              "value": 3.5,
              "code": "mmol/L",
              "system": "http://unitsofmeasure.org"
            }
          },
          {
            "high": {
              "value": 5.2,
              "code": "mmol/L",
              "system": "http://unitsofmeasure.org"
            }
          }
        ],
        "text": {
          "status": "generated",
          "div": "<div xmlns=\"http://www.w3.org/1999/xhtml\"><table class=\"hl7__eu__lab__report\"><tr><th>Test</th><th>20-Apr-2025</th><th>Reference&#xA0;Range</th><th>Unit</th></tr><tr><td>Potassium [Moles/volume] in Blood</td><td>4.4</td><td>3.5 - 5.2</td><td></td><td>mmol/L</td></tr></table></div>"
        },
        "status": "final",
        "subject": {
          "reference": "urn:uuid:a8325593-e7bc-43ba-95b4-ea38bc43d57d",
          "display": "Benedetto Lombroso"
        },
        "effectiveDateTime": "2025-04-20T07:22:02Z",
        "specimen": {
          "reference": "urn:uuid:83951900-bca3-4b68-90c4-7f36cb5e94d0"
        }
      }
    },
    {
      "fullUrl": "urn:uuid:2bd25f80-49eb-4675-aa8c-70d923f8a821",
      "resource": {
        "resourceType": "Observation",
        "id": "2bd25f80-49eb-4675-aa8c-70d923f8a821",
        "meta": {
          "profile": [
            "http://hl7.eu/fhir/laboratory/StructureDefinition/Observation-resultslab-eu-lab"
          ]
        },
        "performer": [
          {
            "display": "The Central European Lab"
          }
        ],
        "category": [
          {
            "coding": [
              {
                "system": "http://terminology.hl7.org/CodeSystem/observation-category",
                "code": "laboratory"
              }
            ]
          }
        ],
        "code": {
          "coding": [
            {
              "code": "2069-3",
              "system": "http://loinc.org",
              "display": "Chloride [Moles/volume] in Blood"
            }
          ],
          "text": "Chloride [Moles/volume] in Blood"
        },
        "valueQuantity": {
          "system": "http://unitsofmeasure.org",
          "value": 108.2,
          "unit": "mmol/L",
          "code": "mmol/L"
        },
        "referenceRange": [
          {
            "low": {
              "value": 98,
              "code": "mmol/L",
              "system": "http://unitsofmeasure.org"
            }
          },
          {
            "high": {
              "value": 114,
              "code": "mmol/L",
              "system": "http://unitsofmeasure.org"
            }
          }
        ],
        "text": {
          "status": "generated",
          "div": "<div xmlns=\"http://www.w3.org/1999/xhtml\"><table class=\"hl7__eu__lab__report\"><tr><th>Test</th><th>20-Apr-2025</th><th>Reference&#xA0;Range</th><th>Unit</th></tr><tr><td>Chloride [Moles/volume] in Blood</td><td>108.2</td><td>98 - 114</td><td></td><td>mmol/L</td></tr></table></div>"
        },
        "status": "final",
        "subject": {
          "reference": "urn:uuid:a8325593-e7bc-43ba-95b4-ea38bc43d57d",
          "display": "Benedetto Lombroso"
        },
        "effectiveDateTime": "2025-04-20T07:22:02Z",
        "specimen": {
          "reference": "urn:uuid:83951900-bca3-4b68-90c4-7f36cb5e94d0"
        }
      }
    },
    {
      "fullUrl": "urn:uuid:0a5e25ee-3647-40d4-b9e7-d99f8638e99d",
      "resource": {
        "resourceType": "Observation",
        "id": "0a5e25ee-3647-40d4-b9e7-d99f8638e99d",
        "meta": {
          "profile": [
            "http://hl7.eu/fhir/laboratory/StructureDefinition/Observation-resultslab-eu-lab"
          ]
        },
        "performer": [
          {
            "display": "The Central European Lab"
          }
        ],
        "category": [
          {
            "coding": [
              {
                "system": "http://terminology.hl7.org/CodeSystem/observation-category",
                "code": "laboratory"
              }
            ]
          }
        ],
        "code": {
          "coding": [
            {
              "code": "20565-8",
              "system": "http://loinc.org",
              "display": "Carbon dioxide, total [Moles/volume] in Blood"
            }
          ],
          "text": "Carbon dioxide, total [Moles/volume] in Blood"
        },
        "valueQuantity": {
          "system": "http://unitsofmeasure.org",
          "value": 25.7,
          "unit": "mmol/L",
          "code": "mmol/L"
        },
        "referenceRange": [
          {
            "low": {
              "value": 24,
              "code": "mmol/L",
              "system": "http://unitsofmeasure.org"
            }
          },
          {
            "high": {
              "value": 29,
              "code": "mmol/L",
              "system": "http://unitsofmeasure.org"
            }
          }
        ],
        "text": {
          "status": "generated",
          "div": "<div xmlns=\"http://www.w3.org/1999/xhtml\"><table class=\"hl7__eu__lab__report\"><tr><th>Test</th><th>20-Apr-2025</th><th>Reference&#xA0;Range</th><th>Unit</th></tr><tr><td>Carbon dioxide, total [Moles/volume] in Blood</td><td>25.7</td><td>24 - 29</td><td></td><td>mmol/L</td></tr></table></div>"
        },
        "status": "final",
        "subject": {
          "reference": "urn:uuid:a8325593-e7bc-43ba-95b4-ea38bc43d57d",
          "display": "Benedetto Lombroso"
        },
        "effectiveDateTime": "2025-04-20T07:22:02Z",
        "specimen": {
          "reference": "urn:uuid:83951900-bca3-4b68-90c4-7f36cb5e94d0"
        }
      }
    },
    {
      "fullUrl": "urn:uuid:fc8beb7d-9050-42d1-a0d3-769356b47764",
      "resource": {
        "resourceType": "Device",
        "id": "fc8beb7d-9050-42d1-a0d3-769356b47764",
        "deviceName": [
          {
            "name": "SYNDERAI Synthetic Generator",
            "type": "manufacturer-name"
          }
        ],
        "version": [
          {
            "value": "5.0"
          }
        ],
        "text": {
          "status": "generated",
          "div": "<div xmlns=\"http://www.w3.org/1999/xhtml\">SYNDERAI Synthetic Generator v5.0</div>"
        },
        "status": "active\"",
        "distinctIdentifier": "synderai-generator-50",
        "manufacturer": "SYNDERAI Project"
      }
    },
    {
      "fullUrl": "urn:uuid:c88c11d1-59ca-44f7-a6e5-2dace65c1419",
      "resource": {
        "resourceType": "Provenance",
        "id": "c88c11d1-59ca-44f7-a6e5-2dace65c1419",
        "target": [
          {
            "reference": "Patient/a8325593-e7bc-43ba-95b4-ea38bc43d57d"
          },
          {
            "reference": "Bundle/2e12f50b-ad4d-48ba-b747-49bf75e43b8c"
          },
          {
            "reference": "Composition/7abcdd11-0746-4571-9c6e-c04d1d37e053"
          },
          {
            "reference": "PractitionerRole/47ffa8e1-f0c2-4afa-9509-86b6469e12c6"
          },
          {
            "reference": "Practitioner/a3e25055-7e86-481b-b04d-1cfc0dc36a7d"
          },
          {
            "reference": "PractitionerRole/59bf43d1-5bde-4d55-abc8-0906f05da8a2"
          },
          {
            "reference": "Organization/7c16cf7e-be85-4dc9-ae1a-299a09ce9c5f"
          }
        ],
        "activity": {
          "text": "Synthetic Example Data Generation"
        },
        "policy": [
          "https://synderai.net/synderai-synthetic-data-policy"
        ],
        "agent": [
          {
            "type": {
              "text": "author"
            },
            "who": {
              "reference": "Device/fc8beb7d-9050-42d1-a0d3-769356b47764"
            }
          }
        ],
        "reason": [
          {
            "text": "Interoperability Testing and Training (non-clinical use)"
          }
        ],
        "text": {
          "status": "generated",
          "div": "<div xmlns=\"http://www.w3.org/1999/xhtml\">Provenance for SYNDERAI Synthetic Example Data Resource</div>"
        },
        "recorded": "2025-04-20T09:22:02Z"
      }
    },
    {
      "fullUrl": "urn:uuid:47ffa8e1-f0c2-4afa-9509-86b6469e12c6",
      "resource": {
        "resourceType": "PractitionerRole",
        "id": "47ffa8e1-f0c2-4afa-9509-86b6469e12c6",
        "meta": {
          "profile": [
            "http://hl7.eu/fhir/base/StructureDefinition/practitionerRole-eu"
          ]
        },
        "text": {
          "status": "generated",
          "div": "<div xmlns=\"http://www.w3.org/1999/xhtml\">Laboratory Role Id: 47ffa8e1-f0c2-4afa-9509-86b6469e12c6</div>"
        },
        "practitioner": {
          "reference": "urn:uuid:a3e25055-7e86-481b-b04d-1cfc0dc36a7d"
        }
      }
    },
    {
      "fullUrl": "urn:uuid:a3e25055-7e86-481b-b04d-1cfc0dc36a7d",
      "resource": {
        "resourceType": "Practitioner",
        "id": "a3e25055-7e86-481b-b04d-1cfc0dc36a7d",
        "meta": {
          "profile": [
            "http://hl7.eu/fhir/base/StructureDefinition/practitioner-eu"
          ]
        },
        "identifier": [
          {
            "assigner": {
              "display": "HL7 Europe"
            },
            "system": "urn:oid:2.16.840.1.113883.2.51.999",
            "value": "952debf9-9de9-485d-a1d5-d8b3265152e7"
          }
        ],
        "name": [
          {
            "prefix": [
              "dr"
            ],
            "given": [
              "Ex"
            ],
            "family": "Ample"
          }
        ],
        "address": [
          {
            "line": [
              "Laboratoire Central Européenne",
              "Boulevard du Jardin Botanique 32"
            ],
            "postalCode": "1000",
            "city": "Brussels",
            "country": "Belgium"
          }
        ],
        "text": {
          "status": "generated",
          "div": "<div xmlns=\"http://www.w3.org/1999/xhtml\">Laboratory: Laboratoire Central Européenne, 1000 Brussels, Belgium</div>"
        }
      }
    }
  ],
  "type": "document",
  "timestamp": "2025-04-20T09:22:02Z"
}
