{
  "resourceType": "Bundle",
  "id": "c67d208e-6450-4f1c-8016-3a5cdf583adf",
  "meta": {
    "profile": [
      "http://hl7.eu/fhir/laboratory/StructureDefinition/Bundle-eu-lab"
    ]
  },
  "identifier": {
    "assigner": {
      "display": "HL7 Europe"
    },
    "system": "urn:oid:2.16.840.1.113883.2.51.999",
    "value": "1fa97713-4825-4c1d-96c5-6bf14f2da32e"
  },
  "entry": [
    {
      "fullUrl": "urn:uuid:bfe07a80-5fa5-495f-bebe-835d13cb604b",
      "resource": {
        "resourceType": "Composition",
        "id": "bfe07a80-5fa5-495f-bebe-835d13cb604b",
        "meta": {
          "profile": [
            "http://hl7.eu/fhir/laboratory/StructureDefinition/Composition-eu-lab"
          ]
        },
        "identifier": {
          "assigner": {
            "display": "HL7 Europe"
          },
          "system": "urn:oid:2.16.840.1.113883.2.51.999",
          "value": "cca32264-d681-428b-80eb-490e795d1829"
        },
        "author": [
          {
            "reference": "urn:uuid:62485c91-cf22-400e-9a3c-ce465a62b85d"
          }
        ],
        "category": [
          {
            "coding": [
              {
                "code": "26436-6",
                "system": "http://loinc.org",
                "display": "Laboratory studies (set)"
              }
            ]
          }
        ],
        "type": {
          "coding": [
            {
              "code": "11502-2",
              "system": "http://loinc.org",
              "display": "Laboratory report"
            }
          ],
          "text": "Laboratory Report"
        },
        "section": [
          {
            "code": {
              "coding": [
                {
                  "code": "26436-6",
                  "system": "http://loinc.org",
                  "display": "Laboratory studies (set)"
                }
              ],
              "text": "Laboratory studies"
            },
            "section": [
              {
                "code": {
                  "coding": [
                    {
                      "code": "$18723-7",
                      "system": "http://loinc.org",
                      "display": "Hematology studies (set)"
                    }
                  ],
                  "text": "Hematology"
                },
                "entry": [
                  {
                    "reference": "urn:uuid:b1440043-9725-4676-b05f-84967b7d3143"
                  },
                  {
                    "reference": "urn:uuid:63a9a613-2bc8-4ba2-9cb5-96496a689948"
                  },
                  {
                    "reference": "urn:uuid:ecca0f9d-baf1-4f67-806f-2e35b32007e1"
                  },
                  {
                    "reference": "urn:uuid:b4eb2ef1-dd91-4919-88ec-45d8ef9f8660"
                  },
                  {
                    "reference": "urn:uuid:da289e15-13a0-4b19-aa7f-c3c0a2391370"
                  },
                  {
                    "reference": "urn:uuid:431a15fc-2927-4632-bd65-1a1965fb4343"
                  },
                  {
                    "reference": "urn:uuid:28bb2827-a678-4551-81e5-36014b31d7ff"
                  },
                  {
                    "reference": "urn:uuid:09c0c65c-ad7f-47d0-8913-c9d8fe683445"
                  },
                  {
                    "reference": "urn:uuid:f333a146-3d0c-4b71-9760-9a86c4afce2e"
                  },
                  {
                    "reference": "urn:uuid:1b71b18c-d5f3-4c4d-9c27-17fbfb152f57"
                  },
                  {
                    "reference": "urn:uuid:8d1bb04b-2e10-4eba-8bfb-617f87e637fe"
                  }
                ],
                "text": {
                  "status": "generated",
                  "div": "<div xmlns=\"http://www.w3.org/1999/xhtml\"><h3>Hematology</h3><table class=\"hl7__eu__lab__report\"><thead><tr><th>Test</th><th>24-MAY-2016</th><th>Reference&#xA0;Range</th><th>Unit</th></tr></thead><tbody><tr><td>Leukocytes [#/volume] in Blood by Automated count</td><td>7.3</td><td>3.4 - 10.6</td><td>10*3/uL</td></tr><tr><td>Erythrocytes [#/volume] in Blood by Automated count</td><td>5.0</td><td>4.2 - 5.2</td><td>10*6/uL</td></tr><tr><td>Hemoglobin [Mass/volume] in Blood</td><td><strong>17.3 H</strong></td><td>12 - 16</td><td>g/dL</td></tr><tr><td>Hematocrit [Volume Fraction] of Blood by Automated count</td><td>39.0</td><td>36 - 48</td><td>%</td></tr><tr><td>MCV [Entitic volume] by Automated count</td><td>86.8</td><td>82 - 98</td><td>fL</td></tr><tr><td>MCH [Entitic mass] by Automated count</td><td>32.3</td><td>27 - 33</td><td>pg</td></tr><tr><td>MCHC [Mass/volume] by Automated count</td><td>35.1</td><td>32 - 37</td><td>g/dL</td></tr><tr><td>Erythrocyte distribution width [Entitic volume] by Automated count</td><td>43.0</td><td>36 - 46</td><td>fL</td></tr><tr><td>Platelets [#/volume] in Blood by Automated count</td><td>165.6</td><td>150 - 450</td><td>10*3/uL</td></tr><tr><td>Platelet distribution width [Entitic volume] in Blood by Automated count</td><td><strong>353.1 H</strong></td><td>11.6 - 17.4</td><td>fL</td></tr><tr><td>Platelet mean volume [Entitic volume] in Blood by Automated count</td><td>9.7</td><td>7.4 - 12</td><td>fL</td></tr></tbody></table></div>"
                },
                "title": "Hematology"
              },
              {
                "code": {
                  "coding": [
                    {
                      "code": "$18719-5",
                      "system": "http://loinc.org",
                      "display": "Chemistry studies (set)"
                    }
                  ],
                  "text": "Chemistry"
                },
                "entry": [
                  {
                    "reference": "urn:uuid:42fba1eb-93c7-452a-ae4c-7ce53a265975"
                  },
                  {
                    "reference": "urn:uuid:75037681-7f19-4af5-b4de-a68ad18028c9"
                  },
                  {
                    "reference": "urn:uuid:1442469e-10fd-4e1f-bb43-73e791b9bd91"
                  },
                  {
                    "reference": "urn:uuid:fe923dda-59c9-46e8-8331-6c03f9e3f70c"
                  },
                  {
                    "reference": "urn:uuid:1cad9a25-503d-4d34-9737-a2a13a011f3e"
                  },
                  {
                    "reference": "urn:uuid:24e9ad05-de30-46e5-bd93-7a75c703b920"
                  },
                  {
                    "reference": "urn:uuid:a401552b-d5fb-4746-8c7a-3105f131e7fb"
                  },
                  {
                    "reference": "urn:uuid:9f79412e-4f24-4c16-9fa2-23a2a5878fd9"
                  },
                  {
                    "reference": "urn:uuid:20f710ec-6a08-4dbb-9555-4eb5f6b7ae7a"
                  }
                ],
                "text": {
                  "status": "generated",
                  "div": "<div xmlns=\"http://www.w3.org/1999/xhtml\"><h3>Chemistry</h3><table class=\"hl7__eu__lab__report\"><thead><tr><th>Test</th><th>24-MAY-2016</th><th>Reference&#xA0;Range</th><th>Unit</th></tr></thead><tbody><tr><td>Glucose [Mass/volume] in Blood</td><td>76.8</td><td>70 - 140</td><td>mg/dL</td></tr><tr><td>Urea nitrogen [Mass/volume] in Blood</td><td>8.8</td><td>7 - 25</td><td>mg/dL</td></tr><tr><td>Creatinine [Mass/volume] in Blood</td><td>1.1</td><td>0.6 - 1.1</td><td>mg/dL</td></tr><tr><td>Calcium [Mass/volume] in Blood</td><td>8.6</td><td>8.6 - 10.4</td><td>mg/dL</td></tr><tr><td>Sodium [Moles/volume] in Blood</td><td>141.2</td><td>135 - 145</td><td>mmol/L</td></tr><tr><td>Potassium [Moles/volume] in Blood</td><td>4.0</td><td>3.5 - 5.1</td><td>mmol/L</td></tr><tr><td>Chloride [Moles/volume] in Blood</td><td>107.0</td><td>98 - 110</td><td>mmol/L</td></tr><tr><td>Carbon dioxide, total [Moles/volume] in Blood</td><td>22.6</td><td>22 - 29</td><td>mmol/L</td></tr><tr><td>Ketones [Presence] in Urine by Test strip</td><td>0.0</td><td>0 - 0</td><td>{presence}</td></tr></tbody></table></div>"
                },
                "title": "Chemistry"
              },
              {
                "code": {
                  "coding": [
                    {
                      "code": "$18729-4",
                      "system": "http://loinc.org",
                      "display": "Urinalysis studies (set)"
                    }
                  ],
                  "text": "Urinalysis"
                },
                "entry": [
                  {
                    "reference": "urn:uuid:7bafafb7-e079-4687-bb58-1e56f3b5036f"
                  },
                  {
                    "reference": "urn:uuid:73676d28-813f-4327-89f9-a7c31eb4316c"
                  },
                  {
                    "reference": "urn:uuid:9033e221-e6ec-4ad7-b138-69b19932f75e"
                  },
                  {
                    "reference": "urn:uuid:b65a9cbe-2dbc-41b3-85f3-7ea7ab0a830e"
                  },
                  {
                    "reference": "urn:uuid:68809f5a-04cc-489f-88b9-5cab591fd2be"
                  },
                  {
                    "reference": "urn:uuid:ed50d8ca-692d-4fe1-b977-cccd51d85dd9"
                  },
                  {
                    "reference": "urn:uuid:36394112-0412-4c28-a422-55d7635b8d05"
                  },
                  {
                    "reference": "urn:uuid:2e454f7f-2571-420b-a765-ddd5b24dad6d"
                  }
                ],
                "text": {
                  "status": "generated",
                  "div": "<div xmlns=\"http://www.w3.org/1999/xhtml\"><h3>Urinalysis</h3><table class=\"hl7__eu__lab__report\"><thead><tr><th>Test</th><th>24-MAY-2016</th><th>Reference&#xA0;Range</th><th>Unit</th></tr></thead><tbody><tr><td>Glucose [Presence] in Urine by Test strip</td><td>0.0</td><td>0 - 0.8</td><td>{presence}</td></tr><tr><td>Bilirubin.total [Presence] in Urine by Test strip</td><td>0.0</td><td>0 - 0</td><td>{presence}</td></tr><tr><td>Specific gravity of Urine by Test strip</td><td><strong>1.0 L</strong></td><td>1.005 - 1.03</td><td>{SG}</td></tr><tr><td>pH of Urine by Test strip</td><td>6.0</td><td>4.5 - 8</td><td>[pH]</td></tr><tr><td>Protein [Presence] in Urine by Test strip</td><td>0.0</td><td>0 - 0</td><td>{presence}</td></tr><tr><td>Nitrite [Presence] in Urine by Test strip</td><td>0.0</td><td>0 - 0</td><td>{presence}</td></tr><tr><td>Hemoglobin [Presence] in Urine by Test strip</td><td>0.0</td><td>0 - 0</td><td>{presence}</td></tr><tr><td>Leukocyte esterase [Presence] in Urine by Test strip</td><td>0.0</td><td>0 - 0</td><td>{presence}</td></tr></tbody></table></div>"
                },
                "title": "Urinalysis"
              }
            ],
            "title": "Laboratory Report"
          },
          {
            "text": {
              "status": "generated",
              "div": "<div xmlns=\"http://www.w3.org/1999/xhtml\"><h3>Annotation</h3><table class=\"hl7__eu__lab__report\"><tr><th>Conclusion and Recommendations based on this report and previous findings known to us</th></tr><tr><td>Most parameters are within normal limits. Notable findings include mildly elevated hemoglobin and markedly increased platelet distribution width, which may suggest underlying hematological changes; clinical correlation is advised. Urine specific gravity is slightly low, possibly indicating dilute urine or overhydration. No evidence of infection or renal dysfunction is seen. Recommend clinical correlation and follow-up if symptoms persist.</td></tr></table></div>"
            },
            "code": {
              "coding": [
                {
                  "system": "http://loinc.org",
                  "code": "48767-8",
                  "display": "Annotation comment"
                }
              ]
            },
            "title": "Annotation comment"
          }
        ],
        "status": "final",
        "subject": {
          "reference": "urn:uuid:83b0c05c-5d03-4fa3-a6cf-733de449d47b",
          "display": "Iva Kratochvílová"
        },
        "date": "2016-05-24T00:55:53Z",
        "title": "Laboratory Report",
        "confidentiality": "N"
      }
    },
    {
      "fullUrl": "urn:uuid:22e6cb85-3dbe-4a58-936d-d2bb2067e5ec",
      "resource": {
        "resourceType": "DiagnosticReport",
        "id": "22e6cb85-3dbe-4a58-936d-d2bb2067e5ec",
        "meta": {
          "profile": [
            "http://hl7.eu/fhir/laboratory/StructureDefinition/DiagnosticReport-eu-lab"
          ]
        },
        "identifier": [
          {
            "assigner": {
              "display": "HL7 Europe"
            },
            "system": "urn:oid:2.16.840.1.113883.2.51.999",
            "value": "85a4e227-7dcf-4bfb-ace7-48e87c4aa4d7"
          }
        ],
        "extension": [
          {
            "url": "http://hl7.org/fhir/5.0/StructureDefinition/extension-DiagnosticReport.composition",
            "valueReference": {
              "reference": "urn:uuid:cca32264-d681-428b-80eb-490e795d1829"
            }
          }
        ],
        "category": [
          {
            "coding": [
              {
                "code": "26436-6",
                "system": "http://loinc.org",
                "display": "Laboratory studies (set)"
              }
            ]
          }
        ],
        "specimen": [
          {
            "reference": "urn:uuid:d2940db5-2d6a-4ac5-8ee1-6623ac151496"
          },
          {
            "reference": "urn:uuid:d2940db5-2d6a-4ac5-8ee1-6623ac151496"
          },
          {
            "reference": "urn:uuid:accaaf07-a71e-491b-858a-530f36cdf973"
          }
        ],
        "result": [
          {
            "reference": "urn:uuid:42fba1eb-93c7-452a-ae4c-7ce53a265975"
          },
          {
            "reference": "urn:uuid:75037681-7f19-4af5-b4de-a68ad18028c9"
          },
          {
            "reference": "urn:uuid:1442469e-10fd-4e1f-bb43-73e791b9bd91"
          },
          {
            "reference": "urn:uuid:fe923dda-59c9-46e8-8331-6c03f9e3f70c"
          },
          {
            "reference": "urn:uuid:1cad9a25-503d-4d34-9737-a2a13a011f3e"
          },
          {
            "reference": "urn:uuid:24e9ad05-de30-46e5-bd93-7a75c703b920"
          },
          {
            "reference": "urn:uuid:a401552b-d5fb-4746-8c7a-3105f131e7fb"
          },
          {
            "reference": "urn:uuid:9f79412e-4f24-4c16-9fa2-23a2a5878fd9"
          },
          {
            "reference": "urn:uuid:b1440043-9725-4676-b05f-84967b7d3143"
          },
          {
            "reference": "urn:uuid:63a9a613-2bc8-4ba2-9cb5-96496a689948"
          },
          {
            "reference": "urn:uuid:ecca0f9d-baf1-4f67-806f-2e35b32007e1"
          },
          {
            "reference": "urn:uuid:b4eb2ef1-dd91-4919-88ec-45d8ef9f8660"
          },
          {
            "reference": "urn:uuid:da289e15-13a0-4b19-aa7f-c3c0a2391370"
          },
          {
            "reference": "urn:uuid:431a15fc-2927-4632-bd65-1a1965fb4343"
          },
          {
            "reference": "urn:uuid:28bb2827-a678-4551-81e5-36014b31d7ff"
          },
          {
            "reference": "urn:uuid:09c0c65c-ad7f-47d0-8913-c9d8fe683445"
          },
          {
            "reference": "urn:uuid:f333a146-3d0c-4b71-9760-9a86c4afce2e"
          },
          {
            "reference": "urn:uuid:1b71b18c-d5f3-4c4d-9c27-17fbfb152f57"
          },
          {
            "reference": "urn:uuid:8d1bb04b-2e10-4eba-8bfb-617f87e637fe"
          },
          {
            "reference": "urn:uuid:7bafafb7-e079-4687-bb58-1e56f3b5036f"
          },
          {
            "reference": "urn:uuid:73676d28-813f-4327-89f9-a7c31eb4316c"
          },
          {
            "reference": "urn:uuid:20f710ec-6a08-4dbb-9555-4eb5f6b7ae7a"
          },
          {
            "reference": "urn:uuid:9033e221-e6ec-4ad7-b138-69b19932f75e"
          },
          {
            "reference": "urn:uuid:b65a9cbe-2dbc-41b3-85f3-7ea7ab0a830e"
          },
          {
            "reference": "urn:uuid:68809f5a-04cc-489f-88b9-5cab591fd2be"
          },
          {
            "reference": "urn:uuid:ed50d8ca-692d-4fe1-b977-cccd51d85dd9"
          },
          {
            "reference": "urn:uuid:36394112-0412-4c28-a422-55d7635b8d05"
          },
          {
            "reference": "urn:uuid:2e454f7f-2571-420b-a765-ddd5b24dad6d"
          }
        ],
        "status": "registered",
        "code": {
          "coding": [
            {
              "code": "11502-2",
              "system": "http://loinc.org",
              "display": "Laboratory report"
            }
          ]
        },
        "subject": {
          "reference": "urn:uuid:83b0c05c-5d03-4fa3-a6cf-733de449d47b",
          "display": "Iva Kratochvílová"
        }
      }
    },
    {
      "fullUrl": "urn:uuid:83b0c05c-5d03-4fa3-a6cf-733de449d47b",
      "resource": {
        "resourceType": "Patient",
        "id": "83b0c05c-5d03-4fa3-a6cf-733de449d47b",
        "meta": {
          "security": [
            {
              "system": "http://terminology.hl7.org/CodeSystem/v3-ActReason",
              "code": "HTEST"
            },
            {
              "system": "http://terminology.hl7.org/CodeSystem/v3-ActReason",
              "code": "TRAIN"
            }
          ],
          "tag": [
            {
              "system": "https://synderai.net/fhir/CodeSystem/tags",
              "code": "synthetic",
              "display": "SYNDERAI Synthetic data"
            }
          ],
          "profile": [
            "http://hl7.eu/fhir/base/StructureDefinition/patient-eu-core"
          ]
        },
        "identifier": [
          {
            "type": {
              "coding": [
                {
                  "code": "PT",
                  "system": "http://terminology.hl7.org/CodeSystem/v2-0203"
                }
              ]
            },
            "system": "http://ec.europa.eu/identifier/eci",
            "value": "4380-389488-0"
          },
          {
            "type": {
              "coding": [
                {
                  "code": "MR",
                  "system": "http://terminology.hl7.org/CodeSystem/v2-0203"
                }
              ]
            },
            "system": "http://local.setting.eu/identifier",
            "value": "f8f9ebdc-03dd-2fc0-819c-affa4ffd7f67"
          }
        ],
        "name": [
          {
            "family": "Kratochvílová"
          },
          {
            "given": [
              "Iva"
            ]
          },
          {
            "text": "Iva Kratochvílová"
          }
        ],
        "address": [
          {
            "line": [
              "Žofie Podlipské 4"
            ],
            "use": "home",
            "type": "physical",
            "postalCode": "27324",
            "city": "Postoloprty",
            "country": "Czechia"
          }
        ],
        "telecom": [
          {
            "system": "phone",
            "value": "00420 607 985 072"
          }
        ],
        "extension": [
          {
            "url": "http://hl7.org/fhir/StructureDefinition/patient-nationality",
            "valueCodeableConcept": {
              "coding": [
                {
                  "code": "CZ",
                  "system": "http://hl7.org/fhir/ValueSet/country"
                }
              ]
            }
          }
        ],
        "text": {
          "status": "generated",
          "div": "<div xmlns=\"http://www.w3.org/1999/xhtml\"><table class=\"hl7__ips\"><tr><td>Iva Kratochvílová</td><td>female</td><td>17-Sep-1964</td></tr></table></div>"
        },
        "gender": "female",
        "birthDate": "1964-09-17"
      }
    },
    {
      "fullUrl": "urn:uuid:94e15b50-456c-48f4-af46-8bb7192c5195",
      "resource": {
        "resourceType": "ServiceRequest",
        "id": "94e15b50-456c-48f4-af46-8bb7192c5195",
        "meta": {
          "profile": [
            "http://hl7.eu/fhir/laboratory/StructureDefinition/ServiceRequest-eu-lab"
          ]
        },
        "identifier": [
          {
            "system": "http://example.org",
            "value": "9e6fb411-53b8-4f3d-bfd8-01ac33ba52f9"
          }
        ],
        "specimen": [
          {
            "reference": "urn:uuid:d2940db5-2d6a-4ac5-8ee1-6623ac151496"
          },
          {
            "reference": "urn:uuid:accaaf07-a71e-491b-858a-530f36cdf973"
          }
        ],
        "reasonCode": [
          {
            "coding": [
              {
                "code": "431856006",
                "system": "http://snomed.info/sct",
                "display": "Chronic kidney disease stage 2"
              }
            ]
          },
          {
            "coding": [
              {
                "code": "431855005",
                "system": "http://snomed.info/sct",
                "display": "Chronic kidney disease stage 1"
              }
            ]
          },
          {
            "coding": [
              {
                "code": "237602007",
                "system": "http://snomed.info/sct",
                "display": "Metabolic syndrome X"
              }
            ]
          },
          {
            "coding": [
              {
                "code": "91302008",
                "system": "http://snomed.info/sct",
                "display": "Sepsis"
              }
            ]
          },
          {
            "coding": [
              {
                "code": "271737000",
                "system": "http://snomed.info/sct",
                "display": "Anemia"
              }
            ]
          },
          {
            "coding": [
              {
                "code": "15777000",
                "system": "http://snomed.info/sct",
                "display": "Prediabetes"
              }
            ]
          },
          {
            "coding": [
              {
                "code": "157141000119108",
                "system": "http://snomed.info/sct",
                "display": "Proteinuria due to type 2 diabetes mellitus"
              }
            ]
          },
          {
            "coding": [
              {
                "code": "90781000119102",
                "system": "http://snomed.info/sct",
                "display": "Microalbuminuria due to type 2 diabetes mellitus"
              }
            ]
          },
          {
            "coding": [
              {
                "code": "239872002",
                "system": "http://snomed.info/sct",
                "display": "Osteoarthritis of hip"
              }
            ]
          },
          {
            "coding": [
              {
                "code": "40055000",
                "system": "http://snomed.info/sct",
                "display": "Chronic sinusitis"
              }
            ]
          },
          {
            "coding": [
              {
                "code": "127013003",
                "system": "http://snomed.info/sct",
                "display": "Disorder of kidney due to diabetes mellitus"
              }
            ]
          },
          {
            "coding": [
              {
                "code": "59621000",
                "system": "http://snomed.info/sct",
                "display": "Essential hypertension"
              }
            ]
          }
        ],
        "status": "active",
        "intent": "order",
        "code": {
          "coding": [
            {
              "code": "108252007",
              "system": "http://snomed.info/sct",
              "display": "Laboratory procedure"
            }
          ]
        },
        "subject": {
          "reference": "urn:uuid:83b0c05c-5d03-4fa3-a6cf-733de449d47b",
          "display": "Iva Kratochvílová"
        },
        "requester": {
          "reference": "urn:uuid:1a4c0dc2-2f5a-43f0-bff5-448cd654546f"
        }
      }
    },
    {
      "fullUrl": "urn:uuid:1a4c0dc2-2f5a-43f0-bff5-448cd654546f",
      "resource": {
        "resourceType": "PractitionerRole",
        "id": "1a4c0dc2-2f5a-43f0-bff5-448cd654546f",
        "meta": {
          "profile": [
            "http://hl7.eu/fhir/base/StructureDefinition/practitionerRole-eu"
          ]
        },
        "text": {
          "status": "generated",
          "div": "<div xmlns=\"http://www.w3.org/1999/xhtml\">Provider Role Id: 1a4c0dc2-2f5a-43f0-bff5-448cd654546f</div>"
        },
        "organization": {
          "reference": "urn:uuid:b595b898-c289-4822-bd2f-9063d7995083"
        }
      }
    },
    {
      "fullUrl": "urn:uuid:b595b898-c289-4822-bd2f-9063d7995083",
      "resource": {
        "resourceType": "Organization",
        "id": "b595b898-c289-4822-bd2f-9063d7995083",
        "meta": {
          "profile": [
            "http://hl7.eu/fhir/base/StructureDefinition/organization-eu"
          ]
        },
        "identifier": [
          {
            "assigner": {
              "display": "HL7 Europe"
            },
            "system": "urn:oid:2.16.840.1.113883.2.51.999",
            "value": "e9b747ee-80e6-4c8d-b542-35dba08b2e8b"
          }
        ],
        "address": [
          {
            "city": "Kadaň",
            "postalCode": "432 01",
            "country": "Czechia"
          }
        ],
        "text": {
          "status": "generated",
          "div": "<div xmlns=\"http://www.w3.org/1999/xhtml\">Provider Organization: Nemocnice s poliklinikou Kadaň</div>"
        },
        "name": "Nemocnice s poliklinikou Kadaň"
      }
    },
    {
      "fullUrl": "urn:uuid:d2940db5-2d6a-4ac5-8ee1-6623ac151496",
      "resource": {
        "resourceType": "Specimen",
        "id": "d2940db5-2d6a-4ac5-8ee1-6623ac151496",
        "meta": {
          "profile": [
            "http://hl7.eu/fhir/laboratory/StructureDefinition/Specimen-eu-lab"
          ]
        },
        "collection": {
          "collectedDateTime": "2016-05-23"
        },
        "text": {
          "status": "generated",
          "div": "<div xmlns=\"http://www.w3.org/1999/xhtml\"><table class=\"hl7__eu__lab__report\"><tr><th>Specimen</th><th>Collection Date</th></tr><tr><td>Whole blood specimen (specimen)</td><td><span class=\"nb\">23-May-2016</span></td></tr></table></div>"
        },
        "type": {
          "coding": [
            {
              "code": "258580003",
              "system": "http://snomed.info/sct",
              "display": "Whole blood specimen (specimen)"
            }
          ]
        }
      }
    },
    {
      "fullUrl": "urn:uuid:d2940db5-2d6a-4ac5-8ee1-6623ac151496",
      "resource": {
        "resourceType": "Specimen",
        "id": "d2940db5-2d6a-4ac5-8ee1-6623ac151496",
        "meta": {
          "profile": [
            "http://hl7.eu/fhir/laboratory/StructureDefinition/Specimen-eu-lab"
          ]
        },
        "collection": {
          "collectedDateTime": "2016-05-23"
        },
        "text": {
          "status": "generated",
          "div": "<div xmlns=\"http://www.w3.org/1999/xhtml\"><table class=\"hl7__eu__lab__report\"><tr><th>Specimen</th><th>Collection Date</th></tr><tr><td>Whole blood specimen (specimen)</td><td><span class=\"nb\">23-May-2016</span></td></tr></table></div>"
        },
        "type": {
          "coding": [
            {
              "code": "258580003",
              "system": "http://snomed.info/sct",
              "display": "Whole blood specimen (specimen)"
            }
          ]
        }
      }
    },
    {
      "fullUrl": "urn:uuid:accaaf07-a71e-491b-858a-530f36cdf973",
      "resource": {
        "resourceType": "Specimen",
        "id": "accaaf07-a71e-491b-858a-530f36cdf973",
        "meta": {
          "profile": [
            "http://hl7.eu/fhir/laboratory/StructureDefinition/Specimen-eu-lab"
          ]
        },
        "collection": {
          "collectedDateTime": "2016-05-23"
        },
        "text": {
          "status": "generated",
          "div": "<div xmlns=\"http://www.w3.org/1999/xhtml\"><table class=\"hl7__eu__lab__report\"><tr><th>Specimen</th><th>Collection Date</th></tr><tr><td>Urine specimen</td><td><span class=\"nb\">23-May-2016</span></td></tr></table></div>"
        },
        "type": {
          "coding": [
            {
              "code": "122575003",
              "system": "http://snomed.info/sct",
              "display": "Urine specimen"
            }
          ]
        }
      }
    },
    {
      "fullUrl": "urn:uuid:42fba1eb-93c7-452a-ae4c-7ce53a265975",
      "resource": {
        "resourceType": "Observation",
        "id": "42fba1eb-93c7-452a-ae4c-7ce53a265975",
        "meta": {
          "profile": [
            "http://hl7.eu/fhir/laboratory/StructureDefinition/Observation-resultslab-eu-lab"
          ]
        },
        "performer": [
          {
            "display": "The Central European Lab"
          }
        ],
        "category": [
          {
            "coding": [
              {
                "system": "http://terminology.hl7.org/CodeSystem/observation-category",
                "code": "laboratory"
              }
            ]
          }
        ],
        "code": {
          "coding": [
            {
              "code": "2339-0",
              "system": "http://loinc.org",
              "display": "Glucose [Mass/volume] in Blood"
            }
          ],
          "text": "Glucose [Mass/volume] in Blood"
        },
        "valueQuantity": {
          "system": "http://unitsofmeasure.org",
          "value": 76.8,
          "unit": "mg/dL",
          "code": "mg/dL"
        },
        "referenceRange": [
          {
            "low": {
              "value": 70,
              "code": "mg/dL",
              "system": "http://unitsofmeasure.org"
            }
          },
          {
            "high": {
              "value": 140,
              "code": "mg/dL",
              "system": "http://unitsofmeasure.org"
            }
          }
        ],
        "text": {
          "status": "generated",
          "div": "<div xmlns=\"http://www.w3.org/1999/xhtml\"><table class=\"hl7__eu__lab__report\"><tr><th>Test</th><th>24-May-2016</th><th>Reference&#xA0;Range</th><th>Unit</th></tr><tr><td>Glucose [Mass/volume] in Blood</td><td>76.8</td><td>70 - 140</td><td></td><td>mg/dL</td></tr></table></div>"
        },
        "status": "final",
        "subject": {
          "reference": "urn:uuid:83b0c05c-5d03-4fa3-a6cf-733de449d47b",
          "display": "Iva Kratochvílová"
        },
        "effectiveDateTime": "2016-05-23T22:55:53Z",
        "specimen": {
          "reference": "urn:uuid:d2940db5-2d6a-4ac5-8ee1-6623ac151496"
        }
      }
    },
    {
      "fullUrl": "urn:uuid:75037681-7f19-4af5-b4de-a68ad18028c9",
      "resource": {
        "resourceType": "Observation",
        "id": "75037681-7f19-4af5-b4de-a68ad18028c9",
        "meta": {
          "profile": [
            "http://hl7.eu/fhir/laboratory/StructureDefinition/Observation-resultslab-eu-lab"
          ]
        },
        "performer": [
          {
            "display": "The Central European Lab"
          }
        ],
        "category": [
          {
            "coding": [
              {
                "system": "http://terminology.hl7.org/CodeSystem/observation-category",
                "code": "laboratory"
              }
            ]
          }
        ],
        "code": {
          "coding": [
            {
              "code": "6299-2",
              "system": "http://loinc.org",
              "display": "Urea nitrogen [Mass/volume] in Blood"
            }
          ],
          "text": "Urea nitrogen [Mass/volume] in Blood"
        },
        "valueQuantity": {
          "system": "http://unitsofmeasure.org",
          "value": 8.8,
          "unit": "mg/dL",
          "code": "mg/dL"
        },
        "referenceRange": [
          {
            "low": {
              "value": 7,
              "code": "mg/dL",
              "system": "http://unitsofmeasure.org"
            }
          },
          {
            "high": {
              "value": 25,
              "code": "mg/dL",
              "system": "http://unitsofmeasure.org"
            }
          }
        ],
        "text": {
          "status": "generated",
          "div": "<div xmlns=\"http://www.w3.org/1999/xhtml\"><table class=\"hl7__eu__lab__report\"><tr><th>Test</th><th>24-May-2016</th><th>Reference&#xA0;Range</th><th>Unit</th></tr><tr><td>Urea nitrogen [Mass/volume] in Blood</td><td>8.8</td><td>7 - 25</td><td></td><td>mg/dL</td></tr></table></div>"
        },
        "status": "final",
        "subject": {
          "reference": "urn:uuid:83b0c05c-5d03-4fa3-a6cf-733de449d47b",
          "display": "Iva Kratochvílová"
        },
        "effectiveDateTime": "2016-05-23T22:55:53Z",
        "specimen": {
          "reference": "urn:uuid:d2940db5-2d6a-4ac5-8ee1-6623ac151496"
        }
      }
    },
    {
      "fullUrl": "urn:uuid:1442469e-10fd-4e1f-bb43-73e791b9bd91",
      "resource": {
        "resourceType": "Observation",
        "id": "1442469e-10fd-4e1f-bb43-73e791b9bd91",
        "meta": {
          "profile": [
            "http://hl7.eu/fhir/laboratory/StructureDefinition/Observation-resultslab-eu-lab"
          ]
        },
        "performer": [
          {
            "display": "The Central European Lab"
          }
        ],
        "category": [
          {
            "coding": [
              {
                "system": "http://terminology.hl7.org/CodeSystem/observation-category",
                "code": "laboratory"
              }
            ]
          }
        ],
        "code": {
          "coding": [
            {
              "code": "38483-4",
              "system": "http://loinc.org",
              "display": "Creatinine [Mass/volume] in Blood"
            }
          ],
          "text": "Creatinine [Mass/volume] in Blood"
        },
        "valueQuantity": {
          "system": "http://unitsofmeasure.org",
          "value": 1.1,
          "unit": "mg/dL",
          "code": "mg/dL"
        },
        "referenceRange": [
          {
            "low": {
              "value": 0.6,
              "code": "mg/dL",
              "system": "http://unitsofmeasure.org"
            }
          },
          {
            "high": {
              "value": 1.1,
              "code": "mg/dL",
              "system": "http://unitsofmeasure.org"
            }
          }
        ],
        "text": {
          "status": "generated",
          "div": "<div xmlns=\"http://www.w3.org/1999/xhtml\"><table class=\"hl7__eu__lab__report\"><tr><th>Test</th><th>24-May-2016</th><th>Reference&#xA0;Range</th><th>Unit</th></tr><tr><td>Creatinine [Mass/volume] in Blood</td><td>1.1</td><td>0.6 - 1.1</td><td></td><td>mg/dL</td></tr></table></div>"
        },
        "status": "final",
        "subject": {
          "reference": "urn:uuid:83b0c05c-5d03-4fa3-a6cf-733de449d47b",
          "display": "Iva Kratochvílová"
        },
        "effectiveDateTime": "2016-05-23T22:55:53Z",
        "specimen": {
          "reference": "urn:uuid:d2940db5-2d6a-4ac5-8ee1-6623ac151496"
        }
      }
    },
    {
      "fullUrl": "urn:uuid:fe923dda-59c9-46e8-8331-6c03f9e3f70c",
      "resource": {
        "resourceType": "Observation",
        "id": "fe923dda-59c9-46e8-8331-6c03f9e3f70c",
        "meta": {
          "profile": [
            "http://hl7.eu/fhir/laboratory/StructureDefinition/Observation-resultslab-eu-lab"
          ]
        },
        "performer": [
          {
            "display": "The Central European Lab"
          }
        ],
        "category": [
          {
            "coding": [
              {
                "system": "http://terminology.hl7.org/CodeSystem/observation-category",
                "code": "laboratory"
              }
            ]
          }
        ],
        "code": {
          "coding": [
            {
              "code": "49765-1",
              "system": "http://loinc.org",
              "display": "Calcium [Mass/volume] in Blood"
            }
          ],
          "text": "Calcium [Mass/volume] in Blood"
        },
        "valueQuantity": {
          "system": "http://unitsofmeasure.org",
          "value": 8.6,
          "unit": "mg/dL",
          "code": "mg/dL"
        },
        "referenceRange": [
          {
            "low": {
              "value": 8.6,
              "code": "mg/dL",
              "system": "http://unitsofmeasure.org"
            }
          },
          {
            "high": {
              "value": 10.4,
              "code": "mg/dL",
              "system": "http://unitsofmeasure.org"
            }
          }
        ],
        "text": {
          "status": "generated",
          "div": "<div xmlns=\"http://www.w3.org/1999/xhtml\"><table class=\"hl7__eu__lab__report\"><tr><th>Test</th><th>24-May-2016</th><th>Reference&#xA0;Range</th><th>Unit</th></tr><tr><td>Calcium [Mass/volume] in Blood</td><td>8.6</td><td>8.6 - 10.4</td><td></td><td>mg/dL</td></tr></table></div>"
        },
        "status": "final",
        "subject": {
          "reference": "urn:uuid:83b0c05c-5d03-4fa3-a6cf-733de449d47b",
          "display": "Iva Kratochvílová"
        },
        "effectiveDateTime": "2016-05-23T22:55:53Z",
        "specimen": {
          "reference": "urn:uuid:d2940db5-2d6a-4ac5-8ee1-6623ac151496"
        }
      }
    },
    {
      "fullUrl": "urn:uuid:1cad9a25-503d-4d34-9737-a2a13a011f3e",
      "resource": {
        "resourceType": "Observation",
        "id": "1cad9a25-503d-4d34-9737-a2a13a011f3e",
        "meta": {
          "profile": [
            "http://hl7.eu/fhir/laboratory/StructureDefinition/Observation-resultslab-eu-lab"
          ]
        },
        "performer": [
          {
            "display": "The Central European Lab"
          }
        ],
        "category": [
          {
            "coding": [
              {
                "system": "http://terminology.hl7.org/CodeSystem/observation-category",
                "code": "laboratory"
              }
            ]
          }
        ],
        "code": {
          "coding": [
            {
              "code": "2947-0",
              "system": "http://loinc.org",
              "display": "Sodium [Moles/volume] in Blood"
            }
          ],
          "text": "Sodium [Moles/volume] in Blood"
        },
        "valueQuantity": {
          "system": "http://unitsofmeasure.org",
          "value": 141.2,
          "unit": "mmol/L",
          "code": "mmol/L"
        },
        "referenceRange": [
          {
            "low": {
              "value": 135,
              "code": "mmol/L",
              "system": "http://unitsofmeasure.org"
            }
          },
          {
            "high": {
              "value": 145,
              "code": "mmol/L",
              "system": "http://unitsofmeasure.org"
            }
          }
        ],
        "text": {
          "status": "generated",
          "div": "<div xmlns=\"http://www.w3.org/1999/xhtml\"><table class=\"hl7__eu__lab__report\"><tr><th>Test</th><th>24-May-2016</th><th>Reference&#xA0;Range</th><th>Unit</th></tr><tr><td>Sodium [Moles/volume] in Blood</td><td>141.2</td><td>135 - 145</td><td></td><td>mmol/L</td></tr></table></div>"
        },
        "status": "final",
        "subject": {
          "reference": "urn:uuid:83b0c05c-5d03-4fa3-a6cf-733de449d47b",
          "display": "Iva Kratochvílová"
        },
        "effectiveDateTime": "2016-05-23T22:55:53Z",
        "specimen": {
          "reference": "urn:uuid:d2940db5-2d6a-4ac5-8ee1-6623ac151496"
        }
      }
    },
    {
      "fullUrl": "urn:uuid:24e9ad05-de30-46e5-bd93-7a75c703b920",
      "resource": {
        "resourceType": "Observation",
        "id": "24e9ad05-de30-46e5-bd93-7a75c703b920",
        "meta": {
          "profile": [
            "http://hl7.eu/fhir/laboratory/StructureDefinition/Observation-resultslab-eu-lab"
          ]
        },
        "performer": [
          {
            "display": "The Central European Lab"
          }
        ],
        "category": [
          {
            "coding": [
              {
                "system": "http://terminology.hl7.org/CodeSystem/observation-category",
                "code": "laboratory"
              }
            ]
          }
        ],
        "code": {
          "coding": [
            {
              "code": "6298-4",
              "system": "http://loinc.org",
              "display": "Potassium [Moles/volume] in Blood"
            }
          ],
          "text": "Potassium [Moles/volume] in Blood"
        },
        "valueQuantity": {
          "system": "http://unitsofmeasure.org",
          "value": 4,
          "unit": "mmol/L",
          "code": "mmol/L"
        },
        "referenceRange": [
          {
            "low": {
              "value": 3.5,
              "code": "mmol/L",
              "system": "http://unitsofmeasure.org"
            }
          },
          {
            "high": {
              "value": 5.1,
              "code": "mmol/L",
              "system": "http://unitsofmeasure.org"
            }
          }
        ],
        "text": {
          "status": "generated",
          "div": "<div xmlns=\"http://www.w3.org/1999/xhtml\"><table class=\"hl7__eu__lab__report\"><tr><th>Test</th><th>24-May-2016</th><th>Reference&#xA0;Range</th><th>Unit</th></tr><tr><td>Potassium [Moles/volume] in Blood</td><td>4.0</td><td>3.5 - 5.1</td><td></td><td>mmol/L</td></tr></table></div>"
        },
        "status": "final",
        "subject": {
          "reference": "urn:uuid:83b0c05c-5d03-4fa3-a6cf-733de449d47b",
          "display": "Iva Kratochvílová"
        },
        "effectiveDateTime": "2016-05-23T22:55:53Z",
        "specimen": {
          "reference": "urn:uuid:d2940db5-2d6a-4ac5-8ee1-6623ac151496"
        }
      }
    },
    {
      "fullUrl": "urn:uuid:a401552b-d5fb-4746-8c7a-3105f131e7fb",
      "resource": {
        "resourceType": "Observation",
        "id": "a401552b-d5fb-4746-8c7a-3105f131e7fb",
        "meta": {
          "profile": [
            "http://hl7.eu/fhir/laboratory/StructureDefinition/Observation-resultslab-eu-lab"
          ]
        },
        "performer": [
          {
            "display": "The Central European Lab"
          }
        ],
        "category": [
          {
            "coding": [
              {
                "system": "http://terminology.hl7.org/CodeSystem/observation-category",
                "code": "laboratory"
              }
            ]
          }
        ],
        "code": {
          "coding": [
            {
              "code": "2069-3",
              "system": "http://loinc.org",
              "display": "Chloride [Moles/volume] in Blood"
            }
          ],
          "text": "Chloride [Moles/volume] in Blood"
        },
        "valueQuantity": {
          "system": "http://unitsofmeasure.org",
          "value": 107,
          "unit": "mmol/L",
          "code": "mmol/L"
        },
        "referenceRange": [
          {
            "low": {
              "value": 98,
              "code": "mmol/L",
              "system": "http://unitsofmeasure.org"
            }
          },
          {
            "high": {
              "value": 110,
              "code": "mmol/L",
              "system": "http://unitsofmeasure.org"
            }
          }
        ],
        "text": {
          "status": "generated",
          "div": "<div xmlns=\"http://www.w3.org/1999/xhtml\"><table class=\"hl7__eu__lab__report\"><tr><th>Test</th><th>24-May-2016</th><th>Reference&#xA0;Range</th><th>Unit</th></tr><tr><td>Chloride [Moles/volume] in Blood</td><td>107.0</td><td>98 - 110</td><td></td><td>mmol/L</td></tr></table></div>"
        },
        "status": "final",
        "subject": {
          "reference": "urn:uuid:83b0c05c-5d03-4fa3-a6cf-733de449d47b",
          "display": "Iva Kratochvílová"
        },
        "effectiveDateTime": "2016-05-23T22:55:53Z",
        "specimen": {
          "reference": "urn:uuid:d2940db5-2d6a-4ac5-8ee1-6623ac151496"
        }
      }
    },
    {
      "fullUrl": "urn:uuid:9f79412e-4f24-4c16-9fa2-23a2a5878fd9",
      "resource": {
        "resourceType": "Observation",
        "id": "9f79412e-4f24-4c16-9fa2-23a2a5878fd9",
        "meta": {
          "profile": [
            "http://hl7.eu/fhir/laboratory/StructureDefinition/Observation-resultslab-eu-lab"
          ]
        },
        "performer": [
          {
            "display": "The Central European Lab"
          }
        ],
        "category": [
          {
            "coding": [
              {
                "system": "http://terminology.hl7.org/CodeSystem/observation-category",
                "code": "laboratory"
              }
            ]
          }
        ],
        "code": {
          "coding": [
            {
              "code": "20565-8",
              "system": "http://loinc.org",
              "display": "Carbon dioxide, total [Moles/volume] in Blood"
            }
          ],
          "text": "Carbon dioxide, total [Moles/volume] in Blood"
        },
        "valueQuantity": {
          "system": "http://unitsofmeasure.org",
          "value": 22.6,
          "unit": "mmol/L",
          "code": "mmol/L"
        },
        "referenceRange": [
          {
            "low": {
              "value": 22,
              "code": "mmol/L",
              "system": "http://unitsofmeasure.org"
            }
          },
          {
            "high": {
              "value": 29,
              "code": "mmol/L",
              "system": "http://unitsofmeasure.org"
            }
          }
        ],
        "text": {
          "status": "generated",
          "div": "<div xmlns=\"http://www.w3.org/1999/xhtml\"><table class=\"hl7__eu__lab__report\"><tr><th>Test</th><th>24-May-2016</th><th>Reference&#xA0;Range</th><th>Unit</th></tr><tr><td>Carbon dioxide, total [Moles/volume] in Blood</td><td>22.6</td><td>22 - 29</td><td></td><td>mmol/L</td></tr></table></div>"
        },
        "status": "final",
        "subject": {
          "reference": "urn:uuid:83b0c05c-5d03-4fa3-a6cf-733de449d47b",
          "display": "Iva Kratochvílová"
        },
        "effectiveDateTime": "2016-05-23T22:55:53Z",
        "specimen": {
          "reference": "urn:uuid:d2940db5-2d6a-4ac5-8ee1-6623ac151496"
        }
      }
    },
    {
      "fullUrl": "urn:uuid:b1440043-9725-4676-b05f-84967b7d3143",
      "resource": {
        "resourceType": "Observation",
        "id": "b1440043-9725-4676-b05f-84967b7d3143",
        "meta": {
          "profile": [
            "http://hl7.eu/fhir/laboratory/StructureDefinition/Observation-resultslab-eu-lab"
          ]
        },
        "performer": [
          {
            "display": "The Central European Lab"
          }
        ],
        "category": [
          {
            "coding": [
              {
                "system": "http://terminology.hl7.org/CodeSystem/observation-category",
                "code": "laboratory"
              }
            ]
          }
        ],
        "code": {
          "coding": [
            {
              "code": "6690-2",
              "system": "http://loinc.org",
              "display": "Leukocytes [#/volume] in Blood by Automated count"
            }
          ],
          "text": "Leukocytes [#/volume] in Blood by Automated count"
        },
        "valueQuantity": {
          "system": "http://unitsofmeasure.org",
          "value": 7.3,
          "unit": "10*3/uL",
          "code": "10*3/uL"
        },
        "referenceRange": [
          {
            "low": {
              "value": 3.4,
              "code": "10*3/uL",
              "system": "http://unitsofmeasure.org"
            }
          },
          {
            "high": {
              "value": 10.6,
              "code": "10*3/uL",
              "system": "http://unitsofmeasure.org"
            }
          }
        ],
        "text": {
          "status": "generated",
          "div": "<div xmlns=\"http://www.w3.org/1999/xhtml\"><table class=\"hl7__eu__lab__report\"><tr><th>Test</th><th>24-May-2016</th><th>Reference&#xA0;Range</th><th>Unit</th></tr><tr><td>Leukocytes [#/volume] in Blood by Automated count</td><td>7.3</td><td>3.4 - 10.6</td><td></td><td>10*3/uL</td></tr></table></div>"
        },
        "status": "final",
        "subject": {
          "reference": "urn:uuid:83b0c05c-5d03-4fa3-a6cf-733de449d47b",
          "display": "Iva Kratochvílová"
        },
        "effectiveDateTime": "2016-05-23T22:55:53Z",
        "specimen": {
          "reference": "urn:uuid:d2940db5-2d6a-4ac5-8ee1-6623ac151496"
        }
      }
    },
    {
      "fullUrl": "urn:uuid:63a9a613-2bc8-4ba2-9cb5-96496a689948",
      "resource": {
        "resourceType": "Observation",
        "id": "63a9a613-2bc8-4ba2-9cb5-96496a689948",
        "meta": {
          "profile": [
            "http://hl7.eu/fhir/laboratory/StructureDefinition/Observation-resultslab-eu-lab"
          ]
        },
        "performer": [
          {
            "display": "The Central European Lab"
          }
        ],
        "category": [
          {
            "coding": [
              {
                "system": "http://terminology.hl7.org/CodeSystem/observation-category",
                "code": "laboratory"
              }
            ]
          }
        ],
        "code": {
          "coding": [
            {
              "code": "789-8",
              "system": "http://loinc.org",
              "display": "Erythrocytes [#/volume] in Blood by Automated count"
            }
          ],
          "text": "Erythrocytes [#/volume] in Blood by Automated count"
        },
        "valueQuantity": {
          "system": "http://unitsofmeasure.org",
          "value": 5,
          "unit": "10*6/uL",
          "code": "10*6/uL"
        },
        "referenceRange": [
          {
            "low": {
              "value": 4.2,
              "code": "10*6/uL",
              "system": "http://unitsofmeasure.org"
            }
          },
          {
            "high": {
              "value": 5.2,
              "code": "10*6/uL",
              "system": "http://unitsofmeasure.org"
            }
          }
        ],
        "text": {
          "status": "generated",
          "div": "<div xmlns=\"http://www.w3.org/1999/xhtml\"><table class=\"hl7__eu__lab__report\"><tr><th>Test</th><th>24-May-2016</th><th>Reference&#xA0;Range</th><th>Unit</th></tr><tr><td>Erythrocytes [#/volume] in Blood by Automated count</td><td>5.0</td><td>4.2 - 5.2</td><td></td><td>10*6/uL</td></tr></table></div>"
        },
        "status": "final",
        "subject": {
          "reference": "urn:uuid:83b0c05c-5d03-4fa3-a6cf-733de449d47b",
          "display": "Iva Kratochvílová"
        },
        "effectiveDateTime": "2016-05-23T22:55:53Z",
        "specimen": {
          "reference": "urn:uuid:d2940db5-2d6a-4ac5-8ee1-6623ac151496"
        }
      }
    },
    {
      "fullUrl": "urn:uuid:ecca0f9d-baf1-4f67-806f-2e35b32007e1",
      "resource": {
        "resourceType": "Observation",
        "id": "ecca0f9d-baf1-4f67-806f-2e35b32007e1",
        "meta": {
          "profile": [
            "http://hl7.eu/fhir/laboratory/StructureDefinition/Observation-resultslab-eu-lab"
          ]
        },
        "performer": [
          {
            "display": "The Central European Lab"
          }
        ],
        "category": [
          {
            "coding": [
              {
                "system": "http://terminology.hl7.org/CodeSystem/observation-category",
                "code": "laboratory"
              }
            ]
          }
        ],
        "code": {
          "coding": [
            {
              "code": "718-7",
              "system": "http://loinc.org",
              "display": "Hemoglobin [Mass/volume] in Blood"
            }
          ],
          "text": "Hemoglobin [Mass/volume] in Blood"
        },
        "valueQuantity": {
          "system": "http://unitsofmeasure.org",
          "value": 17.3,
          "unit": "g/dL",
          "code": "g/dL"
        },
        "referenceRange": [
          {
            "low": {
              "value": 12,
              "code": "g/dL",
              "system": "http://unitsofmeasure.org"
            }
          },
          {
            "high": {
              "value": 16,
              "code": "g/dL",
              "system": "http://unitsofmeasure.org"
            }
          }
        ],
        "interpretation": [
          {
            "coding": [
              {
                "code": "H",
                "system": "http://terminology.hl7.org/CodeSystem/v3-ObservationInterpretation",
                "display": "High"
              }
            ]
          }
        ],
        "text": {
          "status": "generated",
          "div": "<div xmlns=\"http://www.w3.org/1999/xhtml\"><table class=\"hl7__eu__lab__report\"><tr><th>Test</th><th>24-May-2016</th><th>Reference&#xA0;Range</th><th>Unit</th></tr><tr><td>Hemoglobin [Mass/volume] in Blood</td><td>17.3</td><td>12 - 16</td><td>H</td><td>g/dL</td></tr></table></div>"
        },
        "status": "final",
        "subject": {
          "reference": "urn:uuid:83b0c05c-5d03-4fa3-a6cf-733de449d47b",
          "display": "Iva Kratochvílová"
        },
        "effectiveDateTime": "2016-05-23T22:55:53Z",
        "specimen": {
          "reference": "urn:uuid:d2940db5-2d6a-4ac5-8ee1-6623ac151496"
        }
      }
    },
    {
      "fullUrl": "urn:uuid:b4eb2ef1-dd91-4919-88ec-45d8ef9f8660",
      "resource": {
        "resourceType": "Observation",
        "id": "b4eb2ef1-dd91-4919-88ec-45d8ef9f8660",
        "meta": {
          "profile": [
            "http://hl7.eu/fhir/laboratory/StructureDefinition/Observation-resultslab-eu-lab"
          ]
        },
        "performer": [
          {
            "display": "The Central European Lab"
          }
        ],
        "category": [
          {
            "coding": [
              {
                "system": "http://terminology.hl7.org/CodeSystem/observation-category",
                "code": "laboratory"
              }
            ]
          }
        ],
        "code": {
          "coding": [
            {
              "code": "4544-3",
              "system": "http://loinc.org",
              "display": "Hematocrit [Volume Fraction] of Blood by Automated count"
            }
          ],
          "text": "Hematocrit [Volume Fraction] of Blood by Automated count"
        },
        "valueQuantity": {
          "system": "http://unitsofmeasure.org",
          "value": 39,
          "unit": "%",
          "code": "%"
        },
        "referenceRange": [
          {
            "low": {
              "value": 36,
              "code": "%",
              "system": "http://unitsofmeasure.org"
            }
          },
          {
            "high": {
              "value": 48,
              "code": "%",
              "system": "http://unitsofmeasure.org"
            }
          }
        ],
        "text": {
          "status": "generated",
          "div": "<div xmlns=\"http://www.w3.org/1999/xhtml\"><table class=\"hl7__eu__lab__report\"><tr><th>Test</th><th>24-May-2016</th><th>Reference&#xA0;Range</th><th>Unit</th></tr><tr><td>Hematocrit [Volume Fraction] of Blood by Automated count</td><td>39.0</td><td>36 - 48</td><td></td><td>%</td></tr></table></div>"
        },
        "status": "final",
        "subject": {
          "reference": "urn:uuid:83b0c05c-5d03-4fa3-a6cf-733de449d47b",
          "display": "Iva Kratochvílová"
        },
        "effectiveDateTime": "2016-05-23T22:55:53Z",
        "specimen": {
          "reference": "urn:uuid:d2940db5-2d6a-4ac5-8ee1-6623ac151496"
        }
      }
    },
    {
      "fullUrl": "urn:uuid:da289e15-13a0-4b19-aa7f-c3c0a2391370",
      "resource": {
        "resourceType": "Observation",
        "id": "da289e15-13a0-4b19-aa7f-c3c0a2391370",
        "meta": {
          "profile": [
            "http://hl7.eu/fhir/laboratory/StructureDefinition/Observation-resultslab-eu-lab"
          ]
        },
        "performer": [
          {
            "display": "The Central European Lab"
          }
        ],
        "category": [
          {
            "coding": [
              {
                "system": "http://terminology.hl7.org/CodeSystem/observation-category",
                "code": "laboratory"
              }
            ]
          }
        ],
        "code": {
          "coding": [
            {
              "code": "787-2",
              "system": "http://loinc.org",
              "display": "MCV [Entitic volume] by Automated count"
            }
          ],
          "text": "MCV [Entitic volume] by Automated count"
        },
        "valueQuantity": {
          "system": "http://unitsofmeasure.org",
          "value": 86.8,
          "unit": "fL",
          "code": "fL"
        },
        "referenceRange": [
          {
            "low": {
              "value": 82,
              "code": "fL",
              "system": "http://unitsofmeasure.org"
            }
          },
          {
            "high": {
              "value": 98,
              "code": "fL",
              "system": "http://unitsofmeasure.org"
            }
          }
        ],
        "text": {
          "status": "generated",
          "div": "<div xmlns=\"http://www.w3.org/1999/xhtml\"><table class=\"hl7__eu__lab__report\"><tr><th>Test</th><th>24-May-2016</th><th>Reference&#xA0;Range</th><th>Unit</th></tr><tr><td>MCV [Entitic volume] by Automated count</td><td>86.8</td><td>82 - 98</td><td></td><td>fL</td></tr></table></div>"
        },
        "status": "final",
        "subject": {
          "reference": "urn:uuid:83b0c05c-5d03-4fa3-a6cf-733de449d47b",
          "display": "Iva Kratochvílová"
        },
        "effectiveDateTime": "2016-05-23T22:55:53Z",
        "specimen": {
          "reference": "urn:uuid:d2940db5-2d6a-4ac5-8ee1-6623ac151496"
        }
      }
    },
    {
      "fullUrl": "urn:uuid:431a15fc-2927-4632-bd65-1a1965fb4343",
      "resource": {
        "resourceType": "Observation",
        "id": "431a15fc-2927-4632-bd65-1a1965fb4343",
        "meta": {
          "profile": [
            "http://hl7.eu/fhir/laboratory/StructureDefinition/Observation-resultslab-eu-lab"
          ]
        },
        "performer": [
          {
            "display": "The Central European Lab"
          }
        ],
        "category": [
          {
            "coding": [
              {
                "system": "http://terminology.hl7.org/CodeSystem/observation-category",
                "code": "laboratory"
              }
            ]
          }
        ],
        "code": {
          "coding": [
            {
              "code": "785-6",
              "system": "http://loinc.org",
              "display": "MCH [Entitic mass] by Automated count"
            }
          ],
          "text": "MCH [Entitic mass] by Automated count"
        },
        "valueQuantity": {
          "system": "http://unitsofmeasure.org",
          "value": 32.3,
          "unit": "pg",
          "code": "pg"
        },
        "referenceRange": [
          {
            "low": {
              "value": 27,
              "code": "pg",
              "system": "http://unitsofmeasure.org"
            }
          },
          {
            "high": {
              "value": 33,
              "code": "pg",
              "system": "http://unitsofmeasure.org"
            }
          }
        ],
        "text": {
          "status": "generated",
          "div": "<div xmlns=\"http://www.w3.org/1999/xhtml\"><table class=\"hl7__eu__lab__report\"><tr><th>Test</th><th>24-May-2016</th><th>Reference&#xA0;Range</th><th>Unit</th></tr><tr><td>MCH [Entitic mass] by Automated count</td><td>32.3</td><td>27 - 33</td><td></td><td>pg</td></tr></table></div>"
        },
        "status": "final",
        "subject": {
          "reference": "urn:uuid:83b0c05c-5d03-4fa3-a6cf-733de449d47b",
          "display": "Iva Kratochvílová"
        },
        "effectiveDateTime": "2016-05-23T22:55:53Z",
        "specimen": {
          "reference": "urn:uuid:d2940db5-2d6a-4ac5-8ee1-6623ac151496"
        }
      }
    },
    {
      "fullUrl": "urn:uuid:28bb2827-a678-4551-81e5-36014b31d7ff",
      "resource": {
        "resourceType": "Observation",
        "id": "28bb2827-a678-4551-81e5-36014b31d7ff",
        "meta": {
          "profile": [
            "http://hl7.eu/fhir/laboratory/StructureDefinition/Observation-resultslab-eu-lab"
          ]
        },
        "performer": [
          {
            "display": "The Central European Lab"
          }
        ],
        "category": [
          {
            "coding": [
              {
                "system": "http://terminology.hl7.org/CodeSystem/observation-category",
                "code": "laboratory"
              }
            ]
          }
        ],
        "code": {
          "coding": [
            {
              "code": "786-4",
              "system": "http://loinc.org",
              "display": "MCHC [Mass/volume] by Automated count"
            }
          ],
          "text": "MCHC [Mass/volume] by Automated count"
        },
        "valueQuantity": {
          "system": "http://unitsofmeasure.org",
          "value": 35.1,
          "unit": "g/dL",
          "code": "g/dL"
        },
        "referenceRange": [
          {
            "low": {
              "value": 32,
              "code": "g/dL",
              "system": "http://unitsofmeasure.org"
            }
          },
          {
            "high": {
              "value": 37,
              "code": "g/dL",
              "system": "http://unitsofmeasure.org"
            }
          }
        ],
        "text": {
          "status": "generated",
          "div": "<div xmlns=\"http://www.w3.org/1999/xhtml\"><table class=\"hl7__eu__lab__report\"><tr><th>Test</th><th>24-May-2016</th><th>Reference&#xA0;Range</th><th>Unit</th></tr><tr><td>MCHC [Mass/volume] by Automated count</td><td>35.1</td><td>32 - 37</td><td></td><td>g/dL</td></tr></table></div>"
        },
        "status": "final",
        "subject": {
          "reference": "urn:uuid:83b0c05c-5d03-4fa3-a6cf-733de449d47b",
          "display": "Iva Kratochvílová"
        },
        "effectiveDateTime": "2016-05-23T22:55:53Z",
        "specimen": {
          "reference": "urn:uuid:d2940db5-2d6a-4ac5-8ee1-6623ac151496"
        }
      }
    },
    {
      "fullUrl": "urn:uuid:09c0c65c-ad7f-47d0-8913-c9d8fe683445",
      "resource": {
        "resourceType": "Observation",
        "id": "09c0c65c-ad7f-47d0-8913-c9d8fe683445",
        "meta": {
          "profile": [
            "http://hl7.eu/fhir/laboratory/StructureDefinition/Observation-resultslab-eu-lab"
          ]
        },
        "performer": [
          {
            "display": "The Central European Lab"
          }
        ],
        "category": [
          {
            "coding": [
              {
                "system": "http://terminology.hl7.org/CodeSystem/observation-category",
                "code": "laboratory"
              }
            ]
          }
        ],
        "code": {
          "coding": [
            {
              "code": "21000-5",
              "system": "http://loinc.org",
              "display": "Erythrocyte distribution width [Entitic volume] by Automated count"
            }
          ],
          "text": "Erythrocyte distribution width [Entitic volume] by Automated count"
        },
        "valueQuantity": {
          "system": "http://unitsofmeasure.org",
          "value": 43,
          "unit": "fL",
          "code": "fL"
        },
        "referenceRange": [
          {
            "low": {
              "value": 36,
              "code": "fL",
              "system": "http://unitsofmeasure.org"
            }
          },
          {
            "high": {
              "value": 46,
              "code": "fL",
              "system": "http://unitsofmeasure.org"
            }
          }
        ],
        "text": {
          "status": "generated",
          "div": "<div xmlns=\"http://www.w3.org/1999/xhtml\"><table class=\"hl7__eu__lab__report\"><tr><th>Test</th><th>24-May-2016</th><th>Reference&#xA0;Range</th><th>Unit</th></tr><tr><td>Erythrocyte distribution width [Entitic volume] by Automated count</td><td>43.0</td><td>36 - 46</td><td></td><td>fL</td></tr></table></div>"
        },
        "status": "final",
        "subject": {
          "reference": "urn:uuid:83b0c05c-5d03-4fa3-a6cf-733de449d47b",
          "display": "Iva Kratochvílová"
        },
        "effectiveDateTime": "2016-05-23T22:55:53Z",
        "specimen": {
          "reference": "urn:uuid:d2940db5-2d6a-4ac5-8ee1-6623ac151496"
        }
      }
    },
    {
      "fullUrl": "urn:uuid:f333a146-3d0c-4b71-9760-9a86c4afce2e",
      "resource": {
        "resourceType": "Observation",
        "id": "f333a146-3d0c-4b71-9760-9a86c4afce2e",
        "meta": {
          "profile": [
            "http://hl7.eu/fhir/laboratory/StructureDefinition/Observation-resultslab-eu-lab"
          ]
        },
        "performer": [
          {
            "display": "The Central European Lab"
          }
        ],
        "category": [
          {
            "coding": [
              {
                "system": "http://terminology.hl7.org/CodeSystem/observation-category",
                "code": "laboratory"
              }
            ]
          }
        ],
        "code": {
          "coding": [
            {
              "code": "777-3",
              "system": "http://loinc.org",
              "display": "Platelets [#/volume] in Blood by Automated count"
            }
          ],
          "text": "Platelets [#/volume] in Blood by Automated count"
        },
        "valueQuantity": {
          "system": "http://unitsofmeasure.org",
          "value": 165.6,
          "unit": "10*3/uL",
          "code": "10*3/uL"
        },
        "referenceRange": [
          {
            "low": {
              "value": 150,
              "code": "10*3/uL",
              "system": "http://unitsofmeasure.org"
            }
          },
          {
            "high": {
              "value": 450,
              "code": "10*3/uL",
              "system": "http://unitsofmeasure.org"
            }
          }
        ],
        "text": {
          "status": "generated",
          "div": "<div xmlns=\"http://www.w3.org/1999/xhtml\"><table class=\"hl7__eu__lab__report\"><tr><th>Test</th><th>24-May-2016</th><th>Reference&#xA0;Range</th><th>Unit</th></tr><tr><td>Platelets [#/volume] in Blood by Automated count</td><td>165.6</td><td>150 - 450</td><td></td><td>10*3/uL</td></tr></table></div>"
        },
        "status": "final",
        "subject": {
          "reference": "urn:uuid:83b0c05c-5d03-4fa3-a6cf-733de449d47b",
          "display": "Iva Kratochvílová"
        },
        "effectiveDateTime": "2016-05-23T22:55:53Z",
        "specimen": {
          "reference": "urn:uuid:d2940db5-2d6a-4ac5-8ee1-6623ac151496"
        }
      }
    },
    {
      "fullUrl": "urn:uuid:1b71b18c-d5f3-4c4d-9c27-17fbfb152f57",
      "resource": {
        "resourceType": "Observation",
        "id": "1b71b18c-d5f3-4c4d-9c27-17fbfb152f57",
        "meta": {
          "profile": [
            "http://hl7.eu/fhir/laboratory/StructureDefinition/Observation-resultslab-eu-lab"
          ]
        },
        "performer": [
          {
            "display": "The Central European Lab"
          }
        ],
        "category": [
          {
            "coding": [
              {
                "system": "http://terminology.hl7.org/CodeSystem/observation-category",
                "code": "laboratory"
              }
            ]
          }
        ],
        "code": {
          "coding": [
            {
              "code": "32207-3",
              "system": "http://loinc.org",
              "display": "Platelet distribution width [Entitic volume] in Blood by Automated count"
            }
          ],
          "text": "Platelet distribution width [Entitic volume] in Blood by Automated count"
        },
        "valueQuantity": {
          "system": "http://unitsofmeasure.org",
          "value": 353.1,
          "unit": "fL",
          "code": "fL"
        },
        "referenceRange": [
          {
            "low": {
              "value": 11.6,
              "code": "fL",
              "system": "http://unitsofmeasure.org"
            }
          },
          {
            "high": {
              "value": 17.4,
              "code": "fL",
              "system": "http://unitsofmeasure.org"
            }
          }
        ],
        "interpretation": [
          {
            "coding": [
              {
                "code": "H",
                "system": "http://terminology.hl7.org/CodeSystem/v3-ObservationInterpretation",
                "display": "High"
              }
            ]
          }
        ],
        "text": {
          "status": "generated",
          "div": "<div xmlns=\"http://www.w3.org/1999/xhtml\"><table class=\"hl7__eu__lab__report\"><tr><th>Test</th><th>24-May-2016</th><th>Reference&#xA0;Range</th><th>Unit</th></tr><tr><td>Platelet distribution width [Entitic volume] in Blood by Automated count</td><td>353.1</td><td>11.6 - 17.4</td><td>H</td><td>fL</td></tr></table></div>"
        },
        "status": "final",
        "subject": {
          "reference": "urn:uuid:83b0c05c-5d03-4fa3-a6cf-733de449d47b",
          "display": "Iva Kratochvílová"
        },
        "effectiveDateTime": "2016-05-23T22:55:53Z",
        "specimen": {
          "reference": "urn:uuid:d2940db5-2d6a-4ac5-8ee1-6623ac151496"
        }
      }
    },
    {
      "fullUrl": "urn:uuid:8d1bb04b-2e10-4eba-8bfb-617f87e637fe",
      "resource": {
        "resourceType": "Observation",
        "id": "8d1bb04b-2e10-4eba-8bfb-617f87e637fe",
        "meta": {
          "profile": [
            "http://hl7.eu/fhir/laboratory/StructureDefinition/Observation-resultslab-eu-lab"
          ]
        },
        "performer": [
          {
            "display": "The Central European Lab"
          }
        ],
        "category": [
          {
            "coding": [
              {
                "system": "http://terminology.hl7.org/CodeSystem/observation-category",
                "code": "laboratory"
              }
            ]
          }
        ],
        "code": {
          "coding": [
            {
              "code": "32623-1",
              "system": "http://loinc.org",
              "display": "Platelet mean volume [Entitic volume] in Blood by Automated count"
            }
          ],
          "text": "Platelet mean volume [Entitic volume] in Blood by Automated count"
        },
        "valueQuantity": {
          "system": "http://unitsofmeasure.org",
          "value": 9.7,
          "unit": "fL",
          "code": "fL"
        },
        "referenceRange": [
          {
            "low": {
              "value": 7.4,
              "code": "fL",
              "system": "http://unitsofmeasure.org"
            }
          },
          {
            "high": {
              "value": 12,
              "code": "fL",
              "system": "http://unitsofmeasure.org"
            }
          }
        ],
        "text": {
          "status": "generated",
          "div": "<div xmlns=\"http://www.w3.org/1999/xhtml\"><table class=\"hl7__eu__lab__report\"><tr><th>Test</th><th>24-May-2016</th><th>Reference&#xA0;Range</th><th>Unit</th></tr><tr><td>Platelet mean volume [Entitic volume] in Blood by Automated count</td><td>9.7</td><td>7.4 - 12</td><td></td><td>fL</td></tr></table></div>"
        },
        "status": "final",
        "subject": {
          "reference": "urn:uuid:83b0c05c-5d03-4fa3-a6cf-733de449d47b",
          "display": "Iva Kratochvílová"
        },
        "effectiveDateTime": "2016-05-23T22:55:53Z",
        "specimen": {
          "reference": "urn:uuid:d2940db5-2d6a-4ac5-8ee1-6623ac151496"
        }
      }
    },
    {
      "fullUrl": "urn:uuid:7bafafb7-e079-4687-bb58-1e56f3b5036f",
      "resource": {
        "resourceType": "Observation",
        "id": "7bafafb7-e079-4687-bb58-1e56f3b5036f",
        "meta": {
          "profile": [
            "http://hl7.eu/fhir/laboratory/StructureDefinition/Observation-resultslab-eu-lab"
          ]
        },
        "performer": [
          {
            "display": "The Central European Lab"
          }
        ],
        "category": [
          {
            "coding": [
              {
                "system": "http://terminology.hl7.org/CodeSystem/observation-category",
                "code": "laboratory"
              }
            ]
          }
        ],
        "code": {
          "coding": [
            {
              "code": "25428-4",
              "system": "http://loinc.org",
              "display": "Glucose [Presence] in Urine by Test strip"
            }
          ],
          "text": "Glucose [Presence] in Urine by Test strip"
        },
        "valueQuantity": {
          "system": "http://unitsofmeasure.org",
          "value": 0,
          "unit": "{presence}",
          "code": "{presence}"
        },
        "referenceRange": [
          {
            "low": {
              "value": 0,
              "code": "g/dL",
              "system": "http://unitsofmeasure.org"
            }
          },
          {
            "high": {
              "value": 0.8,
              "code": "g/dL",
              "system": "http://unitsofmeasure.org"
            }
          }
        ],
        "text": {
          "status": "generated",
          "div": "<div xmlns=\"http://www.w3.org/1999/xhtml\"><table class=\"hl7__eu__lab__report\"><tr><th>Test</th><th>24-May-2016</th><th>Reference&#xA0;Range</th><th>Unit</th></tr><tr><td>Glucose [Presence] in Urine by Test strip</td><td>0.0</td><td>0 - 0.8</td><td></td><td>{presence}</td></tr></table></div>"
        },
        "status": "final",
        "subject": {
          "reference": "urn:uuid:83b0c05c-5d03-4fa3-a6cf-733de449d47b",
          "display": "Iva Kratochvílová"
        },
        "effectiveDateTime": "2016-05-23T22:55:53Z",
        "specimen": {
          "reference": "urn:uuid:accaaf07-a71e-491b-858a-530f36cdf973"
        }
      }
    },
    {
      "fullUrl": "urn:uuid:73676d28-813f-4327-89f9-a7c31eb4316c",
      "resource": {
        "resourceType": "Observation",
        "id": "73676d28-813f-4327-89f9-a7c31eb4316c",
        "meta": {
          "profile": [
            "http://hl7.eu/fhir/laboratory/StructureDefinition/Observation-resultslab-eu-lab"
          ]
        },
        "performer": [
          {
            "display": "The Central European Lab"
          }
        ],
        "category": [
          {
            "coding": [
              {
                "system": "http://terminology.hl7.org/CodeSystem/observation-category",
                "code": "laboratory"
              }
            ]
          }
        ],
        "code": {
          "coding": [
            {
              "code": "5770-3",
              "system": "http://loinc.org",
              "display": "Bilirubin.total [Presence] in Urine by Test strip"
            }
          ],
          "text": "Bilirubin.total [Presence] in Urine by Test strip"
        },
        "valueQuantity": {
          "system": "http://unitsofmeasure.org",
          "value": 0,
          "unit": "{presence}",
          "code": "{presence}"
        },
        "referenceRange": [
          {
            "low": {
              "value": 0,
              "code": "mg/dL",
              "system": "http://unitsofmeasure.org"
            }
          },
          {
            "high": {
              "value": 0,
              "code": "mg/dL",
              "system": "http://unitsofmeasure.org"
            }
          }
        ],
        "text": {
          "status": "generated",
          "div": "<div xmlns=\"http://www.w3.org/1999/xhtml\"><table class=\"hl7__eu__lab__report\"><tr><th>Test</th><th>24-May-2016</th><th>Reference&#xA0;Range</th><th>Unit</th></tr><tr><td>Bilirubin.total [Presence] in Urine by Test strip</td><td>0.0</td><td>0 - 0</td><td></td><td>{presence}</td></tr></table></div>"
        },
        "status": "final",
        "subject": {
          "reference": "urn:uuid:83b0c05c-5d03-4fa3-a6cf-733de449d47b",
          "display": "Iva Kratochvílová"
        },
        "effectiveDateTime": "2016-05-23T22:55:53Z",
        "specimen": {
          "reference": "urn:uuid:accaaf07-a71e-491b-858a-530f36cdf973"
        }
      }
    },
    {
      "fullUrl": "urn:uuid:20f710ec-6a08-4dbb-9555-4eb5f6b7ae7a",
      "resource": {
        "resourceType": "Observation",
        "id": "20f710ec-6a08-4dbb-9555-4eb5f6b7ae7a",
        "meta": {
          "profile": [
            "http://hl7.eu/fhir/laboratory/StructureDefinition/Observation-resultslab-eu-lab"
          ]
        },
        "performer": [
          {
            "display": "The Central European Lab"
          }
        ],
        "category": [
          {
            "coding": [
              {
                "system": "http://terminology.hl7.org/CodeSystem/observation-category",
                "code": "laboratory"
              }
            ]
          }
        ],
        "code": {
          "coding": [
            {
              "code": "2514-8",
              "system": "http://loinc.org",
              "display": "Ketones [Presence] in Urine by Test strip"
            }
          ],
          "text": "Ketones [Presence] in Urine by Test strip"
        },
        "valueQuantity": {
          "system": "http://unitsofmeasure.org",
          "value": 0,
          "unit": "{presence}",
          "code": "{presence}"
        },
        "referenceRange": [
          {
            "low": {
              "value": 0,
              "code": "Presence",
              "system": "http://unitsofmeasure.org"
            }
          },
          {
            "high": {
              "value": 0,
              "code": "Presence",
              "system": "http://unitsofmeasure.org"
            }
          }
        ],
        "text": {
          "status": "generated",
          "div": "<div xmlns=\"http://www.w3.org/1999/xhtml\"><table class=\"hl7__eu__lab__report\"><tr><th>Test</th><th>24-May-2016</th><th>Reference&#xA0;Range</th><th>Unit</th></tr><tr><td>Ketones [Presence] in Urine by Test strip</td><td>0.0</td><td>0 - 0</td><td></td><td>{presence}</td></tr></table></div>"
        },
        "status": "final",
        "subject": {
          "reference": "urn:uuid:83b0c05c-5d03-4fa3-a6cf-733de449d47b",
          "display": "Iva Kratochvílová"
        },
        "effectiveDateTime": "2016-05-23T22:55:53Z",
        "specimen": {
          "reference": "urn:uuid:accaaf07-a71e-491b-858a-530f36cdf973"
        }
      }
    },
    {
      "fullUrl": "urn:uuid:9033e221-e6ec-4ad7-b138-69b19932f75e",
      "resource": {
        "resourceType": "Observation",
        "id": "9033e221-e6ec-4ad7-b138-69b19932f75e",
        "meta": {
          "profile": [
            "http://hl7.eu/fhir/laboratory/StructureDefinition/Observation-resultslab-eu-lab"
          ]
        },
        "performer": [
          {
            "display": "The Central European Lab"
          }
        ],
        "category": [
          {
            "coding": [
              {
                "system": "http://terminology.hl7.org/CodeSystem/observation-category",
                "code": "laboratory"
              }
            ]
          }
        ],
        "code": {
          "coding": [
            {
              "code": "5811-5",
              "system": "http://loinc.org",
              "display": "Specific gravity of Urine by Test strip"
            }
          ],
          "text": "Specific gravity of Urine by Test strip"
        },
        "valueQuantity": {
          "system": "http://unitsofmeasure.org",
          "value": 1,
          "unit": "{SG}",
          "code": "{SG}"
        },
        "referenceRange": [
          {
            "low": {
              "value": 1.005,
              "code": "SG",
              "system": "http://unitsofmeasure.org"
            }
          },
          {
            "high": {
              "value": 1.03,
              "code": "SG",
              "system": "http://unitsofmeasure.org"
            }
          }
        ],
        "interpretation": [
          {
            "coding": [
              {
                "code": "L",
                "system": "http://terminology.hl7.org/CodeSystem/v3-ObservationInterpretation",
                "display": "Low"
              }
            ]
          }
        ],
        "text": {
          "status": "generated",
          "div": "<div xmlns=\"http://www.w3.org/1999/xhtml\"><table class=\"hl7__eu__lab__report\"><tr><th>Test</th><th>24-May-2016</th><th>Reference&#xA0;Range</th><th>Unit</th></tr><tr><td>Specific gravity of Urine by Test strip</td><td>1.0</td><td>1.005 - 1.03</td><td>L</td><td>{SG}</td></tr></table></div>"
        },
        "status": "final",
        "subject": {
          "reference": "urn:uuid:83b0c05c-5d03-4fa3-a6cf-733de449d47b",
          "display": "Iva Kratochvílová"
        },
        "effectiveDateTime": "2016-05-23T22:55:53Z",
        "specimen": {
          "reference": "urn:uuid:accaaf07-a71e-491b-858a-530f36cdf973"
        }
      }
    },
    {
      "fullUrl": "urn:uuid:b65a9cbe-2dbc-41b3-85f3-7ea7ab0a830e",
      "resource": {
        "resourceType": "Observation",
        "id": "b65a9cbe-2dbc-41b3-85f3-7ea7ab0a830e",
        "meta": {
          "profile": [
            "http://hl7.eu/fhir/laboratory/StructureDefinition/Observation-resultslab-eu-lab"
          ]
        },
        "performer": [
          {
            "display": "The Central European Lab"
          }
        ],
        "category": [
          {
            "coding": [
              {
                "system": "http://terminology.hl7.org/CodeSystem/observation-category",
                "code": "laboratory"
              }
            ]
          }
        ],
        "code": {
          "coding": [
            {
              "code": "5803-2",
              "system": "http://loinc.org",
              "display": "pH of Urine by Test strip"
            }
          ],
          "text": "pH of Urine by Test strip"
        },
        "valueQuantity": {
          "system": "http://unitsofmeasure.org",
          "value": 6,
          "unit": "[pH]",
          "code": "[pH]"
        },
        "referenceRange": [
          {
            "low": {
              "value": 4.5,
              "code": "pH",
              "system": "http://unitsofmeasure.org"
            }
          },
          {
            "high": {
              "value": 8,
              "code": "pH",
              "system": "http://unitsofmeasure.org"
            }
          }
        ],
        "text": {
          "status": "generated",
          "div": "<div xmlns=\"http://www.w3.org/1999/xhtml\"><table class=\"hl7__eu__lab__report\"><tr><th>Test</th><th>24-May-2016</th><th>Reference&#xA0;Range</th><th>Unit</th></tr><tr><td>pH of Urine by Test strip</td><td>6.0</td><td>4.5 - 8</td><td></td><td>[pH]</td></tr></table></div>"
        },
        "status": "final",
        "subject": {
          "reference": "urn:uuid:83b0c05c-5d03-4fa3-a6cf-733de449d47b",
          "display": "Iva Kratochvílová"
        },
        "effectiveDateTime": "2016-05-23T22:55:53Z",
        "specimen": {
          "reference": "urn:uuid:accaaf07-a71e-491b-858a-530f36cdf973"
        }
      }
    },
    {
      "fullUrl": "urn:uuid:68809f5a-04cc-489f-88b9-5cab591fd2be",
      "resource": {
        "resourceType": "Observation",
        "id": "68809f5a-04cc-489f-88b9-5cab591fd2be",
        "meta": {
          "profile": [
            "http://hl7.eu/fhir/laboratory/StructureDefinition/Observation-resultslab-eu-lab"
          ]
        },
        "performer": [
          {
            "display": "The Central European Lab"
          }
        ],
        "category": [
          {
            "coding": [
              {
                "system": "http://terminology.hl7.org/CodeSystem/observation-category",
                "code": "laboratory"
              }
            ]
          }
        ],
        "code": {
          "coding": [
            {
              "code": "20454-5",
              "system": "http://loinc.org",
              "display": "Protein [Presence] in Urine by Test strip"
            }
          ],
          "text": "Protein [Presence] in Urine by Test strip"
        },
        "valueQuantity": {
          "system": "http://unitsofmeasure.org",
          "value": 0,
          "unit": "{presence}",
          "code": "{presence}"
        },
        "referenceRange": [
          {
            "low": {
              "value": 0,
              "code": "mg/dL",
              "system": "http://unitsofmeasure.org"
            }
          },
          {
            "high": {
              "value": 0,
              "code": "mg/dL",
              "system": "http://unitsofmeasure.org"
            }
          }
        ],
        "text": {
          "status": "generated",
          "div": "<div xmlns=\"http://www.w3.org/1999/xhtml\"><table class=\"hl7__eu__lab__report\"><tr><th>Test</th><th>24-May-2016</th><th>Reference&#xA0;Range</th><th>Unit</th></tr><tr><td>Protein [Presence] in Urine by Test strip</td><td>0.0</td><td>0 - 0</td><td></td><td>{presence}</td></tr></table></div>"
        },
        "status": "final",
        "subject": {
          "reference": "urn:uuid:83b0c05c-5d03-4fa3-a6cf-733de449d47b",
          "display": "Iva Kratochvílová"
        },
        "effectiveDateTime": "2016-05-23T22:55:53Z",
        "specimen": {
          "reference": "urn:uuid:accaaf07-a71e-491b-858a-530f36cdf973"
        }
      }
    },
    {
      "fullUrl": "urn:uuid:ed50d8ca-692d-4fe1-b977-cccd51d85dd9",
      "resource": {
        "resourceType": "Observation",
        "id": "ed50d8ca-692d-4fe1-b977-cccd51d85dd9",
        "meta": {
          "profile": [
            "http://hl7.eu/fhir/laboratory/StructureDefinition/Observation-resultslab-eu-lab"
          ]
        },
        "performer": [
          {
            "display": "The Central European Lab"
          }
        ],
        "category": [
          {
            "coding": [
              {
                "system": "http://terminology.hl7.org/CodeSystem/observation-category",
                "code": "laboratory"
              }
            ]
          }
        ],
        "code": {
          "coding": [
            {
              "code": "5802-4",
              "system": "http://loinc.org",
              "display": "Nitrite [Presence] in Urine by Test strip"
            }
          ],
          "text": "Nitrite [Presence] in Urine by Test strip"
        },
        "valueQuantity": {
          "system": "http://unitsofmeasure.org",
          "value": 0,
          "unit": "{presence}",
          "code": "{presence}"
        },
        "referenceRange": [
          {
            "low": {
              "value": 0,
              "code": "Presence",
              "system": "http://unitsofmeasure.org"
            }
          },
          {
            "high": {
              "value": 0,
              "code": "Presence",
              "system": "http://unitsofmeasure.org"
            }
          }
        ],
        "text": {
          "status": "generated",
          "div": "<div xmlns=\"http://www.w3.org/1999/xhtml\"><table class=\"hl7__eu__lab__report\"><tr><th>Test</th><th>24-May-2016</th><th>Reference&#xA0;Range</th><th>Unit</th></tr><tr><td>Nitrite [Presence] in Urine by Test strip</td><td>0.0</td><td>0 - 0</td><td></td><td>{presence}</td></tr></table></div>"
        },
        "status": "final",
        "subject": {
          "reference": "urn:uuid:83b0c05c-5d03-4fa3-a6cf-733de449d47b",
          "display": "Iva Kratochvílová"
        },
        "effectiveDateTime": "2016-05-23T22:55:53Z",
        "specimen": {
          "reference": "urn:uuid:accaaf07-a71e-491b-858a-530f36cdf973"
        }
      }
    },
    {
      "fullUrl": "urn:uuid:36394112-0412-4c28-a422-55d7635b8d05",
      "resource": {
        "resourceType": "Observation",
        "id": "36394112-0412-4c28-a422-55d7635b8d05",
        "meta": {
          "profile": [
            "http://hl7.eu/fhir/laboratory/StructureDefinition/Observation-resultslab-eu-lab"
          ]
        },
        "performer": [
          {
            "display": "The Central European Lab"
          }
        ],
        "category": [
          {
            "coding": [
              {
                "system": "http://terminology.hl7.org/CodeSystem/observation-category",
                "code": "laboratory"
              }
            ]
          }
        ],
        "code": {
          "coding": [
            {
              "code": "5794-3",
              "system": "http://loinc.org",
              "display": "Hemoglobin [Presence] in Urine by Test strip"
            }
          ],
          "text": "Hemoglobin [Presence] in Urine by Test strip"
        },
        "valueQuantity": {
          "system": "http://unitsofmeasure.org",
          "value": 0,
          "unit": "{presence}",
          "code": "{presence}"
        },
        "referenceRange": [
          {
            "low": {
              "value": 0,
              "code": "Presence",
              "system": "http://unitsofmeasure.org"
            }
          },
          {
            "high": {
              "value": 0,
              "code": "Presence",
              "system": "http://unitsofmeasure.org"
            }
          }
        ],
        "text": {
          "status": "generated",
          "div": "<div xmlns=\"http://www.w3.org/1999/xhtml\"><table class=\"hl7__eu__lab__report\"><tr><th>Test</th><th>24-May-2016</th><th>Reference&#xA0;Range</th><th>Unit</th></tr><tr><td>Hemoglobin [Presence] in Urine by Test strip</td><td>0.0</td><td>0 - 0</td><td></td><td>{presence}</td></tr></table></div>"
        },
        "status": "final",
        "subject": {
          "reference": "urn:uuid:83b0c05c-5d03-4fa3-a6cf-733de449d47b",
          "display": "Iva Kratochvílová"
        },
        "effectiveDateTime": "2016-05-23T22:55:53Z",
        "specimen": {
          "reference": "urn:uuid:accaaf07-a71e-491b-858a-530f36cdf973"
        }
      }
    },
    {
      "fullUrl": "urn:uuid:2e454f7f-2571-420b-a765-ddd5b24dad6d",
      "resource": {
        "resourceType": "Observation",
        "id": "2e454f7f-2571-420b-a765-ddd5b24dad6d",
        "meta": {
          "profile": [
            "http://hl7.eu/fhir/laboratory/StructureDefinition/Observation-resultslab-eu-lab"
          ]
        },
        "performer": [
          {
            "display": "The Central European Lab"
          }
        ],
        "category": [
          {
            "coding": [
              {
                "system": "http://terminology.hl7.org/CodeSystem/observation-category",
                "code": "laboratory"
              }
            ]
          }
        ],
        "code": {
          "coding": [
            {
              "code": "5799-2",
              "system": "http://loinc.org",
              "display": "Leukocyte esterase [Presence] in Urine by Test strip"
            }
          ],
          "text": "Leukocyte esterase [Presence] in Urine by Test strip"
        },
        "valueQuantity": {
          "system": "http://unitsofmeasure.org",
          "value": 0,
          "unit": "{presence}",
          "code": "{presence}"
        },
        "referenceRange": [
          {
            "low": {
              "value": 0,
              "code": "Presence",
              "system": "http://unitsofmeasure.org"
            }
          },
          {
            "high": {
              "value": 0,
              "code": "Presence",
              "system": "http://unitsofmeasure.org"
            }
          }
        ],
        "text": {
          "status": "generated",
          "div": "<div xmlns=\"http://www.w3.org/1999/xhtml\"><table class=\"hl7__eu__lab__report\"><tr><th>Test</th><th>24-May-2016</th><th>Reference&#xA0;Range</th><th>Unit</th></tr><tr><td>Leukocyte esterase [Presence] in Urine by Test strip</td><td>0.0</td><td>0 - 0</td><td></td><td>{presence}</td></tr></table></div>"
        },
        "status": "final",
        "subject": {
          "reference": "urn:uuid:83b0c05c-5d03-4fa3-a6cf-733de449d47b",
          "display": "Iva Kratochvílová"
        },
        "effectiveDateTime": "2016-05-23T22:55:53Z",
        "specimen": {
          "reference": "urn:uuid:accaaf07-a71e-491b-858a-530f36cdf973"
        }
      }
    },
    {
      "fullUrl": "urn:uuid:e3d04813-c96f-4ea5-88f8-df9e49360788",
      "resource": {
        "resourceType": "Device",
        "id": "e3d04813-c96f-4ea5-88f8-df9e49360788",
        "deviceName": [
          {
            "name": "SYNDERAI Synthetic Generator",
            "type": "manufacturer-name"
          }
        ],
        "version": [
          {
            "value": "5.0"
          }
        ],
        "text": {
          "status": "generated",
          "div": "<div xmlns=\"http://www.w3.org/1999/xhtml\">SYNDERAI Synthetic Generator v5.0</div>"
        },
        "status": "active\"",
        "distinctIdentifier": "synderai-generator-50",
        "manufacturer": "SYNDERAI Project"
      }
    },
    {
      "fullUrl": "urn:uuid:ec4f30c1-2619-4c71-8b03-68c922024b41",
      "resource": {
        "resourceType": "Provenance",
        "id": "ec4f30c1-2619-4c71-8b03-68c922024b41",
        "target": [
          {
            "reference": "Patient/83b0c05c-5d03-4fa3-a6cf-733de449d47b"
          },
          {
            "reference": "Bundle/c67d208e-6450-4f1c-8016-3a5cdf583adf"
          },
          {
            "reference": "Composition/bfe07a80-5fa5-495f-bebe-835d13cb604b"
          },
          {
            "reference": "PractitionerRole/62485c91-cf22-400e-9a3c-ce465a62b85d"
          },
          {
            "reference": "Practitioner/4b47cc34-f22f-40e5-be0b-f9d099ff3466"
          },
          {
            "reference": "PractitionerRole/1a4c0dc2-2f5a-43f0-bff5-448cd654546f"
          },
          {
            "reference": "Organization/b595b898-c289-4822-bd2f-9063d7995083"
          }
        ],
        "activity": {
          "text": "Synthetic Example Data Generation"
        },
        "policy": [
          "https://synderai.net/synderai-synthetic-data-policy"
        ],
        "agent": [
          {
            "type": {
              "text": "author"
            },
            "who": {
              "reference": "Device/e3d04813-c96f-4ea5-88f8-df9e49360788"
            }
          }
        ],
        "reason": [
          {
            "text": "Interoperability Testing and Training (non-clinical use)"
          }
        ],
        "text": {
          "status": "generated",
          "div": "<div xmlns=\"http://www.w3.org/1999/xhtml\">Provenance for SYNDERAI Synthetic Example Data Resource</div>"
        },
        "recorded": "2016-05-24T00:55:53Z"
      }
    },
    {
      "fullUrl": "urn:uuid:62485c91-cf22-400e-9a3c-ce465a62b85d",
      "resource": {
        "resourceType": "PractitionerRole",
        "id": "62485c91-cf22-400e-9a3c-ce465a62b85d",
        "meta": {
          "profile": [
            "http://hl7.eu/fhir/base/StructureDefinition/practitionerRole-eu"
          ]
        },
        "text": {
          "status": "generated",
          "div": "<div xmlns=\"http://www.w3.org/1999/xhtml\">Laboratory Role Id: 62485c91-cf22-400e-9a3c-ce465a62b85d</div>"
        },
        "practitioner": {
          "reference": "urn:uuid:4b47cc34-f22f-40e5-be0b-f9d099ff3466"
        }
      }
    },
    {
      "fullUrl": "urn:uuid:4b47cc34-f22f-40e5-be0b-f9d099ff3466",
      "resource": {
        "resourceType": "Practitioner",
        "id": "4b47cc34-f22f-40e5-be0b-f9d099ff3466",
        "meta": {
          "profile": [
            "http://hl7.eu/fhir/base/StructureDefinition/practitioner-eu"
          ]
        },
        "identifier": [
          {
            "assigner": {
              "display": "HL7 Europe"
            },
            "system": "urn:oid:2.16.840.1.113883.2.51.999",
            "value": "38ef18c6-9562-4f6d-96e7-62ae0ec50f70"
          }
        ],
        "name": [
          {
            "prefix": [
              "dr"
            ],
            "given": [
              "Ex"
            ],
            "family": "Ample"
          }
        ],
        "address": [
          {
            "line": [
              "Laboratoire Central Européenne",
              "Boulevard du Jardin Botanique 32"
            ],
            "postalCode": "1000",
            "city": "Brussels",
            "country": "Belgium"
          }
        ],
        "text": {
          "status": "generated",
          "div": "<div xmlns=\"http://www.w3.org/1999/xhtml\">Laboratory: Laboratoire Central Européenne, 1000 Brussels, Belgium</div>"
        }
      }
    }
  ],
  "type": "document",
  "timestamp": "2016-05-24T00:55:53Z"
}
