{
  "resourceType": "Bundle",
  "id": "4ce1cdc3-6096-40c0-9762-dae67c39f629",
  "meta": {
    "profile": [
      "http://hl7.eu/fhir/laboratory/StructureDefinition/Bundle-eu-lab"
    ]
  },
  "identifier": {
    "assigner": {
      "display": "HL7 Europe"
    },
    "system": "urn:oid:2.16.840.1.113883.2.51.999",
    "value": "a53d7cdd-e080-4d01-9d2a-5d5ee3caa27c"
  },
  "entry": [
    {
      "fullUrl": "urn:uuid:334fbc60-d0a8-48e7-bb2f-4352ca6c8a50",
      "resource": {
        "resourceType": "Composition",
        "id": "334fbc60-d0a8-48e7-bb2f-4352ca6c8a50",
        "meta": {
          "profile": [
            "http://hl7.eu/fhir/laboratory/StructureDefinition/Composition-eu-lab"
          ]
        },
        "identifier": {
          "assigner": {
            "display": "HL7 Europe"
          },
          "system": "urn:oid:2.16.840.1.113883.2.51.999",
          "value": "b219fccd-9a8d-40f8-bb4b-899038f3adaf"
        },
        "author": [
          {
            "reference": "urn:uuid:1422b8c0-755b-4a28-b20e-2b244bba9788"
          }
        ],
        "category": [
          {
            "coding": [
              {
                "code": "26436-6",
                "system": "http://loinc.org",
                "display": "Laboratory studies (set)"
              }
            ]
          }
        ],
        "type": {
          "coding": [
            {
              "code": "11502-2",
              "system": "http://loinc.org",
              "display": "Laboratory report"
            }
          ],
          "text": "Laboratory Report"
        },
        "section": [
          {
            "code": {
              "coding": [
                {
                  "code": "26436-6",
                  "system": "http://loinc.org",
                  "display": "Laboratory studies (set)"
                }
              ],
              "text": "Laboratory studies"
            },
            "section": [
              {
                "code": {
                  "coding": [
                    {
                      "code": "$18723-7",
                      "system": "http://loinc.org",
                      "display": "Hematology studies (set)"
                    }
                  ],
                  "text": "Hematology"
                },
                "entry": [
                  {
                    "reference": "urn:uuid:bf6c9d5f-a215-4880-9a57-0fd8c286f86a"
                  },
                  {
                    "reference": "urn:uuid:d77cd9d4-dd20-4ae4-8d68-7e5155dcec55"
                  },
                  {
                    "reference": "urn:uuid:28b1e4a8-fc30-4e2b-b92f-665c93e4e6c3"
                  },
                  {
                    "reference": "urn:uuid:623f6df3-4dbd-4dbd-9e11-d2e451b62b9b"
                  },
                  {
                    "reference": "urn:uuid:f92e0ce2-7b93-4399-b043-c2907e567ee9"
                  },
                  {
                    "reference": "urn:uuid:e9cf02f1-e92b-442d-b972-18d4e48e8a39"
                  },
                  {
                    "reference": "urn:uuid:afec79b6-546d-460d-900f-9c666a3bb142"
                  },
                  {
                    "reference": "urn:uuid:c16442f6-6eca-4766-aba3-444886d97fa4"
                  },
                  {
                    "reference": "urn:uuid:8377816a-d7c7-44d8-8ae7-d7cf27130126"
                  },
                  {
                    "reference": "urn:uuid:57c8e8a0-937a-4fef-8571-95ba3f5c5256"
                  },
                  {
                    "reference": "urn:uuid:c2996509-ee03-4891-b2ea-e62603ba15d7"
                  }
                ],
                "text": {
                  "status": "generated",
                  "div": "<div xmlns=\"http://www.w3.org/1999/xhtml\"><h3>Hematology</h3><table class=\"hl7__eu__lab__report\"><thead><tr><th>Test</th><th>03-FEB-2022</th><th>Reference&#xA0;Range</th><th>Unit</th></tr></thead><tbody><tr><td>Leukocytes [#/volume] in Blood by Automated count</td><td>5.2</td><td>3.4 - 10.6</td><td>10*3/uL</td></tr><tr><td>Erythrocytes [#/volume] in Blood by Automated count</td><td><strong>4.1 L</strong></td><td>4.5 - 6.2</td><td>10*6/uL</td></tr><tr><td>Hemoglobin [Mass/volume] in Blood</td><td><strong>12.1 L</strong></td><td>13.5 - 17.5</td><td>g/dL</td></tr><tr><td>Hematocrit [Volume Fraction] of Blood by Automated count</td><td>48.0</td><td>38 - 50</td><td>%</td></tr><tr><td>MCV [Entitic volume] by Automated count</td><td>85.9</td><td>82 - 98</td><td>fL</td></tr><tr><td>MCH [Entitic mass] by Automated count</td><td>27.3</td><td>27 - 35</td><td>pg</td></tr><tr><td>MCHC [Mass/volume] by Automated count</td><td>33.1</td><td>31 - 37</td><td>g/dL</td></tr><tr><td>Erythrocyte distribution width [Entitic volume] by Automated count</td><td>43.1</td><td>39 - 55</td><td>fL</td></tr><tr><td>Platelets [#/volume] in Blood by Automated count</td><td>358.9</td><td>150 - 450</td><td>10*3/uL</td></tr><tr><td>Platelet distribution width [Entitic volume] in Blood by Automated count</td><td><strong>180.6 H</strong></td><td>9.7 - 17.4</td><td>fL</td></tr><tr><td>Platelet mean volume [Entitic volume] in Blood by Automated count</td><td>10.6</td><td>9.7 - 13.5</td><td>fL</td></tr></tbody></table></div>"
                },
                "title": "Hematology"
              },
              {
                "code": {
                  "coding": [
                    {
                      "code": "$18719-5",
                      "system": "http://loinc.org",
                      "display": "Chemistry studies (set)"
                    }
                  ],
                  "text": "Chemistry"
                },
                "entry": [
                  {
                    "reference": "urn:uuid:d7fb048f-6d7b-4547-9199-07515e50b711"
                  },
                  {
                    "reference": "urn:uuid:366abae9-71ad-4f21-9505-863b320eefcb"
                  },
                  {
                    "reference": "urn:uuid:5c4cceff-e2ce-43a1-8886-9cf67f53c92b"
                  },
                  {
                    "reference": "urn:uuid:6ec03d4c-a7e5-4138-b195-49ef89e4c570"
                  },
                  {
                    "reference": "urn:uuid:5aa69012-9df2-4010-a256-38c218fb485e"
                  },
                  {
                    "reference": "urn:uuid:ca8b590b-5a26-4d82-bab1-269cdf90604b"
                  },
                  {
                    "reference": "urn:uuid:b4c455df-99ab-45af-b6cd-0fd145ece446"
                  },
                  {
                    "reference": "urn:uuid:39d9f97b-fb08-440a-8e2f-61f07fa2931d"
                  },
                  {
                    "reference": "urn:uuid:34ed3032-99b2-4119-8c06-587a64f5444f"
                  }
                ],
                "text": {
                  "status": "generated",
                  "div": "<div xmlns=\"http://www.w3.org/1999/xhtml\"><h3>Chemistry</h3><table class=\"hl7__eu__lab__report\"><thead><tr><th>Test</th><th>03-FEB-2022</th><th>Reference&#xA0;Range</th><th>Unit</th></tr></thead><tbody><tr><td>Hemoglobin A1c/Hemoglobin.total in Blood</td><td>6.1</td><td>4.5 - 6.4</td><td>%</td></tr><tr><td>Glucose [Mass/volume] in Blood</td><td><strong>69.8 L</strong></td><td>70 - 99</td><td>mg/dL</td></tr><tr><td>Urea nitrogen [Mass/volume] in Blood</td><td>13.6</td><td>7 - 20</td><td>mg/dL</td></tr><tr><td>Creatinine [Mass/volume] in Blood</td><td>1.0</td><td>0.7 - 1.3</td><td>mg/dL</td></tr><tr><td>Calcium [Mass/volume] in Blood</td><td>10.0</td><td>8.5 - 10.5</td><td>mg/dL</td></tr><tr><td>Sodium [Moles/volume] in Blood</td><td>136.6</td><td>135 - 145</td><td>mmol/L</td></tr><tr><td>Potassium [Moles/volume] in Blood</td><td>4.2</td><td>3.5 - 5.3</td><td>mmol/L</td></tr><tr><td>Chloride [Moles/volume] in Blood</td><td>109.1</td><td>98 - 110</td><td>mmol/L</td></tr><tr><td>Carbon dioxide, total [Moles/volume] in Blood</td><td>25.5</td><td>22 - 29</td><td>mmol/L</td></tr></tbody></table></div>"
                },
                "title": "Chemistry"
              }
            ],
            "title": "Laboratory Report"
          },
          {
            "text": {
              "status": "generated",
              "div": "<div xmlns=\"http://www.w3.org/1999/xhtml\"><h3>Annotation</h3><table class=\"hl7__eu__lab__report\"><tr><th>Conclusion and Recommendations based on this report and previous findings known to us</th></tr><tr><td>The patient shows mild anemia (low hemoglobin and erythrocyte count) with normal MCV and MCH, suggesting normocytic, normochromic anemia. Glucose is slightly below normal, but HbA1c is within target, indicating overall good glycemic control. Platelet count is normal, but platelet distribution width is elevated, possibly reflecting increased platelet size variability. Renal and electrolyte parameters are within normal limits. No acute abnormalities detected; recommend clinical correlation for anemia.</td></tr></table></div>"
            },
            "code": {
              "coding": [
                {
                  "system": "http://loinc.org",
                  "code": "48767-8",
                  "display": "Annotation comment"
                }
              ]
            },
            "title": "Annotation comment"
          }
        ],
        "status": "final",
        "subject": {
          "reference": "urn:uuid:fbaad3fc-cbd1-49a4-95ac-b0585ad0e471",
          "display": "Alfred Rémy"
        },
        "date": "2022-02-03T07:54:36Z",
        "title": "Laboratory Report",
        "confidentiality": "N"
      }
    },
    {
      "fullUrl": "urn:uuid:cc4f1c4f-04e6-40a6-a55c-f9d1f3e1d32c",
      "resource": {
        "resourceType": "DiagnosticReport",
        "id": "cc4f1c4f-04e6-40a6-a55c-f9d1f3e1d32c",
        "meta": {
          "profile": [
            "http://hl7.eu/fhir/laboratory/StructureDefinition/DiagnosticReport-eu-lab"
          ]
        },
        "identifier": [
          {
            "assigner": {
              "display": "HL7 Europe"
            },
            "system": "urn:oid:2.16.840.1.113883.2.51.999",
            "value": "9744f3f8-d5a5-4e1a-a78e-4e30455b5ffc"
          }
        ],
        "extension": [
          {
            "url": "http://hl7.org/fhir/5.0/StructureDefinition/extension-DiagnosticReport.composition",
            "valueReference": {
              "reference": "urn:uuid:b219fccd-9a8d-40f8-bb4b-899038f3adaf"
            }
          }
        ],
        "category": [
          {
            "coding": [
              {
                "code": "26436-6",
                "system": "http://loinc.org",
                "display": "Laboratory studies (set)"
              }
            ]
          }
        ],
        "specimen": [
          {
            "reference": "urn:uuid:d3fb9153-503b-44db-9a27-1c60526b92c2"
          },
          {
            "reference": "urn:uuid:d3fb9153-503b-44db-9a27-1c60526b92c2"
          }
        ],
        "result": [
          {
            "reference": "urn:uuid:d7fb048f-6d7b-4547-9199-07515e50b711"
          },
          {
            "reference": "urn:uuid:366abae9-71ad-4f21-9505-863b320eefcb"
          },
          {
            "reference": "urn:uuid:5c4cceff-e2ce-43a1-8886-9cf67f53c92b"
          },
          {
            "reference": "urn:uuid:6ec03d4c-a7e5-4138-b195-49ef89e4c570"
          },
          {
            "reference": "urn:uuid:5aa69012-9df2-4010-a256-38c218fb485e"
          },
          {
            "reference": "urn:uuid:ca8b590b-5a26-4d82-bab1-269cdf90604b"
          },
          {
            "reference": "urn:uuid:b4c455df-99ab-45af-b6cd-0fd145ece446"
          },
          {
            "reference": "urn:uuid:39d9f97b-fb08-440a-8e2f-61f07fa2931d"
          },
          {
            "reference": "urn:uuid:34ed3032-99b2-4119-8c06-587a64f5444f"
          },
          {
            "reference": "urn:uuid:bf6c9d5f-a215-4880-9a57-0fd8c286f86a"
          },
          {
            "reference": "urn:uuid:d77cd9d4-dd20-4ae4-8d68-7e5155dcec55"
          },
          {
            "reference": "urn:uuid:28b1e4a8-fc30-4e2b-b92f-665c93e4e6c3"
          },
          {
            "reference": "urn:uuid:623f6df3-4dbd-4dbd-9e11-d2e451b62b9b"
          },
          {
            "reference": "urn:uuid:f92e0ce2-7b93-4399-b043-c2907e567ee9"
          },
          {
            "reference": "urn:uuid:e9cf02f1-e92b-442d-b972-18d4e48e8a39"
          },
          {
            "reference": "urn:uuid:afec79b6-546d-460d-900f-9c666a3bb142"
          },
          {
            "reference": "urn:uuid:c16442f6-6eca-4766-aba3-444886d97fa4"
          },
          {
            "reference": "urn:uuid:8377816a-d7c7-44d8-8ae7-d7cf27130126"
          },
          {
            "reference": "urn:uuid:57c8e8a0-937a-4fef-8571-95ba3f5c5256"
          },
          {
            "reference": "urn:uuid:c2996509-ee03-4891-b2ea-e62603ba15d7"
          }
        ],
        "status": "registered",
        "code": {
          "coding": [
            {
              "code": "11502-2",
              "system": "http://loinc.org",
              "display": "Laboratory report"
            }
          ]
        },
        "subject": {
          "reference": "urn:uuid:fbaad3fc-cbd1-49a4-95ac-b0585ad0e471",
          "display": "Alfred Rémy"
        }
      }
    },
    {
      "fullUrl": "urn:uuid:fbaad3fc-cbd1-49a4-95ac-b0585ad0e471",
      "resource": {
        "resourceType": "Patient",
        "id": "fbaad3fc-cbd1-49a4-95ac-b0585ad0e471",
        "meta": {
          "security": [
            {
              "system": "http://terminology.hl7.org/CodeSystem/v3-ActReason",
              "code": "HTEST"
            },
            {
              "system": "http://terminology.hl7.org/CodeSystem/v3-ActReason",
              "code": "TRAIN"
            }
          ],
          "tag": [
            {
              "system": "https://synderai.net/fhir/CodeSystem/tags",
              "code": "synthetic",
              "display": "SYNDERAI Synthetic data"
            }
          ],
          "profile": [
            "http://hl7.eu/fhir/base/StructureDefinition/patient-eu-core"
          ]
        },
        "identifier": [
          {
            "type": {
              "coding": [
                {
                  "code": "PT",
                  "system": "http://terminology.hl7.org/CodeSystem/v2-0203"
                }
              ]
            },
            "system": "http://ec.europa.eu/identifier/eci",
            "value": "9962-084919-2"
          },
          {
            "type": {
              "coding": [
                {
                  "code": "MR",
                  "system": "http://terminology.hl7.org/CodeSystem/v2-0203"
                }
              ]
            },
            "system": "http://local.setting.eu/identifier",
            "value": "cc3b7d7f-bed4-5811-99b9-3468e2f4203c"
          }
        ],
        "name": [
          {
            "family": "Rémy"
          },
          {
            "given": [
              "Alfred"
            ]
          },
          {
            "text": "Alfred Rémy"
          }
        ],
        "address": [
          {
            "line": [
              "88, rue de Jacquot"
            ],
            "use": "home",
            "type": "physical",
            "postalCode": "75018",
            "city": "Paris",
            "country": "France"
          }
        ],
        "telecom": [
          {
            "system": "phone",
            "value": "+33 (0)4 73 74 17 67"
          }
        ],
        "extension": [
          {
            "url": "http://hl7.org/fhir/StructureDefinition/patient-nationality",
            "valueCodeableConcept": {
              "coding": [
                {
                  "code": "FR",
                  "system": "http://hl7.org/fhir/ValueSet/country"
                }
              ]
            }
          }
        ],
        "text": {
          "status": "generated",
          "div": "<div xmlns=\"http://www.w3.org/1999/xhtml\"><table class=\"hl7__ips\"><tr><td>Alfred Rémy</td><td>male</td><td>05-Jul-1967</td></tr></table></div>"
        },
        "gender": "male",
        "birthDate": "1967-07-05"
      }
    },
    {
      "fullUrl": "urn:uuid:e0437769-73d2-4665-bed8-1aae93805ae2",
      "resource": {
        "resourceType": "ServiceRequest",
        "id": "e0437769-73d2-4665-bed8-1aae93805ae2",
        "meta": {
          "profile": [
            "http://hl7.eu/fhir/laboratory/StructureDefinition/ServiceRequest-eu-lab"
          ]
        },
        "identifier": [
          {
            "system": "http://example.org",
            "value": "6f4335bf-47da-452e-8b99-7ebfdc440a90"
          }
        ],
        "specimen": [
          {
            "reference": "urn:uuid:d3fb9153-503b-44db-9a27-1c60526b92c2"
          }
        ],
        "reasonCode": [
          {
            "coding": [
              {
                "code": "271737000",
                "system": "http://snomed.info/sct",
                "display": "Anemia"
              }
            ]
          },
          {
            "coding": [
              {
                "code": "15777000",
                "system": "http://snomed.info/sct",
                "display": "Prediabetes"
              }
            ]
          }
        ],
        "status": "active",
        "intent": "order",
        "code": {
          "coding": [
            {
              "code": "108252007",
              "system": "http://snomed.info/sct",
              "display": "Laboratory procedure"
            }
          ]
        },
        "subject": {
          "reference": "urn:uuid:fbaad3fc-cbd1-49a4-95ac-b0585ad0e471",
          "display": "Alfred Rémy"
        },
        "requester": {
          "reference": "urn:uuid:fb580981-6e57-45c3-bc7a-d131d2fbbc07"
        }
      }
    },
    {
      "fullUrl": "urn:uuid:fb580981-6e57-45c3-bc7a-d131d2fbbc07",
      "resource": {
        "resourceType": "PractitionerRole",
        "id": "fb580981-6e57-45c3-bc7a-d131d2fbbc07",
        "meta": {
          "profile": [
            "http://hl7.eu/fhir/base/StructureDefinition/practitionerRole-eu"
          ]
        },
        "text": {
          "status": "generated",
          "div": "<div xmlns=\"http://www.w3.org/1999/xhtml\">Provider Role Id: fb580981-6e57-45c3-bc7a-d131d2fbbc07</div>"
        },
        "organization": {
          "reference": "urn:uuid:f37c9feb-f9e9-4b54-a418-e8cbe456d249"
        }
      }
    },
    {
      "fullUrl": "urn:uuid:f37c9feb-f9e9-4b54-a418-e8cbe456d249",
      "resource": {
        "resourceType": "Organization",
        "id": "f37c9feb-f9e9-4b54-a418-e8cbe456d249",
        "meta": {
          "profile": [
            "http://hl7.eu/fhir/base/StructureDefinition/organization-eu"
          ]
        },
        "identifier": [
          {
            "assigner": {
              "display": "HL7 Europe"
            },
            "system": "urn:oid:2.16.840.1.113883.2.51.999",
            "value": "41e6392a-b826-4566-a796-d43a4499bca8"
          }
        ],
        "address": [
          {
            "city": "Paris",
            "postalCode": "75005",
            "country": "France"
          }
        ],
        "text": {
          "status": "generated",
          "div": "<div xmlns=\"http://www.w3.org/1999/xhtml\">Provider Organization: Maison des parents Irène Joliot-Curie</div>"
        },
        "name": "Maison des parents Irène Joliot-Curie"
      }
    },
    {
      "fullUrl": "urn:uuid:d3fb9153-503b-44db-9a27-1c60526b92c2",
      "resource": {
        "resourceType": "Specimen",
        "id": "d3fb9153-503b-44db-9a27-1c60526b92c2",
        "meta": {
          "profile": [
            "http://hl7.eu/fhir/laboratory/StructureDefinition/Specimen-eu-lab"
          ]
        },
        "collection": {
          "collectedDateTime": "2022-02-03"
        },
        "text": {
          "status": "generated",
          "div": "<div xmlns=\"http://www.w3.org/1999/xhtml\"><table class=\"hl7__eu__lab__report\"><tr><th>Specimen</th><th>Collection Date</th></tr><tr><td>Whole blood specimen (specimen)</td><td><span class=\"nb\">03-Feb-2022</span></td></tr></table></div>"
        },
        "type": {
          "coding": [
            {
              "code": "258580003",
              "system": "http://snomed.info/sct",
              "display": "Whole blood specimen (specimen)"
            }
          ]
        }
      }
    },
    {
      "fullUrl": "urn:uuid:d3fb9153-503b-44db-9a27-1c60526b92c2",
      "resource": {
        "resourceType": "Specimen",
        "id": "d3fb9153-503b-44db-9a27-1c60526b92c2",
        "meta": {
          "profile": [
            "http://hl7.eu/fhir/laboratory/StructureDefinition/Specimen-eu-lab"
          ]
        },
        "collection": {
          "collectedDateTime": "2022-02-03"
        },
        "text": {
          "status": "generated",
          "div": "<div xmlns=\"http://www.w3.org/1999/xhtml\"><table class=\"hl7__eu__lab__report\"><tr><th>Specimen</th><th>Collection Date</th></tr><tr><td>Whole blood specimen (specimen)</td><td><span class=\"nb\">03-Feb-2022</span></td></tr></table></div>"
        },
        "type": {
          "coding": [
            {
              "code": "258580003",
              "system": "http://snomed.info/sct",
              "display": "Whole blood specimen (specimen)"
            }
          ]
        }
      }
    },
    {
      "fullUrl": "urn:uuid:d7fb048f-6d7b-4547-9199-07515e50b711",
      "resource": {
        "resourceType": "Observation",
        "id": "d7fb048f-6d7b-4547-9199-07515e50b711",
        "meta": {
          "profile": [
            "http://hl7.eu/fhir/laboratory/StructureDefinition/Observation-resultslab-eu-lab"
          ]
        },
        "performer": [
          {
            "display": "The Central European Lab"
          }
        ],
        "category": [
          {
            "coding": [
              {
                "system": "http://terminology.hl7.org/CodeSystem/observation-category",
                "code": "laboratory"
              }
            ]
          }
        ],
        "code": {
          "coding": [
            {
              "code": "4548-4",
              "system": "http://loinc.org",
              "display": "Hemoglobin A1c/Hemoglobin.total in Blood"
            }
          ],
          "text": "Hemoglobin A1c/Hemoglobin.total in Blood"
        },
        "valueQuantity": {
          "system": "http://unitsofmeasure.org",
          "value": 6.1,
          "unit": "%",
          "code": "%"
        },
        "referenceRange": [
          {
            "low": {
              "value": 4.5,
              "code": "%",
              "system": "http://unitsofmeasure.org"
            }
          },
          {
            "high": {
              "value": 6.4,
              "code": "%",
              "system": "http://unitsofmeasure.org"
            }
          }
        ],
        "text": {
          "status": "generated",
          "div": "<div xmlns=\"http://www.w3.org/1999/xhtml\"><table class=\"hl7__eu__lab__report\"><tr><th>Test</th><th>03-Feb-2022</th><th>Reference&#xA0;Range</th><th>Unit</th></tr><tr><td>Hemoglobin A1c/Hemoglobin.total in Blood</td><td>6.1</td><td>4.5 - 6.4</td><td></td><td>%</td></tr></table></div>"
        },
        "status": "final",
        "subject": {
          "reference": "urn:uuid:fbaad3fc-cbd1-49a4-95ac-b0585ad0e471",
          "display": "Alfred Rémy"
        },
        "effectiveDateTime": "2022-02-03T06:54:36Z",
        "specimen": {
          "reference": "urn:uuid:d3fb9153-503b-44db-9a27-1c60526b92c2"
        }
      }
    },
    {
      "fullUrl": "urn:uuid:366abae9-71ad-4f21-9505-863b320eefcb",
      "resource": {
        "resourceType": "Observation",
        "id": "366abae9-71ad-4f21-9505-863b320eefcb",
        "meta": {
          "profile": [
            "http://hl7.eu/fhir/laboratory/StructureDefinition/Observation-resultslab-eu-lab"
          ]
        },
        "performer": [
          {
            "display": "The Central European Lab"
          }
        ],
        "category": [
          {
            "coding": [
              {
                "system": "http://terminology.hl7.org/CodeSystem/observation-category",
                "code": "laboratory"
              }
            ]
          }
        ],
        "code": {
          "coding": [
            {
              "code": "2339-0",
              "system": "http://loinc.org",
              "display": "Glucose [Mass/volume] in Blood"
            }
          ],
          "text": "Glucose [Mass/volume] in Blood"
        },
        "valueQuantity": {
          "system": "http://unitsofmeasure.org",
          "value": 69.8,
          "unit": "mg/dL",
          "code": "mg/dL"
        },
        "referenceRange": [
          {
            "low": {
              "value": 70,
              "code": "mg/dL",
              "system": "http://unitsofmeasure.org"
            }
          },
          {
            "high": {
              "value": 99,
              "code": "mg/dL",
              "system": "http://unitsofmeasure.org"
            }
          }
        ],
        "interpretation": [
          {
            "coding": [
              {
                "code": "L",
                "system": "http://terminology.hl7.org/CodeSystem/v3-ObservationInterpretation",
                "display": "Low"
              }
            ]
          }
        ],
        "text": {
          "status": "generated",
          "div": "<div xmlns=\"http://www.w3.org/1999/xhtml\"><table class=\"hl7__eu__lab__report\"><tr><th>Test</th><th>03-Feb-2022</th><th>Reference&#xA0;Range</th><th>Unit</th></tr><tr><td>Glucose [Mass/volume] in Blood</td><td>69.8</td><td>70 - 99</td><td>L</td><td>mg/dL</td></tr></table></div>"
        },
        "status": "final",
        "subject": {
          "reference": "urn:uuid:fbaad3fc-cbd1-49a4-95ac-b0585ad0e471",
          "display": "Alfred Rémy"
        },
        "effectiveDateTime": "2022-02-03T06:54:36Z",
        "specimen": {
          "reference": "urn:uuid:d3fb9153-503b-44db-9a27-1c60526b92c2"
        }
      }
    },
    {
      "fullUrl": "urn:uuid:5c4cceff-e2ce-43a1-8886-9cf67f53c92b",
      "resource": {
        "resourceType": "Observation",
        "id": "5c4cceff-e2ce-43a1-8886-9cf67f53c92b",
        "meta": {
          "profile": [
            "http://hl7.eu/fhir/laboratory/StructureDefinition/Observation-resultslab-eu-lab"
          ]
        },
        "performer": [
          {
            "display": "The Central European Lab"
          }
        ],
        "category": [
          {
            "coding": [
              {
                "system": "http://terminology.hl7.org/CodeSystem/observation-category",
                "code": "laboratory"
              }
            ]
          }
        ],
        "code": {
          "coding": [
            {
              "code": "6299-2",
              "system": "http://loinc.org",
              "display": "Urea nitrogen [Mass/volume] in Blood"
            }
          ],
          "text": "Urea nitrogen [Mass/volume] in Blood"
        },
        "valueQuantity": {
          "system": "http://unitsofmeasure.org",
          "value": 13.6,
          "unit": "mg/dL",
          "code": "mg/dL"
        },
        "referenceRange": [
          {
            "low": {
              "value": 7,
              "code": "mg/dL",
              "system": "http://unitsofmeasure.org"
            }
          },
          {
            "high": {
              "value": 20,
              "code": "mg/dL",
              "system": "http://unitsofmeasure.org"
            }
          }
        ],
        "text": {
          "status": "generated",
          "div": "<div xmlns=\"http://www.w3.org/1999/xhtml\"><table class=\"hl7__eu__lab__report\"><tr><th>Test</th><th>03-Feb-2022</th><th>Reference&#xA0;Range</th><th>Unit</th></tr><tr><td>Urea nitrogen [Mass/volume] in Blood</td><td>13.6</td><td>7 - 20</td><td></td><td>mg/dL</td></tr></table></div>"
        },
        "status": "final",
        "subject": {
          "reference": "urn:uuid:fbaad3fc-cbd1-49a4-95ac-b0585ad0e471",
          "display": "Alfred Rémy"
        },
        "effectiveDateTime": "2022-02-03T06:54:36Z",
        "specimen": {
          "reference": "urn:uuid:d3fb9153-503b-44db-9a27-1c60526b92c2"
        }
      }
    },
    {
      "fullUrl": "urn:uuid:6ec03d4c-a7e5-4138-b195-49ef89e4c570",
      "resource": {
        "resourceType": "Observation",
        "id": "6ec03d4c-a7e5-4138-b195-49ef89e4c570",
        "meta": {
          "profile": [
            "http://hl7.eu/fhir/laboratory/StructureDefinition/Observation-resultslab-eu-lab"
          ]
        },
        "performer": [
          {
            "display": "The Central European Lab"
          }
        ],
        "category": [
          {
            "coding": [
              {
                "system": "http://terminology.hl7.org/CodeSystem/observation-category",
                "code": "laboratory"
              }
            ]
          }
        ],
        "code": {
          "coding": [
            {
              "code": "38483-4",
              "system": "http://loinc.org",
              "display": "Creatinine [Mass/volume] in Blood"
            }
          ],
          "text": "Creatinine [Mass/volume] in Blood"
        },
        "valueQuantity": {
          "system": "http://unitsofmeasure.org",
          "value": 1,
          "unit": "mg/dL",
          "code": "mg/dL"
        },
        "referenceRange": [
          {
            "low": {
              "value": 0.7,
              "code": "mg/dL",
              "system": "http://unitsofmeasure.org"
            }
          },
          {
            "high": {
              "value": 1.3,
              "code": "mg/dL",
              "system": "http://unitsofmeasure.org"
            }
          }
        ],
        "text": {
          "status": "generated",
          "div": "<div xmlns=\"http://www.w3.org/1999/xhtml\"><table class=\"hl7__eu__lab__report\"><tr><th>Test</th><th>03-Feb-2022</th><th>Reference&#xA0;Range</th><th>Unit</th></tr><tr><td>Creatinine [Mass/volume] in Blood</td><td>1.0</td><td>0.7 - 1.3</td><td></td><td>mg/dL</td></tr></table></div>"
        },
        "status": "final",
        "subject": {
          "reference": "urn:uuid:fbaad3fc-cbd1-49a4-95ac-b0585ad0e471",
          "display": "Alfred Rémy"
        },
        "effectiveDateTime": "2022-02-03T06:54:36Z",
        "specimen": {
          "reference": "urn:uuid:d3fb9153-503b-44db-9a27-1c60526b92c2"
        }
      }
    },
    {
      "fullUrl": "urn:uuid:5aa69012-9df2-4010-a256-38c218fb485e",
      "resource": {
        "resourceType": "Observation",
        "id": "5aa69012-9df2-4010-a256-38c218fb485e",
        "meta": {
          "profile": [
            "http://hl7.eu/fhir/laboratory/StructureDefinition/Observation-resultslab-eu-lab"
          ]
        },
        "performer": [
          {
            "display": "The Central European Lab"
          }
        ],
        "category": [
          {
            "coding": [
              {
                "system": "http://terminology.hl7.org/CodeSystem/observation-category",
                "code": "laboratory"
              }
            ]
          }
        ],
        "code": {
          "coding": [
            {
              "code": "49765-1",
              "system": "http://loinc.org",
              "display": "Calcium [Mass/volume] in Blood"
            }
          ],
          "text": "Calcium [Mass/volume] in Blood"
        },
        "valueQuantity": {
          "system": "http://unitsofmeasure.org",
          "value": 10,
          "unit": "mg/dL",
          "code": "mg/dL"
        },
        "referenceRange": [
          {
            "low": {
              "value": 8.5,
              "code": "mg/dL",
              "system": "http://unitsofmeasure.org"
            }
          },
          {
            "high": {
              "value": 10.5,
              "code": "mg/dL",
              "system": "http://unitsofmeasure.org"
            }
          }
        ],
        "text": {
          "status": "generated",
          "div": "<div xmlns=\"http://www.w3.org/1999/xhtml\"><table class=\"hl7__eu__lab__report\"><tr><th>Test</th><th>03-Feb-2022</th><th>Reference&#xA0;Range</th><th>Unit</th></tr><tr><td>Calcium [Mass/volume] in Blood</td><td>10.0</td><td>8.5 - 10.5</td><td></td><td>mg/dL</td></tr></table></div>"
        },
        "status": "final",
        "subject": {
          "reference": "urn:uuid:fbaad3fc-cbd1-49a4-95ac-b0585ad0e471",
          "display": "Alfred Rémy"
        },
        "effectiveDateTime": "2022-02-03T06:54:36Z",
        "specimen": {
          "reference": "urn:uuid:d3fb9153-503b-44db-9a27-1c60526b92c2"
        }
      }
    },
    {
      "fullUrl": "urn:uuid:ca8b590b-5a26-4d82-bab1-269cdf90604b",
      "resource": {
        "resourceType": "Observation",
        "id": "ca8b590b-5a26-4d82-bab1-269cdf90604b",
        "meta": {
          "profile": [
            "http://hl7.eu/fhir/laboratory/StructureDefinition/Observation-resultslab-eu-lab"
          ]
        },
        "performer": [
          {
            "display": "The Central European Lab"
          }
        ],
        "category": [
          {
            "coding": [
              {
                "system": "http://terminology.hl7.org/CodeSystem/observation-category",
                "code": "laboratory"
              }
            ]
          }
        ],
        "code": {
          "coding": [
            {
              "code": "2947-0",
              "system": "http://loinc.org",
              "display": "Sodium [Moles/volume] in Blood"
            }
          ],
          "text": "Sodium [Moles/volume] in Blood"
        },
        "valueQuantity": {
          "system": "http://unitsofmeasure.org",
          "value": 136.6,
          "unit": "mmol/L",
          "code": "mmol/L"
        },
        "referenceRange": [
          {
            "low": {
              "value": 135,
              "code": "mmol/L",
              "system": "http://unitsofmeasure.org"
            }
          },
          {
            "high": {
              "value": 145,
              "code": "mmol/L",
              "system": "http://unitsofmeasure.org"
            }
          }
        ],
        "text": {
          "status": "generated",
          "div": "<div xmlns=\"http://www.w3.org/1999/xhtml\"><table class=\"hl7__eu__lab__report\"><tr><th>Test</th><th>03-Feb-2022</th><th>Reference&#xA0;Range</th><th>Unit</th></tr><tr><td>Sodium [Moles/volume] in Blood</td><td>136.6</td><td>135 - 145</td><td></td><td>mmol/L</td></tr></table></div>"
        },
        "status": "final",
        "subject": {
          "reference": "urn:uuid:fbaad3fc-cbd1-49a4-95ac-b0585ad0e471",
          "display": "Alfred Rémy"
        },
        "effectiveDateTime": "2022-02-03T06:54:36Z",
        "specimen": {
          "reference": "urn:uuid:d3fb9153-503b-44db-9a27-1c60526b92c2"
        }
      }
    },
    {
      "fullUrl": "urn:uuid:b4c455df-99ab-45af-b6cd-0fd145ece446",
      "resource": {
        "resourceType": "Observation",
        "id": "b4c455df-99ab-45af-b6cd-0fd145ece446",
        "meta": {
          "profile": [
            "http://hl7.eu/fhir/laboratory/StructureDefinition/Observation-resultslab-eu-lab"
          ]
        },
        "performer": [
          {
            "display": "The Central European Lab"
          }
        ],
        "category": [
          {
            "coding": [
              {
                "system": "http://terminology.hl7.org/CodeSystem/observation-category",
                "code": "laboratory"
              }
            ]
          }
        ],
        "code": {
          "coding": [
            {
              "code": "6298-4",
              "system": "http://loinc.org",
              "display": "Potassium [Moles/volume] in Blood"
            }
          ],
          "text": "Potassium [Moles/volume] in Blood"
        },
        "valueQuantity": {
          "system": "http://unitsofmeasure.org",
          "value": 4.2,
          "unit": "mmol/L",
          "code": "mmol/L"
        },
        "referenceRange": [
          {
            "low": {
              "value": 3.5,
              "code": "mmol/L",
              "system": "http://unitsofmeasure.org"
            }
          },
          {
            "high": {
              "value": 5.3,
              "code": "mmol/L",
              "system": "http://unitsofmeasure.org"
            }
          }
        ],
        "text": {
          "status": "generated",
          "div": "<div xmlns=\"http://www.w3.org/1999/xhtml\"><table class=\"hl7__eu__lab__report\"><tr><th>Test</th><th>03-Feb-2022</th><th>Reference&#xA0;Range</th><th>Unit</th></tr><tr><td>Potassium [Moles/volume] in Blood</td><td>4.2</td><td>3.5 - 5.3</td><td></td><td>mmol/L</td></tr></table></div>"
        },
        "status": "final",
        "subject": {
          "reference": "urn:uuid:fbaad3fc-cbd1-49a4-95ac-b0585ad0e471",
          "display": "Alfred Rémy"
        },
        "effectiveDateTime": "2022-02-03T06:54:36Z",
        "specimen": {
          "reference": "urn:uuid:d3fb9153-503b-44db-9a27-1c60526b92c2"
        }
      }
    },
    {
      "fullUrl": "urn:uuid:39d9f97b-fb08-440a-8e2f-61f07fa2931d",
      "resource": {
        "resourceType": "Observation",
        "id": "39d9f97b-fb08-440a-8e2f-61f07fa2931d",
        "meta": {
          "profile": [
            "http://hl7.eu/fhir/laboratory/StructureDefinition/Observation-resultslab-eu-lab"
          ]
        },
        "performer": [
          {
            "display": "The Central European Lab"
          }
        ],
        "category": [
          {
            "coding": [
              {
                "system": "http://terminology.hl7.org/CodeSystem/observation-category",
                "code": "laboratory"
              }
            ]
          }
        ],
        "code": {
          "coding": [
            {
              "code": "2069-3",
              "system": "http://loinc.org",
              "display": "Chloride [Moles/volume] in Blood"
            }
          ],
          "text": "Chloride [Moles/volume] in Blood"
        },
        "valueQuantity": {
          "system": "http://unitsofmeasure.org",
          "value": 109.1,
          "unit": "mmol/L",
          "code": "mmol/L"
        },
        "referenceRange": [
          {
            "low": {
              "value": 98,
              "code": "mmol/L",
              "system": "http://unitsofmeasure.org"
            }
          },
          {
            "high": {
              "value": 110,
              "code": "mmol/L",
              "system": "http://unitsofmeasure.org"
            }
          }
        ],
        "text": {
          "status": "generated",
          "div": "<div xmlns=\"http://www.w3.org/1999/xhtml\"><table class=\"hl7__eu__lab__report\"><tr><th>Test</th><th>03-Feb-2022</th><th>Reference&#xA0;Range</th><th>Unit</th></tr><tr><td>Chloride [Moles/volume] in Blood</td><td>109.1</td><td>98 - 110</td><td></td><td>mmol/L</td></tr></table></div>"
        },
        "status": "final",
        "subject": {
          "reference": "urn:uuid:fbaad3fc-cbd1-49a4-95ac-b0585ad0e471",
          "display": "Alfred Rémy"
        },
        "effectiveDateTime": "2022-02-03T06:54:36Z",
        "specimen": {
          "reference": "urn:uuid:d3fb9153-503b-44db-9a27-1c60526b92c2"
        }
      }
    },
    {
      "fullUrl": "urn:uuid:34ed3032-99b2-4119-8c06-587a64f5444f",
      "resource": {
        "resourceType": "Observation",
        "id": "34ed3032-99b2-4119-8c06-587a64f5444f",
        "meta": {
          "profile": [
            "http://hl7.eu/fhir/laboratory/StructureDefinition/Observation-resultslab-eu-lab"
          ]
        },
        "performer": [
          {
            "display": "The Central European Lab"
          }
        ],
        "category": [
          {
            "coding": [
              {
                "system": "http://terminology.hl7.org/CodeSystem/observation-category",
                "code": "laboratory"
              }
            ]
          }
        ],
        "code": {
          "coding": [
            {
              "code": "20565-8",
              "system": "http://loinc.org",
              "display": "Carbon dioxide, total [Moles/volume] in Blood"
            }
          ],
          "text": "Carbon dioxide, total [Moles/volume] in Blood"
        },
        "valueQuantity": {
          "system": "http://unitsofmeasure.org",
          "value": 25.5,
          "unit": "mmol/L",
          "code": "mmol/L"
        },
        "referenceRange": [
          {
            "low": {
              "value": 22,
              "code": "mmol/L",
              "system": "http://unitsofmeasure.org"
            }
          },
          {
            "high": {
              "value": 29,
              "code": "mmol/L",
              "system": "http://unitsofmeasure.org"
            }
          }
        ],
        "text": {
          "status": "generated",
          "div": "<div xmlns=\"http://www.w3.org/1999/xhtml\"><table class=\"hl7__eu__lab__report\"><tr><th>Test</th><th>03-Feb-2022</th><th>Reference&#xA0;Range</th><th>Unit</th></tr><tr><td>Carbon dioxide, total [Moles/volume] in Blood</td><td>25.5</td><td>22 - 29</td><td></td><td>mmol/L</td></tr></table></div>"
        },
        "status": "final",
        "subject": {
          "reference": "urn:uuid:fbaad3fc-cbd1-49a4-95ac-b0585ad0e471",
          "display": "Alfred Rémy"
        },
        "effectiveDateTime": "2022-02-03T06:54:36Z",
        "specimen": {
          "reference": "urn:uuid:d3fb9153-503b-44db-9a27-1c60526b92c2"
        }
      }
    },
    {
      "fullUrl": "urn:uuid:bf6c9d5f-a215-4880-9a57-0fd8c286f86a",
      "resource": {
        "resourceType": "Observation",
        "id": "bf6c9d5f-a215-4880-9a57-0fd8c286f86a",
        "meta": {
          "profile": [
            "http://hl7.eu/fhir/laboratory/StructureDefinition/Observation-resultslab-eu-lab"
          ]
        },
        "performer": [
          {
            "display": "The Central European Lab"
          }
        ],
        "category": [
          {
            "coding": [
              {
                "system": "http://terminology.hl7.org/CodeSystem/observation-category",
                "code": "laboratory"
              }
            ]
          }
        ],
        "code": {
          "coding": [
            {
              "code": "6690-2",
              "system": "http://loinc.org",
              "display": "Leukocytes [#/volume] in Blood by Automated count"
            }
          ],
          "text": "Leukocytes [#/volume] in Blood by Automated count"
        },
        "valueQuantity": {
          "system": "http://unitsofmeasure.org",
          "value": 5.2,
          "unit": "10*3/uL",
          "code": "10*3/uL"
        },
        "referenceRange": [
          {
            "low": {
              "value": 3.4,
              "code": "10*3/uL",
              "system": "http://unitsofmeasure.org"
            }
          },
          {
            "high": {
              "value": 10.6,
              "code": "10*3/uL",
              "system": "http://unitsofmeasure.org"
            }
          }
        ],
        "text": {
          "status": "generated",
          "div": "<div xmlns=\"http://www.w3.org/1999/xhtml\"><table class=\"hl7__eu__lab__report\"><tr><th>Test</th><th>03-Feb-2022</th><th>Reference&#xA0;Range</th><th>Unit</th></tr><tr><td>Leukocytes [#/volume] in Blood by Automated count</td><td>5.2</td><td>3.4 - 10.6</td><td></td><td>10*3/uL</td></tr></table></div>"
        },
        "status": "final",
        "subject": {
          "reference": "urn:uuid:fbaad3fc-cbd1-49a4-95ac-b0585ad0e471",
          "display": "Alfred Rémy"
        },
        "effectiveDateTime": "2022-02-03T06:54:36Z",
        "specimen": {
          "reference": "urn:uuid:d3fb9153-503b-44db-9a27-1c60526b92c2"
        }
      }
    },
    {
      "fullUrl": "urn:uuid:d77cd9d4-dd20-4ae4-8d68-7e5155dcec55",
      "resource": {
        "resourceType": "Observation",
        "id": "d77cd9d4-dd20-4ae4-8d68-7e5155dcec55",
        "meta": {
          "profile": [
            "http://hl7.eu/fhir/laboratory/StructureDefinition/Observation-resultslab-eu-lab"
          ]
        },
        "performer": [
          {
            "display": "The Central European Lab"
          }
        ],
        "category": [
          {
            "coding": [
              {
                "system": "http://terminology.hl7.org/CodeSystem/observation-category",
                "code": "laboratory"
              }
            ]
          }
        ],
        "code": {
          "coding": [
            {
              "code": "789-8",
              "system": "http://loinc.org",
              "display": "Erythrocytes [#/volume] in Blood by Automated count"
            }
          ],
          "text": "Erythrocytes [#/volume] in Blood by Automated count"
        },
        "valueQuantity": {
          "system": "http://unitsofmeasure.org",
          "value": 4.1,
          "unit": "10*6/uL",
          "code": "10*6/uL"
        },
        "referenceRange": [
          {
            "low": {
              "value": 4.5,
              "code": "10*6/uL",
              "system": "http://unitsofmeasure.org"
            }
          },
          {
            "high": {
              "value": 6.2,
              "code": "10*6/uL",
              "system": "http://unitsofmeasure.org"
            }
          }
        ],
        "interpretation": [
          {
            "coding": [
              {
                "code": "L",
                "system": "http://terminology.hl7.org/CodeSystem/v3-ObservationInterpretation",
                "display": "Low"
              }
            ]
          }
        ],
        "text": {
          "status": "generated",
          "div": "<div xmlns=\"http://www.w3.org/1999/xhtml\"><table class=\"hl7__eu__lab__report\"><tr><th>Test</th><th>03-Feb-2022</th><th>Reference&#xA0;Range</th><th>Unit</th></tr><tr><td>Erythrocytes [#/volume] in Blood by Automated count</td><td>4.1</td><td>4.5 - 6.2</td><td>L</td><td>10*6/uL</td></tr></table></div>"
        },
        "status": "final",
        "subject": {
          "reference": "urn:uuid:fbaad3fc-cbd1-49a4-95ac-b0585ad0e471",
          "display": "Alfred Rémy"
        },
        "effectiveDateTime": "2022-02-03T06:54:36Z",
        "specimen": {
          "reference": "urn:uuid:d3fb9153-503b-44db-9a27-1c60526b92c2"
        }
      }
    },
    {
      "fullUrl": "urn:uuid:28b1e4a8-fc30-4e2b-b92f-665c93e4e6c3",
      "resource": {
        "resourceType": "Observation",
        "id": "28b1e4a8-fc30-4e2b-b92f-665c93e4e6c3",
        "meta": {
          "profile": [
            "http://hl7.eu/fhir/laboratory/StructureDefinition/Observation-resultslab-eu-lab"
          ]
        },
        "performer": [
          {
            "display": "The Central European Lab"
          }
        ],
        "category": [
          {
            "coding": [
              {
                "system": "http://terminology.hl7.org/CodeSystem/observation-category",
                "code": "laboratory"
              }
            ]
          }
        ],
        "code": {
          "coding": [
            {
              "code": "718-7",
              "system": "http://loinc.org",
              "display": "Hemoglobin [Mass/volume] in Blood"
            }
          ],
          "text": "Hemoglobin [Mass/volume] in Blood"
        },
        "valueQuantity": {
          "system": "http://unitsofmeasure.org",
          "value": 12.1,
          "unit": "g/dL",
          "code": "g/dL"
        },
        "referenceRange": [
          {
            "low": {
              "value": 13.5,
              "code": "g/dL",
              "system": "http://unitsofmeasure.org"
            }
          },
          {
            "high": {
              "value": 17.5,
              "code": "g/dL",
              "system": "http://unitsofmeasure.org"
            }
          }
        ],
        "interpretation": [
          {
            "coding": [
              {
                "code": "L",
                "system": "http://terminology.hl7.org/CodeSystem/v3-ObservationInterpretation",
                "display": "Low"
              }
            ]
          }
        ],
        "text": {
          "status": "generated",
          "div": "<div xmlns=\"http://www.w3.org/1999/xhtml\"><table class=\"hl7__eu__lab__report\"><tr><th>Test</th><th>03-Feb-2022</th><th>Reference&#xA0;Range</th><th>Unit</th></tr><tr><td>Hemoglobin [Mass/volume] in Blood</td><td>12.1</td><td>13.5 - 17.5</td><td>L</td><td>g/dL</td></tr></table></div>"
        },
        "status": "final",
        "subject": {
          "reference": "urn:uuid:fbaad3fc-cbd1-49a4-95ac-b0585ad0e471",
          "display": "Alfred Rémy"
        },
        "effectiveDateTime": "2022-02-03T06:54:36Z",
        "specimen": {
          "reference": "urn:uuid:d3fb9153-503b-44db-9a27-1c60526b92c2"
        }
      }
    },
    {
      "fullUrl": "urn:uuid:623f6df3-4dbd-4dbd-9e11-d2e451b62b9b",
      "resource": {
        "resourceType": "Observation",
        "id": "623f6df3-4dbd-4dbd-9e11-d2e451b62b9b",
        "meta": {
          "profile": [
            "http://hl7.eu/fhir/laboratory/StructureDefinition/Observation-resultslab-eu-lab"
          ]
        },
        "performer": [
          {
            "display": "The Central European Lab"
          }
        ],
        "category": [
          {
            "coding": [
              {
                "system": "http://terminology.hl7.org/CodeSystem/observation-category",
                "code": "laboratory"
              }
            ]
          }
        ],
        "code": {
          "coding": [
            {
              "code": "4544-3",
              "system": "http://loinc.org",
              "display": "Hematocrit [Volume Fraction] of Blood by Automated count"
            }
          ],
          "text": "Hematocrit [Volume Fraction] of Blood by Automated count"
        },
        "valueQuantity": {
          "system": "http://unitsofmeasure.org",
          "value": 48,
          "unit": "%",
          "code": "%"
        },
        "referenceRange": [
          {
            "low": {
              "value": 38,
              "code": "%",
              "system": "http://unitsofmeasure.org"
            }
          },
          {
            "high": {
              "value": 50,
              "code": "%",
              "system": "http://unitsofmeasure.org"
            }
          }
        ],
        "text": {
          "status": "generated",
          "div": "<div xmlns=\"http://www.w3.org/1999/xhtml\"><table class=\"hl7__eu__lab__report\"><tr><th>Test</th><th>03-Feb-2022</th><th>Reference&#xA0;Range</th><th>Unit</th></tr><tr><td>Hematocrit [Volume Fraction] of Blood by Automated count</td><td>48.0</td><td>38 - 50</td><td></td><td>%</td></tr></table></div>"
        },
        "status": "final",
        "subject": {
          "reference": "urn:uuid:fbaad3fc-cbd1-49a4-95ac-b0585ad0e471",
          "display": "Alfred Rémy"
        },
        "effectiveDateTime": "2022-02-03T06:54:36Z",
        "specimen": {
          "reference": "urn:uuid:d3fb9153-503b-44db-9a27-1c60526b92c2"
        }
      }
    },
    {
      "fullUrl": "urn:uuid:f92e0ce2-7b93-4399-b043-c2907e567ee9",
      "resource": {
        "resourceType": "Observation",
        "id": "f92e0ce2-7b93-4399-b043-c2907e567ee9",
        "meta": {
          "profile": [
            "http://hl7.eu/fhir/laboratory/StructureDefinition/Observation-resultslab-eu-lab"
          ]
        },
        "performer": [
          {
            "display": "The Central European Lab"
          }
        ],
        "category": [
          {
            "coding": [
              {
                "system": "http://terminology.hl7.org/CodeSystem/observation-category",
                "code": "laboratory"
              }
            ]
          }
        ],
        "code": {
          "coding": [
            {
              "code": "787-2",
              "system": "http://loinc.org",
              "display": "MCV [Entitic volume] by Automated count"
            }
          ],
          "text": "MCV [Entitic volume] by Automated count"
        },
        "valueQuantity": {
          "system": "http://unitsofmeasure.org",
          "value": 85.9,
          "unit": "fL",
          "code": "fL"
        },
        "referenceRange": [
          {
            "low": {
              "value": 82,
              "code": "fL",
              "system": "http://unitsofmeasure.org"
            }
          },
          {
            "high": {
              "value": 98,
              "code": "fL",
              "system": "http://unitsofmeasure.org"
            }
          }
        ],
        "text": {
          "status": "generated",
          "div": "<div xmlns=\"http://www.w3.org/1999/xhtml\"><table class=\"hl7__eu__lab__report\"><tr><th>Test</th><th>03-Feb-2022</th><th>Reference&#xA0;Range</th><th>Unit</th></tr><tr><td>MCV [Entitic volume] by Automated count</td><td>85.9</td><td>82 - 98</td><td></td><td>fL</td></tr></table></div>"
        },
        "status": "final",
        "subject": {
          "reference": "urn:uuid:fbaad3fc-cbd1-49a4-95ac-b0585ad0e471",
          "display": "Alfred Rémy"
        },
        "effectiveDateTime": "2022-02-03T06:54:36Z",
        "specimen": {
          "reference": "urn:uuid:d3fb9153-503b-44db-9a27-1c60526b92c2"
        }
      }
    },
    {
      "fullUrl": "urn:uuid:e9cf02f1-e92b-442d-b972-18d4e48e8a39",
      "resource": {
        "resourceType": "Observation",
        "id": "e9cf02f1-e92b-442d-b972-18d4e48e8a39",
        "meta": {
          "profile": [
            "http://hl7.eu/fhir/laboratory/StructureDefinition/Observation-resultslab-eu-lab"
          ]
        },
        "performer": [
          {
            "display": "The Central European Lab"
          }
        ],
        "category": [
          {
            "coding": [
              {
                "system": "http://terminology.hl7.org/CodeSystem/observation-category",
                "code": "laboratory"
              }
            ]
          }
        ],
        "code": {
          "coding": [
            {
              "code": "785-6",
              "system": "http://loinc.org",
              "display": "MCH [Entitic mass] by Automated count"
            }
          ],
          "text": "MCH [Entitic mass] by Automated count"
        },
        "valueQuantity": {
          "system": "http://unitsofmeasure.org",
          "value": 27.3,
          "unit": "pg",
          "code": "pg"
        },
        "referenceRange": [
          {
            "low": {
              "value": 27,
              "code": "pg",
              "system": "http://unitsofmeasure.org"
            }
          },
          {
            "high": {
              "value": 35,
              "code": "pg",
              "system": "http://unitsofmeasure.org"
            }
          }
        ],
        "text": {
          "status": "generated",
          "div": "<div xmlns=\"http://www.w3.org/1999/xhtml\"><table class=\"hl7__eu__lab__report\"><tr><th>Test</th><th>03-Feb-2022</th><th>Reference&#xA0;Range</th><th>Unit</th></tr><tr><td>MCH [Entitic mass] by Automated count</td><td>27.3</td><td>27 - 35</td><td></td><td>pg</td></tr></table></div>"
        },
        "status": "final",
        "subject": {
          "reference": "urn:uuid:fbaad3fc-cbd1-49a4-95ac-b0585ad0e471",
          "display": "Alfred Rémy"
        },
        "effectiveDateTime": "2022-02-03T06:54:36Z",
        "specimen": {
          "reference": "urn:uuid:d3fb9153-503b-44db-9a27-1c60526b92c2"
        }
      }
    },
    {
      "fullUrl": "urn:uuid:afec79b6-546d-460d-900f-9c666a3bb142",
      "resource": {
        "resourceType": "Observation",
        "id": "afec79b6-546d-460d-900f-9c666a3bb142",
        "meta": {
          "profile": [
            "http://hl7.eu/fhir/laboratory/StructureDefinition/Observation-resultslab-eu-lab"
          ]
        },
        "performer": [
          {
            "display": "The Central European Lab"
          }
        ],
        "category": [
          {
            "coding": [
              {
                "system": "http://terminology.hl7.org/CodeSystem/observation-category",
                "code": "laboratory"
              }
            ]
          }
        ],
        "code": {
          "coding": [
            {
              "code": "786-4",
              "system": "http://loinc.org",
              "display": "MCHC [Mass/volume] by Automated count"
            }
          ],
          "text": "MCHC [Mass/volume] by Automated count"
        },
        "valueQuantity": {
          "system": "http://unitsofmeasure.org",
          "value": 33.1,
          "unit": "g/dL",
          "code": "g/dL"
        },
        "referenceRange": [
          {
            "low": {
              "value": 31,
              "code": "g/dL",
              "system": "http://unitsofmeasure.org"
            }
          },
          {
            "high": {
              "value": 37,
              "code": "g/dL",
              "system": "http://unitsofmeasure.org"
            }
          }
        ],
        "text": {
          "status": "generated",
          "div": "<div xmlns=\"http://www.w3.org/1999/xhtml\"><table class=\"hl7__eu__lab__report\"><tr><th>Test</th><th>03-Feb-2022</th><th>Reference&#xA0;Range</th><th>Unit</th></tr><tr><td>MCHC [Mass/volume] by Automated count</td><td>33.1</td><td>31 - 37</td><td></td><td>g/dL</td></tr></table></div>"
        },
        "status": "final",
        "subject": {
          "reference": "urn:uuid:fbaad3fc-cbd1-49a4-95ac-b0585ad0e471",
          "display": "Alfred Rémy"
        },
        "effectiveDateTime": "2022-02-03T06:54:36Z",
        "specimen": {
          "reference": "urn:uuid:d3fb9153-503b-44db-9a27-1c60526b92c2"
        }
      }
    },
    {
      "fullUrl": "urn:uuid:c16442f6-6eca-4766-aba3-444886d97fa4",
      "resource": {
        "resourceType": "Observation",
        "id": "c16442f6-6eca-4766-aba3-444886d97fa4",
        "meta": {
          "profile": [
            "http://hl7.eu/fhir/laboratory/StructureDefinition/Observation-resultslab-eu-lab"
          ]
        },
        "performer": [
          {
            "display": "The Central European Lab"
          }
        ],
        "category": [
          {
            "coding": [
              {
                "system": "http://terminology.hl7.org/CodeSystem/observation-category",
                "code": "laboratory"
              }
            ]
          }
        ],
        "code": {
          "coding": [
            {
              "code": "21000-5",
              "system": "http://loinc.org",
              "display": "Erythrocyte distribution width [Entitic volume] by Automated count"
            }
          ],
          "text": "Erythrocyte distribution width [Entitic volume] by Automated count"
        },
        "valueQuantity": {
          "system": "http://unitsofmeasure.org",
          "value": 43.1,
          "unit": "fL",
          "code": "fL"
        },
        "referenceRange": [
          {
            "low": {
              "value": 39,
              "code": "fL",
              "system": "http://unitsofmeasure.org"
            }
          },
          {
            "high": {
              "value": 55,
              "code": "fL",
              "system": "http://unitsofmeasure.org"
            }
          }
        ],
        "text": {
          "status": "generated",
          "div": "<div xmlns=\"http://www.w3.org/1999/xhtml\"><table class=\"hl7__eu__lab__report\"><tr><th>Test</th><th>03-Feb-2022</th><th>Reference&#xA0;Range</th><th>Unit</th></tr><tr><td>Erythrocyte distribution width [Entitic volume] by Automated count</td><td>43.1</td><td>39 - 55</td><td></td><td>fL</td></tr></table></div>"
        },
        "status": "final",
        "subject": {
          "reference": "urn:uuid:fbaad3fc-cbd1-49a4-95ac-b0585ad0e471",
          "display": "Alfred Rémy"
        },
        "effectiveDateTime": "2022-02-03T06:54:36Z",
        "specimen": {
          "reference": "urn:uuid:d3fb9153-503b-44db-9a27-1c60526b92c2"
        }
      }
    },
    {
      "fullUrl": "urn:uuid:8377816a-d7c7-44d8-8ae7-d7cf27130126",
      "resource": {
        "resourceType": "Observation",
        "id": "8377816a-d7c7-44d8-8ae7-d7cf27130126",
        "meta": {
          "profile": [
            "http://hl7.eu/fhir/laboratory/StructureDefinition/Observation-resultslab-eu-lab"
          ]
        },
        "performer": [
          {
            "display": "The Central European Lab"
          }
        ],
        "category": [
          {
            "coding": [
              {
                "system": "http://terminology.hl7.org/CodeSystem/observation-category",
                "code": "laboratory"
              }
            ]
          }
        ],
        "code": {
          "coding": [
            {
              "code": "777-3",
              "system": "http://loinc.org",
              "display": "Platelets [#/volume] in Blood by Automated count"
            }
          ],
          "text": "Platelets [#/volume] in Blood by Automated count"
        },
        "valueQuantity": {
          "system": "http://unitsofmeasure.org",
          "value": 358.9,
          "unit": "10*3/uL",
          "code": "10*3/uL"
        },
        "referenceRange": [
          {
            "low": {
              "value": 150,
              "code": "10*3/uL",
              "system": "http://unitsofmeasure.org"
            }
          },
          {
            "high": {
              "value": 450,
              "code": "10*3/uL",
              "system": "http://unitsofmeasure.org"
            }
          }
        ],
        "text": {
          "status": "generated",
          "div": "<div xmlns=\"http://www.w3.org/1999/xhtml\"><table class=\"hl7__eu__lab__report\"><tr><th>Test</th><th>03-Feb-2022</th><th>Reference&#xA0;Range</th><th>Unit</th></tr><tr><td>Platelets [#/volume] in Blood by Automated count</td><td>358.9</td><td>150 - 450</td><td></td><td>10*3/uL</td></tr></table></div>"
        },
        "status": "final",
        "subject": {
          "reference": "urn:uuid:fbaad3fc-cbd1-49a4-95ac-b0585ad0e471",
          "display": "Alfred Rémy"
        },
        "effectiveDateTime": "2022-02-03T06:54:36Z",
        "specimen": {
          "reference": "urn:uuid:d3fb9153-503b-44db-9a27-1c60526b92c2"
        }
      }
    },
    {
      "fullUrl": "urn:uuid:57c8e8a0-937a-4fef-8571-95ba3f5c5256",
      "resource": {
        "resourceType": "Observation",
        "id": "57c8e8a0-937a-4fef-8571-95ba3f5c5256",
        "meta": {
          "profile": [
            "http://hl7.eu/fhir/laboratory/StructureDefinition/Observation-resultslab-eu-lab"
          ]
        },
        "performer": [
          {
            "display": "The Central European Lab"
          }
        ],
        "category": [
          {
            "coding": [
              {
                "system": "http://terminology.hl7.org/CodeSystem/observation-category",
                "code": "laboratory"
              }
            ]
          }
        ],
        "code": {
          "coding": [
            {
              "code": "32207-3",
              "system": "http://loinc.org",
              "display": "Platelet distribution width [Entitic volume] in Blood by Automated count"
            }
          ],
          "text": "Platelet distribution width [Entitic volume] in Blood by Automated count"
        },
        "valueQuantity": {
          "system": "http://unitsofmeasure.org",
          "value": 180.6,
          "unit": "fL",
          "code": "fL"
        },
        "referenceRange": [
          {
            "low": {
              "value": 9.7,
              "code": "fL",
              "system": "http://unitsofmeasure.org"
            }
          },
          {
            "high": {
              "value": 17.4,
              "code": "fL",
              "system": "http://unitsofmeasure.org"
            }
          }
        ],
        "interpretation": [
          {
            "coding": [
              {
                "code": "H",
                "system": "http://terminology.hl7.org/CodeSystem/v3-ObservationInterpretation",
                "display": "High"
              }
            ]
          }
        ],
        "text": {
          "status": "generated",
          "div": "<div xmlns=\"http://www.w3.org/1999/xhtml\"><table class=\"hl7__eu__lab__report\"><tr><th>Test</th><th>03-Feb-2022</th><th>Reference&#xA0;Range</th><th>Unit</th></tr><tr><td>Platelet distribution width [Entitic volume] in Blood by Automated count</td><td>180.6</td><td>9.7 - 17.4</td><td>H</td><td>fL</td></tr></table></div>"
        },
        "status": "final",
        "subject": {
          "reference": "urn:uuid:fbaad3fc-cbd1-49a4-95ac-b0585ad0e471",
          "display": "Alfred Rémy"
        },
        "effectiveDateTime": "2022-02-03T06:54:36Z",
        "specimen": {
          "reference": "urn:uuid:d3fb9153-503b-44db-9a27-1c60526b92c2"
        }
      }
    },
    {
      "fullUrl": "urn:uuid:c2996509-ee03-4891-b2ea-e62603ba15d7",
      "resource": {
        "resourceType": "Observation",
        "id": "c2996509-ee03-4891-b2ea-e62603ba15d7",
        "meta": {
          "profile": [
            "http://hl7.eu/fhir/laboratory/StructureDefinition/Observation-resultslab-eu-lab"
          ]
        },
        "performer": [
          {
            "display": "The Central European Lab"
          }
        ],
        "category": [
          {
            "coding": [
              {
                "system": "http://terminology.hl7.org/CodeSystem/observation-category",
                "code": "laboratory"
              }
            ]
          }
        ],
        "code": {
          "coding": [
            {
              "code": "32623-1",
              "system": "http://loinc.org",
              "display": "Platelet mean volume [Entitic volume] in Blood by Automated count"
            }
          ],
          "text": "Platelet mean volume [Entitic volume] in Blood by Automated count"
        },
        "valueQuantity": {
          "system": "http://unitsofmeasure.org",
          "value": 10.6,
          "unit": "fL",
          "code": "fL"
        },
        "referenceRange": [
          {
            "low": {
              "value": 9.7,
              "code": "fL",
              "system": "http://unitsofmeasure.org"
            }
          },
          {
            "high": {
              "value": 13.5,
              "code": "fL",
              "system": "http://unitsofmeasure.org"
            }
          }
        ],
        "text": {
          "status": "generated",
          "div": "<div xmlns=\"http://www.w3.org/1999/xhtml\"><table class=\"hl7__eu__lab__report\"><tr><th>Test</th><th>03-Feb-2022</th><th>Reference&#xA0;Range</th><th>Unit</th></tr><tr><td>Platelet mean volume [Entitic volume] in Blood by Automated count</td><td>10.6</td><td>9.7 - 13.5</td><td></td><td>fL</td></tr></table></div>"
        },
        "status": "final",
        "subject": {
          "reference": "urn:uuid:fbaad3fc-cbd1-49a4-95ac-b0585ad0e471",
          "display": "Alfred Rémy"
        },
        "effectiveDateTime": "2022-02-03T06:54:36Z",
        "specimen": {
          "reference": "urn:uuid:d3fb9153-503b-44db-9a27-1c60526b92c2"
        }
      }
    },
    {
      "fullUrl": "urn:uuid:59eb16c7-6b2d-4719-8d2c-c141aebac580",
      "resource": {
        "resourceType": "Device",
        "id": "59eb16c7-6b2d-4719-8d2c-c141aebac580",
        "deviceName": [
          {
            "name": "SYNDERAI Synthetic Generator",
            "type": "manufacturer-name"
          }
        ],
        "version": [
          {
            "value": "5.0"
          }
        ],
        "text": {
          "status": "generated",
          "div": "<div xmlns=\"http://www.w3.org/1999/xhtml\">SYNDERAI Synthetic Generator v5.0</div>"
        },
        "status": "active\"",
        "distinctIdentifier": "synderai-generator-50",
        "manufacturer": "SYNDERAI Project"
      }
    },
    {
      "fullUrl": "urn:uuid:5df52969-56ab-44dd-8a78-386b4cca6de6",
      "resource": {
        "resourceType": "Provenance",
        "id": "5df52969-56ab-44dd-8a78-386b4cca6de6",
        "target": [
          {
            "reference": "Patient/fbaad3fc-cbd1-49a4-95ac-b0585ad0e471"
          },
          {
            "reference": "Bundle/4ce1cdc3-6096-40c0-9762-dae67c39f629"
          },
          {
            "reference": "Composition/334fbc60-d0a8-48e7-bb2f-4352ca6c8a50"
          },
          {
            "reference": "PractitionerRole/1422b8c0-755b-4a28-b20e-2b244bba9788"
          },
          {
            "reference": "Practitioner/306e28e7-f642-495e-a773-78e88716d8ce"
          },
          {
            "reference": "PractitionerRole/fb580981-6e57-45c3-bc7a-d131d2fbbc07"
          },
          {
            "reference": "Organization/f37c9feb-f9e9-4b54-a418-e8cbe456d249"
          }
        ],
        "activity": {
          "text": "Synthetic Example Data Generation"
        },
        "policy": [
          "https://synderai.net/synderai-synthetic-data-policy"
        ],
        "agent": [
          {
            "type": {
              "text": "author"
            },
            "who": {
              "reference": "Device/59eb16c7-6b2d-4719-8d2c-c141aebac580"
            }
          }
        ],
        "reason": [
          {
            "text": "Interoperability Testing and Training (non-clinical use)"
          }
        ],
        "text": {
          "status": "generated",
          "div": "<div xmlns=\"http://www.w3.org/1999/xhtml\">Provenance for SYNDERAI Synthetic Example Data Resource</div>"
        },
        "recorded": "2022-02-03T07:54:36Z"
      }
    },
    {
      "fullUrl": "urn:uuid:1422b8c0-755b-4a28-b20e-2b244bba9788",
      "resource": {
        "resourceType": "PractitionerRole",
        "id": "1422b8c0-755b-4a28-b20e-2b244bba9788",
        "meta": {
          "profile": [
            "http://hl7.eu/fhir/base/StructureDefinition/practitionerRole-eu"
          ]
        },
        "text": {
          "status": "generated",
          "div": "<div xmlns=\"http://www.w3.org/1999/xhtml\">Laboratory Role Id: 1422b8c0-755b-4a28-b20e-2b244bba9788</div>"
        },
        "practitioner": {
          "reference": "urn:uuid:306e28e7-f642-495e-a773-78e88716d8ce"
        }
      }
    },
    {
      "fullUrl": "urn:uuid:306e28e7-f642-495e-a773-78e88716d8ce",
      "resource": {
        "resourceType": "Practitioner",
        "id": "306e28e7-f642-495e-a773-78e88716d8ce",
        "meta": {
          "profile": [
            "http://hl7.eu/fhir/base/StructureDefinition/practitioner-eu"
          ]
        },
        "identifier": [
          {
            "assigner": {
              "display": "HL7 Europe"
            },
            "system": "urn:oid:2.16.840.1.113883.2.51.999",
            "value": "5a8d324a-25fa-4cdc-84b0-5326d407eef7"
          }
        ],
        "name": [
          {
            "prefix": [
              "dr"
            ],
            "given": [
              "Ex"
            ],
            "family": "Ample"
          }
        ],
        "address": [
          {
            "line": [
              "Laboratoire Central Européenne",
              "Boulevard du Jardin Botanique 32"
            ],
            "postalCode": "1000",
            "city": "Brussels",
            "country": "Belgium"
          }
        ],
        "text": {
          "status": "generated",
          "div": "<div xmlns=\"http://www.w3.org/1999/xhtml\">Laboratory: Laboratoire Central Européenne, 1000 Brussels, Belgium</div>"
        }
      }
    }
  ],
  "type": "document",
  "timestamp": "2022-02-03T07:54:36Z"
}
