{
  "resourceType": "Bundle",
  "id": "02ad720b-c895-42ed-acdd-28044ed3d08b",
  "meta": {
    "profile": [
      "http://hl7.eu/fhir/laboratory/StructureDefinition/Bundle-eu-lab"
    ]
  },
  "identifier": {
    "assigner": {
      "display": "HL7 Europe"
    },
    "system": "urn:oid:2.16.840.1.113883.2.51.999",
    "value": "b5e38a24-757a-492b-a9d6-4974b4b27d95"
  },
  "entry": [
    {
      "fullUrl": "urn:uuid:b574c2bb-f442-4040-be95-351febbf1870",
      "resource": {
        "resourceType": "Composition",
        "id": "b574c2bb-f442-4040-be95-351febbf1870",
        "meta": {
          "profile": [
            "http://hl7.eu/fhir/laboratory/StructureDefinition/Composition-eu-lab"
          ]
        },
        "identifier": {
          "assigner": {
            "display": "HL7 Europe"
          },
          "system": "urn:oid:2.16.840.1.113883.2.51.999",
          "value": "50d42ec9-d9bf-4223-adac-dc273455b3e4"
        },
        "author": [
          {
            "reference": "urn:uuid:854e3fd8-56c2-41fb-85b1-875f6f9dc72f"
          }
        ],
        "category": [
          {
            "coding": [
              {
                "code": "26436-6",
                "system": "http://loinc.org",
                "display": "Laboratory studies (set)"
              }
            ]
          }
        ],
        "type": {
          "coding": [
            {
              "code": "11502-2",
              "system": "http://loinc.org",
              "display": "Laboratory report"
            }
          ],
          "text": "Laboratory Report"
        },
        "section": [
          {
            "code": {
              "coding": [
                {
                  "code": "26436-6",
                  "system": "http://loinc.org",
                  "display": "Laboratory studies (set)"
                }
              ],
              "text": "Laboratory studies"
            },
            "section": [
              {
                "code": {
                  "coding": [
                    {
                      "code": "$18719-5",
                      "system": "http://loinc.org",
                      "display": "Chemistry studies (set)"
                    }
                  ],
                  "text": "Chemistry"
                },
                "entry": [
                  {
                    "reference": "urn:uuid:dca0b3dc-bb1a-42ef-9cf5-7cc5ab9e3c76"
                  },
                  {
                    "reference": "urn:uuid:c40c44ed-a76c-4e64-85ba-460c608281e4"
                  },
                  {
                    "reference": "urn:uuid:2c1227d2-a22c-48d6-95ea-b8b925360c40"
                  },
                  {
                    "reference": "urn:uuid:4c48d9f2-4a9c-4400-9e7e-9de0e1faea7f"
                  },
                  {
                    "reference": "urn:uuid:60d82de3-e2c3-429f-842a-94c3ba86b64b"
                  },
                  {
                    "reference": "urn:uuid:d41455e5-de80-41dd-b259-07b6b5243140"
                  },
                  {
                    "reference": "urn:uuid:cd990e32-be9c-4150-89d5-8861bca2dc53"
                  },
                  {
                    "reference": "urn:uuid:ed0b491f-52e1-4999-9e6f-20a46f6223a7"
                  },
                  {
                    "reference": "urn:uuid:44d25b21-3103-4825-86bb-79fe7b640b19"
                  },
                  {
                    "reference": "urn:uuid:6f3eadd2-99fb-4414-8bfe-3cd0917b21db"
                  },
                  {
                    "reference": "urn:uuid:2fc90d15-d6e5-4b0e-bb03-e2aa7d190d5f"
                  },
                  {
                    "reference": "urn:uuid:8bf6dcd1-9c3b-4a0a-b233-924275c31762"
                  },
                  {
                    "reference": "urn:uuid:8d355f6a-0fb0-4598-83c0-67f03fb1bcfa"
                  },
                  {
                    "reference": "urn:uuid:ca22fc54-4325-44a4-9fa7-58ab2742c6b7"
                  },
                  {
                    "reference": "urn:uuid:7f0d0e12-b80d-4330-b332-500f29196ace"
                  },
                  {
                    "reference": "urn:uuid:f4ae092b-0ed0-4fd3-b033-d722dc568107"
                  }
                ],
                "text": {
                  "status": "generated",
                  "div": "<div xmlns=\"http://www.w3.org/1999/xhtml\"><h3>Chemistry</h3><table class=\"hl7__eu__lab__report\"><thead><tr><th>Test</th><th>13-FEB-2016</th><th>Reference&#xA0;Range</th><th>Unit</th></tr></thead><tbody><tr><td>Glucose [Mass/volume] in Blood</td><td>94.6</td><td>70 - 140</td><td>mg/dL</td></tr><tr><td>Urea nitrogen [Mass/volume] in Blood</td><td>8.6</td><td>7 - 30</td><td>mg/dL</td></tr><tr><td>Creatinine [Mass/volume] in Blood</td><td><strong>2.6 H</strong></td><td>0.5 - 1.3</td><td>mg/dL</td></tr><tr><td>Calcium [Mass/volume] in Blood</td><td>8.9</td><td>8.6 - 10.2</td><td>mg/dL</td></tr><tr><td>Sodium [Moles/volume] in Blood</td><td>141.8</td><td>135 - 145</td><td>mmol/L</td></tr><tr><td>Potassium [Moles/volume] in Blood</td><td>3.8</td><td>3.5 - 5.1</td><td>mmol/L</td></tr><tr><td>Chloride [Moles/volume] in Blood</td><td>101.1</td><td>98 - 114</td><td>mmol/L</td></tr><tr><td>Carbon dioxide, total [Moles/volume] in Blood</td><td>27.6</td><td>22 - 32</td><td>mmol/L</td></tr><tr><td>Protein [Mass/volume] in Serum or Plasma</td><td>8.0</td><td>6 - 8.3</td><td>g/dL</td></tr><tr><td>Albumin [Mass/volume] in Serum or Plasma</td><td>5.5</td><td>3.5 - 5.5</td><td>g/dL</td></tr><tr><td>Globulin [Mass/volume] in Serum by calculation</td><td>2.7</td><td>2 - 3.5</td><td>g/L</td></tr><tr><td>Bilirubin.total [Mass/volume] in Serum or Plasma</td><td>0.5</td><td>0.3 - 1.2</td><td>mg/dL</td></tr><tr><td>Alkaline phosphatase [Enzymatic activity/volume] in Serum or Plasma</td><td>72.5</td><td>44 - 142</td><td>U/L</td></tr><tr><td>Alanine aminotransferase [Enzymatic activity/volume] in Serum or Plasma</td><td>34.3</td><td>7 - 40</td><td>U/L</td></tr><tr><td>Aspartate aminotransferase [Enzymatic activity/volume] in Serum or Plasma</td><td>33.3</td><td>10 - 40</td><td>U/L</td></tr><tr><td>Ketones [Presence] in Urine by Test strip</td><td>Urine ketone test = +++</td><td></td><td></td></tr></tbody></table></div>"
                },
                "title": "Chemistry"
              },
              {
                "code": {
                  "coding": [
                    {
                      "code": "$18729-4",
                      "system": "http://loinc.org",
                      "display": "Urinalysis studies (set)"
                    }
                  ],
                  "text": "Urinalysis"
                },
                "entry": [
                  {
                    "reference": "urn:uuid:5514e99e-666f-4c00-9027-54f9aa9f225a"
                  },
                  {
                    "reference": "urn:uuid:bfa563ad-29c8-4517-a2db-756c2601ce5e"
                  },
                  {
                    "reference": "urn:uuid:84a7029c-d154-47fa-976f-f4b210723507"
                  },
                  {
                    "reference": "urn:uuid:fe59a715-3cd1-4236-90e3-a347c757d9f2"
                  },
                  {
                    "reference": "urn:uuid:c644d4d0-1398-47c5-84df-b7b13b7177a4"
                  },
                  {
                    "reference": "urn:uuid:0ebf4465-e9ec-4340-a567-0024025d0ebc"
                  },
                  {
                    "reference": "urn:uuid:02f7d9db-dbca-45d1-98b6-a046a3a14d2f"
                  },
                  {
                    "reference": "urn:uuid:90da6084-58b6-49d0-892f-8260d07f1c25"
                  },
                  {
                    "reference": "urn:uuid:3a424c6a-28c4-4458-b96a-6dadafe3180e"
                  },
                  {
                    "reference": "urn:uuid:d54c407e-a305-447b-a9f2-bea0dff1b790"
                  },
                  {
                    "reference": "urn:uuid:8ec66de2-4fb8-4d02-8360-ffe9d1ab9dff"
                  },
                  {
                    "reference": "urn:uuid:bc2b48d9-9039-4a19-82b4-d7f00e069f58"
                  }
                ],
                "text": {
                  "status": "generated",
                  "div": "<div xmlns=\"http://www.w3.org/1999/xhtml\"><h3>Urinalysis</h3><table class=\"hl7__eu__lab__report\"><thead><tr><th>Test</th><th>13-FEB-2016</th><th>Reference&#xA0;Range</th><th>Unit</th></tr></thead><tbody><tr><td>Glucose [Mass/volume] in Urine by Test strip</td><td><strong>1.5 H</strong></td><td>0.8 - 0</td><td>mg/dL</td></tr><tr><td>Glucose [Presence] in Urine by Test strip</td><td>++</td><td></td><td></td></tr><tr><td>Bilirubin.total [Mass/volume] in Urine by Test strip</td><td>0.9</td><td>0 - 1.5</td><td>mg/dL</td></tr><tr><td>Bilirubin.total [Presence] in Urine by Test strip</td><td>Finding of bilirubin in urine</td><td></td><td></td></tr><tr><td>Ketones [Mass/volume] in Urine by Test strip</td><td><strong>19.4 H</strong></td><td>0 - 8</td><td>mg/dL</td></tr><tr><td>Specific gravity of Urine by Test strip</td><td><strong>1.0 L</strong></td><td>1.01 - 1.03</td><td>{nominal}</td></tr><tr><td>pH of Urine by Test strip</td><td>5.9</td><td>4.6 - 7.5</td><td>pH</td></tr><tr><td>Protein [Mass/volume] in Urine by Test strip</td><td><strong>346.4 H</strong></td><td>0 - 14</td><td>mg/dL</td></tr><tr><td>Protein [Presence] in Urine by Test strip</td><td>Urine protein test = +++</td><td></td><td></td></tr><tr><td>Nitrite [Presence] in Urine by Test strip</td><td>Urine nitrite negative</td><td></td><td></td></tr><tr><td>Hemoglobin [Presence] in Urine by Test strip</td><td>Urine blood test = negative</td><td></td><td></td></tr><tr><td>Leukocyte esterase [Presence] in Urine by Test strip</td><td>Urine leukocyte test negative</td><td></td><td></td></tr></tbody></table></div>"
                },
                "title": "Urinalysis"
              },
              {
                "code": {
                  "coding": [
                    {
                      "code": "$LP7846-1",
                      "system": "http://loinc.org",
                      "display": "Specimen information"
                    }
                  ],
                  "text": "Specimen information"
                },
                "entry": [
                  {
                    "reference": "urn:uuid:ea372656-bee0-4e52-9a89-c3366a667dc0"
                  },
                  {
                    "reference": "urn:uuid:838cd897-fb43-4619-ae19-747a40040153"
                  },
                  {
                    "reference": "urn:uuid:82d6bd40-67d8-45ea-8b4c-545486973e84"
                  },
                  {
                    "reference": "urn:uuid:9ce2c7c0-7d89-43ee-868e-4f5d6ffbfe91"
                  }
                ],
                "text": {
                  "status": "generated",
                  "div": "<div xmlns=\"http://www.w3.org/1999/xhtml\"><h3>Specimen information</h3><table class=\"hl7__eu__lab__report\"><thead><tr><th>Test</th><th>13-FEB-2016</th><th>Specimen</th><th></th></tr></thead><tbody><tr><td>Appearance of Urine</td><td>Cloudy urine</td><td>Urine</td><td></td></tr><tr><td>Odor of Urine</td><td>Urine smell ammoniacal</td><td>Urine</td><td></td></tr><tr><td>Clarity of Urine</td><td>Translucent</td><td>Urine</td><td></td></tr><tr><td>Color of Urine</td><td>Brown color</td><td>Urine</td><td></td></tr></tbody></table></div>"
                },
                "title": "Specimen information"
              }
            ],
            "title": "Laboratory Report"
          },
          {
            "text": {
              "status": "generated",
              "div": "<div xmlns=\"http://www.w3.org/1999/xhtml\"><h3>Annotation</h3><table class=\"hl7__eu__lab__report\"><tr><th>Conclusion and Recommendations based on this report and previous findings known to us</th></tr><tr><td>The patient shows significantly elevated serum creatinine, indicating impaired renal function. Urinalysis reveals marked proteinuria, glucosuria, and ketonuria, with low specific gravity and abnormal urine appearance (cloudy, brown, ammoniacal), but no evidence of infection (negative nitrites/leukocytes). These findings suggest acute or chronic kidney dysfunction, possibly with nephrotic features and poor urine concentrating ability. Further nephrological evaluation is recommended.</td></tr></table></div>"
            },
            "code": {
              "coding": [
                {
                  "system": "http://loinc.org",
                  "code": "48767-8",
                  "display": "Annotation comment"
                }
              ]
            },
            "title": "Annotation comment"
          }
        ],
        "status": "final",
        "subject": {
          "reference": "urn:uuid:ba7201ea-95a3-44a4-bec2-68999c062acd",
          "display": "Maria Nohlmans"
        },
        "date": "2016-02-13T05:35:39Z",
        "title": "Laboratory Report",
        "confidentiality": "N"
      }
    },
    {
      "fullUrl": "urn:uuid:fc66ad15-e7ff-4355-9d4a-a5069c6e605b",
      "resource": {
        "resourceType": "DiagnosticReport",
        "id": "fc66ad15-e7ff-4355-9d4a-a5069c6e605b",
        "meta": {
          "profile": [
            "http://hl7.eu/fhir/laboratory/StructureDefinition/DiagnosticReport-eu-lab"
          ]
        },
        "identifier": [
          {
            "assigner": {
              "display": "HL7 Europe"
            },
            "system": "urn:oid:2.16.840.1.113883.2.51.999",
            "value": "a27d836d-a742-44d2-96df-b61e69e495b3"
          }
        ],
        "extension": [
          {
            "url": "http://hl7.org/fhir/5.0/StructureDefinition/extension-DiagnosticReport.composition",
            "valueReference": {
              "reference": "urn:uuid:50d42ec9-d9bf-4223-adac-dc273455b3e4"
            }
          }
        ],
        "category": [
          {
            "coding": [
              {
                "code": "26436-6",
                "system": "http://loinc.org",
                "display": "Laboratory studies (set)"
              }
            ]
          }
        ],
        "specimen": [
          {
            "reference": "urn:uuid:efab94dc-a5d8-4383-bcf1-dc90387a0664"
          },
          {
            "reference": "urn:uuid:856bd339-d9ef-4b03-9b87-d59bbe31391e"
          },
          {
            "reference": "urn:uuid:f52f780f-6c94-4bfe-acc7-a37a99137513"
          },
          {
            "reference": "urn:uuid:28989ee6-b3ce-4a39-b0d5-f05ba12f0333"
          }
        ],
        "result": [
          {
            "reference": "urn:uuid:dca0b3dc-bb1a-42ef-9cf5-7cc5ab9e3c76"
          },
          {
            "reference": "urn:uuid:c40c44ed-a76c-4e64-85ba-460c608281e4"
          },
          {
            "reference": "urn:uuid:2c1227d2-a22c-48d6-95ea-b8b925360c40"
          },
          {
            "reference": "urn:uuid:4c48d9f2-4a9c-4400-9e7e-9de0e1faea7f"
          },
          {
            "reference": "urn:uuid:60d82de3-e2c3-429f-842a-94c3ba86b64b"
          },
          {
            "reference": "urn:uuid:d41455e5-de80-41dd-b259-07b6b5243140"
          },
          {
            "reference": "urn:uuid:cd990e32-be9c-4150-89d5-8861bca2dc53"
          },
          {
            "reference": "urn:uuid:ed0b491f-52e1-4999-9e6f-20a46f6223a7"
          },
          {
            "reference": "urn:uuid:44d25b21-3103-4825-86bb-79fe7b640b19"
          },
          {
            "reference": "urn:uuid:6f3eadd2-99fb-4414-8bfe-3cd0917b21db"
          },
          {
            "reference": "urn:uuid:2fc90d15-d6e5-4b0e-bb03-e2aa7d190d5f"
          },
          {
            "reference": "urn:uuid:8bf6dcd1-9c3b-4a0a-b233-924275c31762"
          },
          {
            "reference": "urn:uuid:8d355f6a-0fb0-4598-83c0-67f03fb1bcfa"
          },
          {
            "reference": "urn:uuid:ca22fc54-4325-44a4-9fa7-58ab2742c6b7"
          },
          {
            "reference": "urn:uuid:7f0d0e12-b80d-4330-b332-500f29196ace"
          },
          {
            "reference": "urn:uuid:ea372656-bee0-4e52-9a89-c3366a667dc0"
          },
          {
            "reference": "urn:uuid:838cd897-fb43-4619-ae19-747a40040153"
          },
          {
            "reference": "urn:uuid:82d6bd40-67d8-45ea-8b4c-545486973e84"
          },
          {
            "reference": "urn:uuid:9ce2c7c0-7d89-43ee-868e-4f5d6ffbfe91"
          },
          {
            "reference": "urn:uuid:5514e99e-666f-4c00-9027-54f9aa9f225a"
          },
          {
            "reference": "urn:uuid:bfa563ad-29c8-4517-a2db-756c2601ce5e"
          },
          {
            "reference": "urn:uuid:84a7029c-d154-47fa-976f-f4b210723507"
          },
          {
            "reference": "urn:uuid:fe59a715-3cd1-4236-90e3-a347c757d9f2"
          },
          {
            "reference": "urn:uuid:c644d4d0-1398-47c5-84df-b7b13b7177a4"
          },
          {
            "reference": "urn:uuid:f4ae092b-0ed0-4fd3-b033-d722dc568107"
          },
          {
            "reference": "urn:uuid:0ebf4465-e9ec-4340-a567-0024025d0ebc"
          },
          {
            "reference": "urn:uuid:02f7d9db-dbca-45d1-98b6-a046a3a14d2f"
          },
          {
            "reference": "urn:uuid:90da6084-58b6-49d0-892f-8260d07f1c25"
          },
          {
            "reference": "urn:uuid:3a424c6a-28c4-4458-b96a-6dadafe3180e"
          },
          {
            "reference": "urn:uuid:d54c407e-a305-447b-a9f2-bea0dff1b790"
          },
          {
            "reference": "urn:uuid:8ec66de2-4fb8-4d02-8360-ffe9d1ab9dff"
          },
          {
            "reference": "urn:uuid:bc2b48d9-9039-4a19-82b4-d7f00e069f58"
          }
        ],
        "status": "registered",
        "code": {
          "coding": [
            {
              "code": "11502-2",
              "system": "http://loinc.org",
              "display": "Laboratory report"
            }
          ]
        },
        "subject": {
          "reference": "urn:uuid:ba7201ea-95a3-44a4-bec2-68999c062acd",
          "display": "Maria Nohlmans"
        }
      }
    },
    {
      "fullUrl": "urn:uuid:ba7201ea-95a3-44a4-bec2-68999c062acd",
      "resource": {
        "resourceType": "Patient",
        "id": "ba7201ea-95a3-44a4-bec2-68999c062acd",
        "meta": {
          "security": [
            {
              "system": "http://terminology.hl7.org/CodeSystem/v3-ActReason",
              "code": "HTEST"
            },
            {
              "system": "http://terminology.hl7.org/CodeSystem/v3-ActReason",
              "code": "TRAIN"
            }
          ],
          "tag": [
            {
              "system": "https://synderai.net/fhir/CodeSystem/tags",
              "code": "synthetic",
              "display": "SYNDERAI Synthetic data"
            }
          ],
          "profile": [
            "http://hl7.eu/fhir/base/StructureDefinition/patient-eu-core"
          ]
        },
        "identifier": [
          {
            "type": {
              "coding": [
                {
                  "code": "PT",
                  "system": "http://terminology.hl7.org/CodeSystem/v2-0203"
                }
              ]
            },
            "system": "http://ec.europa.eu/identifier/eci",
            "value": "6886-506417-1"
          },
          {
            "type": {
              "coding": [
                {
                  "code": "MR",
                  "system": "http://terminology.hl7.org/CodeSystem/v2-0203"
                }
              ]
            },
            "system": "http://local.setting.eu/identifier",
            "value": "2cb21ed6-b617-b1f3-2290-589a710de5ee"
          }
        ],
        "name": [
          {
            "family": "Nohlmans"
          },
          {
            "given": [
              "Maria"
            ]
          },
          {
            "text": "Maria Nohlmans"
          }
        ],
        "address": [
          {
            "line": [
              "Alfons-Wulff-Weg 1"
            ],
            "use": "home",
            "type": "physical",
            "postalCode": "25813",
            "city": "Husum",
            "country": "Germany"
          }
        ],
        "telecom": [
          {
            "system": "phone",
            "value": "+49(0)1911 105501"
          }
        ],
        "extension": [
          {
            "url": "http://hl7.org/fhir/StructureDefinition/patient-nationality",
            "valueCodeableConcept": {
              "coding": [
                {
                  "code": "DE",
                  "system": "http://hl7.org/fhir/ValueSet/country"
                }
              ]
            }
          }
        ],
        "text": {
          "status": "generated",
          "div": "<div xmlns=\"http://www.w3.org/1999/xhtml\"><table class=\"hl7__ips\"><tr><td>Maria Nohlmans</td><td>female</td><td>11-Jun-1947</td></tr></table></div>"
        },
        "gender": "female",
        "birthDate": "1947-06-11"
      }
    },
    {
      "fullUrl": "urn:uuid:330153e6-05e6-4f51-91e1-359517c4642f",
      "resource": {
        "resourceType": "ServiceRequest",
        "id": "330153e6-05e6-4f51-91e1-359517c4642f",
        "meta": {
          "profile": [
            "http://hl7.eu/fhir/laboratory/StructureDefinition/ServiceRequest-eu-lab"
          ]
        },
        "identifier": [
          {
            "system": "http://example.org",
            "value": "932ff9cf-9405-4e1c-a23e-7acafe83bcd8"
          }
        ],
        "specimen": [
          {
            "reference": "urn:uuid:efab94dc-a5d8-4383-bcf1-dc90387a0664"
          },
          {
            "reference": "urn:uuid:856bd339-d9ef-4b03-9b87-d59bbe31391e"
          },
          {
            "reference": "urn:uuid:f52f780f-6c94-4bfe-acc7-a37a99137513"
          },
          {
            "reference": "urn:uuid:28989ee6-b3ce-4a39-b0d5-f05ba12f0333"
          }
        ],
        "reasonCode": [
          {
            "coding": [
              {
                "code": "401314000",
                "system": "http://snomed.info/sct",
                "display": "Acute non-ST segment elevation myocardial infarction"
              }
            ]
          },
          {
            "coding": [
              {
                "code": "157141000119108",
                "system": "http://snomed.info/sct",
                "display": "Proteinuria due to type 2 diabetes mellitus"
              }
            ]
          },
          {
            "coding": [
              {
                "code": "237602007",
                "system": "http://snomed.info/sct",
                "display": "Metabolic syndrome X"
              }
            ]
          },
          {
            "coding": [
              {
                "code": "90781000119102",
                "system": "http://snomed.info/sct",
                "display": "Microalbuminuria due to type 2 diabetes mellitus"
              }
            ]
          },
          {
            "coding": [
              {
                "code": "127013003",
                "system": "http://snomed.info/sct",
                "display": "Disorder of kidney due to diabetes mellitus"
              }
            ]
          },
          {
            "coding": [
              {
                "code": "59621000",
                "system": "http://snomed.info/sct",
                "display": "Essential hypertension"
              }
            ]
          },
          {
            "coding": [
              {
                "code": "271737000",
                "system": "http://snomed.info/sct",
                "display": "Anemia"
              }
            ]
          },
          {
            "coding": [
              {
                "code": "15777000",
                "system": "http://snomed.info/sct",
                "display": "Prediabetes"
              }
            ]
          }
        ],
        "status": "active",
        "intent": "order",
        "code": {
          "coding": [
            {
              "code": "108252007",
              "system": "http://snomed.info/sct",
              "display": "Laboratory procedure"
            }
          ]
        },
        "subject": {
          "reference": "urn:uuid:ba7201ea-95a3-44a4-bec2-68999c062acd",
          "display": "Maria Nohlmans"
        },
        "requester": {
          "reference": "urn:uuid:da6c24af-a140-4b7b-86a4-c50969f24305"
        }
      }
    },
    {
      "fullUrl": "urn:uuid:da6c24af-a140-4b7b-86a4-c50969f24305",
      "resource": {
        "resourceType": "PractitionerRole",
        "id": "da6c24af-a140-4b7b-86a4-c50969f24305",
        "meta": {
          "profile": [
            "http://hl7.eu/fhir/base/StructureDefinition/practitionerRole-eu"
          ]
        },
        "text": {
          "status": "generated",
          "div": "<div xmlns=\"http://www.w3.org/1999/xhtml\">Provider Role Id: da6c24af-a140-4b7b-86a4-c50969f24305</div>"
        },
        "organization": {
          "reference": "urn:uuid:5f1f1964-efd2-4f46-992e-77995014485f"
        }
      }
    },
    {
      "fullUrl": "urn:uuid:5f1f1964-efd2-4f46-992e-77995014485f",
      "resource": {
        "resourceType": "Organization",
        "id": "5f1f1964-efd2-4f46-992e-77995014485f",
        "meta": {
          "profile": [
            "http://hl7.eu/fhir/base/StructureDefinition/organization-eu"
          ]
        },
        "identifier": [
          {
            "assigner": {
              "display": "HL7 Europe"
            },
            "system": "urn:oid:2.16.840.1.113883.2.51.999",
            "value": "74cda99d-333f-440f-803a-9c1b9c646eae"
          }
        ],
        "address": [
          {
            "line": [
              "Brinckmannstraße 35"
            ],
            "city": "Husum",
            "postalCode": "25813",
            "country": "Germany"
          }
        ],
        "text": {
          "status": "generated",
          "div": "<div xmlns=\"http://www.w3.org/1999/xhtml\">Provider Organization: Dr. Wolfram Hussels Kieferorthopäde</div>"
        },
        "name": "Dr. Wolfram Hussels Kieferorthopäde"
      }
    },
    {
      "fullUrl": "urn:uuid:efab94dc-a5d8-4383-bcf1-dc90387a0664",
      "resource": {
        "resourceType": "Specimen",
        "id": "efab94dc-a5d8-4383-bcf1-dc90387a0664",
        "meta": {
          "profile": [
            "http://hl7.eu/fhir/laboratory/StructureDefinition/Specimen-eu-lab"
          ]
        },
        "collection": {
          "collectedDateTime": "2016-02-13"
        },
        "text": {
          "status": "generated",
          "div": "<div xmlns=\"http://www.w3.org/1999/xhtml\"><table class=\"hl7__eu__lab__report\"><tr><th>Specimen</th><th>Collection Date</th></tr><tr><td>Whole blood specimen (specimen)</td><td><span class=\"nb\">13-Feb-2016</span></td></tr></table></div>"
        },
        "type": {
          "coding": [
            {
              "code": "258580003",
              "system": "http://snomed.info/sct",
              "display": "Whole blood specimen (specimen)"
            }
          ]
        }
      }
    },
    {
      "fullUrl": "urn:uuid:856bd339-d9ef-4b03-9b87-d59bbe31391e",
      "resource": {
        "resourceType": "Specimen",
        "id": "856bd339-d9ef-4b03-9b87-d59bbe31391e",
        "meta": {
          "profile": [
            "http://hl7.eu/fhir/laboratory/StructureDefinition/Specimen-eu-lab"
          ]
        },
        "collection": {
          "collectedDateTime": "2016-02-13"
        },
        "text": {
          "status": "generated",
          "div": "<div xmlns=\"http://www.w3.org/1999/xhtml\"><table class=\"hl7__eu__lab__report\"><tr><th>Specimen</th><th>Collection Date</th></tr><tr><td>Acellular blood (serum or plasma) specimen</td><td><span class=\"nb\">13-Feb-2016</span></td></tr></table></div>"
        },
        "type": {
          "coding": [
            {
              "code": "122592007",
              "system": "http://snomed.info/sct",
              "display": "Acellular blood (serum or plasma) specimen"
            }
          ]
        }
      }
    },
    {
      "fullUrl": "urn:uuid:f52f780f-6c94-4bfe-acc7-a37a99137513",
      "resource": {
        "resourceType": "Specimen",
        "id": "f52f780f-6c94-4bfe-acc7-a37a99137513",
        "meta": {
          "profile": [
            "http://hl7.eu/fhir/laboratory/StructureDefinition/Specimen-eu-lab"
          ]
        },
        "collection": {
          "collectedDateTime": "2016-02-13"
        },
        "text": {
          "status": "generated",
          "div": "<div xmlns=\"http://www.w3.org/1999/xhtml\"><table class=\"hl7__eu__lab__report\"><tr><th>Specimen</th><th>Collection Date</th></tr><tr><td>Serum specimen</td><td><span class=\"nb\">13-Feb-2016</span></td></tr></table></div>"
        },
        "type": {
          "coding": [
            {
              "code": "119364003",
              "system": "http://snomed.info/sct",
              "display": "Serum specimen"
            }
          ]
        }
      }
    },
    {
      "fullUrl": "urn:uuid:28989ee6-b3ce-4a39-b0d5-f05ba12f0333",
      "resource": {
        "resourceType": "Specimen",
        "id": "28989ee6-b3ce-4a39-b0d5-f05ba12f0333",
        "meta": {
          "profile": [
            "http://hl7.eu/fhir/laboratory/StructureDefinition/Specimen-eu-lab"
          ]
        },
        "collection": {
          "collectedDateTime": "2016-02-13"
        },
        "text": {
          "status": "generated",
          "div": "<div xmlns=\"http://www.w3.org/1999/xhtml\"><table class=\"hl7__eu__lab__report\"><tr><th>Specimen</th><th>Collection Date</th></tr><tr><td>Urine specimen</td><td><span class=\"nb\">13-Feb-2016</span></td></tr></table></div>"
        },
        "type": {
          "coding": [
            {
              "code": "122575003",
              "system": "http://snomed.info/sct",
              "display": "Urine specimen"
            }
          ]
        }
      }
    },
    {
      "fullUrl": "urn:uuid:dca0b3dc-bb1a-42ef-9cf5-7cc5ab9e3c76",
      "resource": {
        "resourceType": "Observation",
        "id": "dca0b3dc-bb1a-42ef-9cf5-7cc5ab9e3c76",
        "meta": {
          "profile": [
            "http://hl7.eu/fhir/laboratory/StructureDefinition/Observation-resultslab-eu-lab"
          ]
        },
        "performer": [
          {
            "display": "The Central European Lab"
          }
        ],
        "category": [
          {
            "coding": [
              {
                "system": "http://terminology.hl7.org/CodeSystem/observation-category",
                "code": "laboratory"
              }
            ]
          }
        ],
        "code": {
          "coding": [
            {
              "code": "2339-0",
              "system": "http://loinc.org",
              "display": "Glucose [Mass/volume] in Blood"
            }
          ],
          "text": "Glucose [Mass/volume] in Blood"
        },
        "valueQuantity": {
          "system": "http://unitsofmeasure.org",
          "value": 94.6,
          "unit": "mg/dL",
          "code": "mg/dL"
        },
        "referenceRange": [
          {
            "low": {
              "value": 70,
              "code": "mg/dL",
              "system": "http://unitsofmeasure.org"
            }
          },
          {
            "high": {
              "value": 140,
              "code": "mg/dL",
              "system": "http://unitsofmeasure.org"
            }
          }
        ],
        "text": {
          "status": "generated",
          "div": "<div xmlns=\"http://www.w3.org/1999/xhtml\"><table class=\"hl7__eu__lab__report\"><tr><th>Test</th><th>13-Feb-2016</th><th>Reference&#xA0;Range</th><th>Unit</th></tr><tr><td>Glucose [Mass/volume] in Blood</td><td>94.6</td><td>70 - 140</td><td></td><td>mg/dL</td></tr></table></div>"
        },
        "status": "final",
        "subject": {
          "reference": "urn:uuid:ba7201ea-95a3-44a4-bec2-68999c062acd",
          "display": "Maria Nohlmans"
        },
        "effectiveDateTime": "2016-02-13T04:35:39Z",
        "specimen": {
          "reference": "urn:uuid:efab94dc-a5d8-4383-bcf1-dc90387a0664"
        }
      }
    },
    {
      "fullUrl": "urn:uuid:c40c44ed-a76c-4e64-85ba-460c608281e4",
      "resource": {
        "resourceType": "Observation",
        "id": "c40c44ed-a76c-4e64-85ba-460c608281e4",
        "meta": {
          "profile": [
            "http://hl7.eu/fhir/laboratory/StructureDefinition/Observation-resultslab-eu-lab"
          ]
        },
        "performer": [
          {
            "display": "The Central European Lab"
          }
        ],
        "category": [
          {
            "coding": [
              {
                "system": "http://terminology.hl7.org/CodeSystem/observation-category",
                "code": "laboratory"
              }
            ]
          }
        ],
        "code": {
          "coding": [
            {
              "code": "6299-2",
              "system": "http://loinc.org",
              "display": "Urea nitrogen [Mass/volume] in Blood"
            }
          ],
          "text": "Urea nitrogen [Mass/volume] in Blood"
        },
        "valueQuantity": {
          "system": "http://unitsofmeasure.org",
          "value": 8.6,
          "unit": "mg/dL",
          "code": "mg/dL"
        },
        "referenceRange": [
          {
            "low": {
              "value": 7,
              "code": "mg/dL",
              "system": "http://unitsofmeasure.org"
            }
          },
          {
            "high": {
              "value": 30,
              "code": "mg/dL",
              "system": "http://unitsofmeasure.org"
            }
          }
        ],
        "text": {
          "status": "generated",
          "div": "<div xmlns=\"http://www.w3.org/1999/xhtml\"><table class=\"hl7__eu__lab__report\"><tr><th>Test</th><th>13-Feb-2016</th><th>Reference&#xA0;Range</th><th>Unit</th></tr><tr><td>Urea nitrogen [Mass/volume] in Blood</td><td>8.6</td><td>7 - 30</td><td></td><td>mg/dL</td></tr></table></div>"
        },
        "status": "final",
        "subject": {
          "reference": "urn:uuid:ba7201ea-95a3-44a4-bec2-68999c062acd",
          "display": "Maria Nohlmans"
        },
        "effectiveDateTime": "2016-02-13T04:35:39Z",
        "specimen": {
          "reference": "urn:uuid:efab94dc-a5d8-4383-bcf1-dc90387a0664"
        }
      }
    },
    {
      "fullUrl": "urn:uuid:2c1227d2-a22c-48d6-95ea-b8b925360c40",
      "resource": {
        "resourceType": "Observation",
        "id": "2c1227d2-a22c-48d6-95ea-b8b925360c40",
        "meta": {
          "profile": [
            "http://hl7.eu/fhir/laboratory/StructureDefinition/Observation-resultslab-eu-lab"
          ]
        },
        "performer": [
          {
            "display": "The Central European Lab"
          }
        ],
        "category": [
          {
            "coding": [
              {
                "system": "http://terminology.hl7.org/CodeSystem/observation-category",
                "code": "laboratory"
              }
            ]
          }
        ],
        "code": {
          "coding": [
            {
              "code": "38483-4",
              "system": "http://loinc.org",
              "display": "Creatinine [Mass/volume] in Blood"
            }
          ],
          "text": "Creatinine [Mass/volume] in Blood"
        },
        "valueQuantity": {
          "system": "http://unitsofmeasure.org",
          "value": 2.6,
          "unit": "mg/dL",
          "code": "mg/dL"
        },
        "referenceRange": [
          {
            "low": {
              "value": 0.5,
              "code": "mg/dL",
              "system": "http://unitsofmeasure.org"
            }
          },
          {
            "high": {
              "value": 1.3,
              "code": "mg/dL",
              "system": "http://unitsofmeasure.org"
            }
          }
        ],
        "interpretation": [
          {
            "coding": [
              {
                "code": "H",
                "system": "http://terminology.hl7.org/CodeSystem/v3-ObservationInterpretation",
                "display": "High"
              }
            ]
          }
        ],
        "text": {
          "status": "generated",
          "div": "<div xmlns=\"http://www.w3.org/1999/xhtml\"><table class=\"hl7__eu__lab__report\"><tr><th>Test</th><th>13-Feb-2016</th><th>Reference&#xA0;Range</th><th>Unit</th></tr><tr><td>Creatinine [Mass/volume] in Blood</td><td>2.6</td><td>0.5 - 1.3</td><td>H</td><td>mg/dL</td></tr></table></div>"
        },
        "status": "final",
        "subject": {
          "reference": "urn:uuid:ba7201ea-95a3-44a4-bec2-68999c062acd",
          "display": "Maria Nohlmans"
        },
        "effectiveDateTime": "2016-02-13T04:35:39Z",
        "specimen": {
          "reference": "urn:uuid:efab94dc-a5d8-4383-bcf1-dc90387a0664"
        }
      }
    },
    {
      "fullUrl": "urn:uuid:4c48d9f2-4a9c-4400-9e7e-9de0e1faea7f",
      "resource": {
        "resourceType": "Observation",
        "id": "4c48d9f2-4a9c-4400-9e7e-9de0e1faea7f",
        "meta": {
          "profile": [
            "http://hl7.eu/fhir/laboratory/StructureDefinition/Observation-resultslab-eu-lab"
          ]
        },
        "performer": [
          {
            "display": "The Central European Lab"
          }
        ],
        "category": [
          {
            "coding": [
              {
                "system": "http://terminology.hl7.org/CodeSystem/observation-category",
                "code": "laboratory"
              }
            ]
          }
        ],
        "code": {
          "coding": [
            {
              "code": "49765-1",
              "system": "http://loinc.org",
              "display": "Calcium [Mass/volume] in Blood"
            }
          ],
          "text": "Calcium [Mass/volume] in Blood"
        },
        "valueQuantity": {
          "system": "http://unitsofmeasure.org",
          "value": 8.9,
          "unit": "mg/dL",
          "code": "mg/dL"
        },
        "referenceRange": [
          {
            "low": {
              "value": 8.6,
              "code": "mg/dL",
              "system": "http://unitsofmeasure.org"
            }
          },
          {
            "high": {
              "value": 10.2,
              "code": "mg/dL",
              "system": "http://unitsofmeasure.org"
            }
          }
        ],
        "text": {
          "status": "generated",
          "div": "<div xmlns=\"http://www.w3.org/1999/xhtml\"><table class=\"hl7__eu__lab__report\"><tr><th>Test</th><th>13-Feb-2016</th><th>Reference&#xA0;Range</th><th>Unit</th></tr><tr><td>Calcium [Mass/volume] in Blood</td><td>8.9</td><td>8.6 - 10.2</td><td></td><td>mg/dL</td></tr></table></div>"
        },
        "status": "final",
        "subject": {
          "reference": "urn:uuid:ba7201ea-95a3-44a4-bec2-68999c062acd",
          "display": "Maria Nohlmans"
        },
        "effectiveDateTime": "2016-02-13T04:35:39Z",
        "specimen": {
          "reference": "urn:uuid:efab94dc-a5d8-4383-bcf1-dc90387a0664"
        }
      }
    },
    {
      "fullUrl": "urn:uuid:60d82de3-e2c3-429f-842a-94c3ba86b64b",
      "resource": {
        "resourceType": "Observation",
        "id": "60d82de3-e2c3-429f-842a-94c3ba86b64b",
        "meta": {
          "profile": [
            "http://hl7.eu/fhir/laboratory/StructureDefinition/Observation-resultslab-eu-lab"
          ]
        },
        "performer": [
          {
            "display": "The Central European Lab"
          }
        ],
        "category": [
          {
            "coding": [
              {
                "system": "http://terminology.hl7.org/CodeSystem/observation-category",
                "code": "laboratory"
              }
            ]
          }
        ],
        "code": {
          "coding": [
            {
              "code": "2947-0",
              "system": "http://loinc.org",
              "display": "Sodium [Moles/volume] in Blood"
            }
          ],
          "text": "Sodium [Moles/volume] in Blood"
        },
        "valueQuantity": {
          "system": "http://unitsofmeasure.org",
          "value": 141.8,
          "unit": "mmol/L",
          "code": "mmol/L"
        },
        "referenceRange": [
          {
            "low": {
              "value": 135,
              "code": "mmol/L",
              "system": "http://unitsofmeasure.org"
            }
          },
          {
            "high": {
              "value": 145,
              "code": "mmol/L",
              "system": "http://unitsofmeasure.org"
            }
          }
        ],
        "text": {
          "status": "generated",
          "div": "<div xmlns=\"http://www.w3.org/1999/xhtml\"><table class=\"hl7__eu__lab__report\"><tr><th>Test</th><th>13-Feb-2016</th><th>Reference&#xA0;Range</th><th>Unit</th></tr><tr><td>Sodium [Moles/volume] in Blood</td><td>141.8</td><td>135 - 145</td><td></td><td>mmol/L</td></tr></table></div>"
        },
        "status": "final",
        "subject": {
          "reference": "urn:uuid:ba7201ea-95a3-44a4-bec2-68999c062acd",
          "display": "Maria Nohlmans"
        },
        "effectiveDateTime": "2016-02-13T04:35:39Z",
        "specimen": {
          "reference": "urn:uuid:efab94dc-a5d8-4383-bcf1-dc90387a0664"
        }
      }
    },
    {
      "fullUrl": "urn:uuid:d41455e5-de80-41dd-b259-07b6b5243140",
      "resource": {
        "resourceType": "Observation",
        "id": "d41455e5-de80-41dd-b259-07b6b5243140",
        "meta": {
          "profile": [
            "http://hl7.eu/fhir/laboratory/StructureDefinition/Observation-resultslab-eu-lab"
          ]
        },
        "performer": [
          {
            "display": "The Central European Lab"
          }
        ],
        "category": [
          {
            "coding": [
              {
                "system": "http://terminology.hl7.org/CodeSystem/observation-category",
                "code": "laboratory"
              }
            ]
          }
        ],
        "code": {
          "coding": [
            {
              "code": "6298-4",
              "system": "http://loinc.org",
              "display": "Potassium [Moles/volume] in Blood"
            }
          ],
          "text": "Potassium [Moles/volume] in Blood"
        },
        "valueQuantity": {
          "system": "http://unitsofmeasure.org",
          "value": 3.8,
          "unit": "mmol/L",
          "code": "mmol/L"
        },
        "referenceRange": [
          {
            "low": {
              "value": 3.5,
              "code": "mmol/L",
              "system": "http://unitsofmeasure.org"
            }
          },
          {
            "high": {
              "value": 5.1,
              "code": "mmol/L",
              "system": "http://unitsofmeasure.org"
            }
          }
        ],
        "text": {
          "status": "generated",
          "div": "<div xmlns=\"http://www.w3.org/1999/xhtml\"><table class=\"hl7__eu__lab__report\"><tr><th>Test</th><th>13-Feb-2016</th><th>Reference&#xA0;Range</th><th>Unit</th></tr><tr><td>Potassium [Moles/volume] in Blood</td><td>3.8</td><td>3.5 - 5.1</td><td></td><td>mmol/L</td></tr></table></div>"
        },
        "status": "final",
        "subject": {
          "reference": "urn:uuid:ba7201ea-95a3-44a4-bec2-68999c062acd",
          "display": "Maria Nohlmans"
        },
        "effectiveDateTime": "2016-02-13T04:35:39Z",
        "specimen": {
          "reference": "urn:uuid:efab94dc-a5d8-4383-bcf1-dc90387a0664"
        }
      }
    },
    {
      "fullUrl": "urn:uuid:cd990e32-be9c-4150-89d5-8861bca2dc53",
      "resource": {
        "resourceType": "Observation",
        "id": "cd990e32-be9c-4150-89d5-8861bca2dc53",
        "meta": {
          "profile": [
            "http://hl7.eu/fhir/laboratory/StructureDefinition/Observation-resultslab-eu-lab"
          ]
        },
        "performer": [
          {
            "display": "The Central European Lab"
          }
        ],
        "category": [
          {
            "coding": [
              {
                "system": "http://terminology.hl7.org/CodeSystem/observation-category",
                "code": "laboratory"
              }
            ]
          }
        ],
        "code": {
          "coding": [
            {
              "code": "2069-3",
              "system": "http://loinc.org",
              "display": "Chloride [Moles/volume] in Blood"
            }
          ],
          "text": "Chloride [Moles/volume] in Blood"
        },
        "valueQuantity": {
          "system": "http://unitsofmeasure.org",
          "value": 101.1,
          "unit": "mmol/L",
          "code": "mmol/L"
        },
        "referenceRange": [
          {
            "low": {
              "value": 98,
              "code": "mmol/L",
              "system": "http://unitsofmeasure.org"
            }
          },
          {
            "high": {
              "value": 114,
              "code": "mmol/L",
              "system": "http://unitsofmeasure.org"
            }
          }
        ],
        "text": {
          "status": "generated",
          "div": "<div xmlns=\"http://www.w3.org/1999/xhtml\"><table class=\"hl7__eu__lab__report\"><tr><th>Test</th><th>13-Feb-2016</th><th>Reference&#xA0;Range</th><th>Unit</th></tr><tr><td>Chloride [Moles/volume] in Blood</td><td>101.1</td><td>98 - 114</td><td></td><td>mmol/L</td></tr></table></div>"
        },
        "status": "final",
        "subject": {
          "reference": "urn:uuid:ba7201ea-95a3-44a4-bec2-68999c062acd",
          "display": "Maria Nohlmans"
        },
        "effectiveDateTime": "2016-02-13T04:35:39Z",
        "specimen": {
          "reference": "urn:uuid:efab94dc-a5d8-4383-bcf1-dc90387a0664"
        }
      }
    },
    {
      "fullUrl": "urn:uuid:ed0b491f-52e1-4999-9e6f-20a46f6223a7",
      "resource": {
        "resourceType": "Observation",
        "id": "ed0b491f-52e1-4999-9e6f-20a46f6223a7",
        "meta": {
          "profile": [
            "http://hl7.eu/fhir/laboratory/StructureDefinition/Observation-resultslab-eu-lab"
          ]
        },
        "performer": [
          {
            "display": "The Central European Lab"
          }
        ],
        "category": [
          {
            "coding": [
              {
                "system": "http://terminology.hl7.org/CodeSystem/observation-category",
                "code": "laboratory"
              }
            ]
          }
        ],
        "code": {
          "coding": [
            {
              "code": "20565-8",
              "system": "http://loinc.org",
              "display": "Carbon dioxide, total [Moles/volume] in Blood"
            }
          ],
          "text": "Carbon dioxide, total [Moles/volume] in Blood"
        },
        "valueQuantity": {
          "system": "http://unitsofmeasure.org",
          "value": 27.6,
          "unit": "mmol/L",
          "code": "mmol/L"
        },
        "referenceRange": [
          {
            "low": {
              "value": 22,
              "code": "mmol/L",
              "system": "http://unitsofmeasure.org"
            }
          },
          {
            "high": {
              "value": 32,
              "code": "mmol/L",
              "system": "http://unitsofmeasure.org"
            }
          }
        ],
        "text": {
          "status": "generated",
          "div": "<div xmlns=\"http://www.w3.org/1999/xhtml\"><table class=\"hl7__eu__lab__report\"><tr><th>Test</th><th>13-Feb-2016</th><th>Reference&#xA0;Range</th><th>Unit</th></tr><tr><td>Carbon dioxide, total [Moles/volume] in Blood</td><td>27.6</td><td>22 - 32</td><td></td><td>mmol/L</td></tr></table></div>"
        },
        "status": "final",
        "subject": {
          "reference": "urn:uuid:ba7201ea-95a3-44a4-bec2-68999c062acd",
          "display": "Maria Nohlmans"
        },
        "effectiveDateTime": "2016-02-13T04:35:39Z",
        "specimen": {
          "reference": "urn:uuid:efab94dc-a5d8-4383-bcf1-dc90387a0664"
        }
      }
    },
    {
      "fullUrl": "urn:uuid:44d25b21-3103-4825-86bb-79fe7b640b19",
      "resource": {
        "resourceType": "Observation",
        "id": "44d25b21-3103-4825-86bb-79fe7b640b19",
        "meta": {
          "profile": [
            "http://hl7.eu/fhir/laboratory/StructureDefinition/Observation-resultslab-eu-lab"
          ]
        },
        "performer": [
          {
            "display": "The Central European Lab"
          }
        ],
        "category": [
          {
            "coding": [
              {
                "system": "http://terminology.hl7.org/CodeSystem/observation-category",
                "code": "laboratory"
              }
            ]
          }
        ],
        "code": {
          "coding": [
            {
              "code": "2885-2",
              "system": "http://loinc.org",
              "display": "Protein [Mass/volume] in Serum or Plasma"
            }
          ],
          "text": "Protein [Mass/volume] in Serum or Plasma"
        },
        "valueQuantity": {
          "system": "http://unitsofmeasure.org",
          "value": 8,
          "unit": "g/dL",
          "code": "g/dL"
        },
        "referenceRange": [
          {
            "low": {
              "value": 6,
              "code": "g/dL",
              "system": "http://unitsofmeasure.org"
            }
          },
          {
            "high": {
              "value": 8.3,
              "code": "g/dL",
              "system": "http://unitsofmeasure.org"
            }
          }
        ],
        "text": {
          "status": "generated",
          "div": "<div xmlns=\"http://www.w3.org/1999/xhtml\"><table class=\"hl7__eu__lab__report\"><tr><th>Test</th><th>13-Feb-2016</th><th>Reference&#xA0;Range</th><th>Unit</th></tr><tr><td>Protein [Mass/volume] in Serum or Plasma</td><td>8.0</td><td>6 - 8.3</td><td></td><td>g/dL</td></tr></table></div>"
        },
        "status": "final",
        "subject": {
          "reference": "urn:uuid:ba7201ea-95a3-44a4-bec2-68999c062acd",
          "display": "Maria Nohlmans"
        },
        "effectiveDateTime": "2016-02-13T04:35:39Z",
        "specimen": {
          "reference": "urn:uuid:856bd339-d9ef-4b03-9b87-d59bbe31391e"
        }
      }
    },
    {
      "fullUrl": "urn:uuid:6f3eadd2-99fb-4414-8bfe-3cd0917b21db",
      "resource": {
        "resourceType": "Observation",
        "id": "6f3eadd2-99fb-4414-8bfe-3cd0917b21db",
        "meta": {
          "profile": [
            "http://hl7.eu/fhir/laboratory/StructureDefinition/Observation-resultslab-eu-lab"
          ]
        },
        "performer": [
          {
            "display": "The Central European Lab"
          }
        ],
        "category": [
          {
            "coding": [
              {
                "system": "http://terminology.hl7.org/CodeSystem/observation-category",
                "code": "laboratory"
              }
            ]
          }
        ],
        "code": {
          "coding": [
            {
              "code": "1751-7",
              "system": "http://loinc.org",
              "display": "Albumin [Mass/volume] in Serum or Plasma"
            }
          ],
          "text": "Albumin [Mass/volume] in Serum or Plasma"
        },
        "valueQuantity": {
          "system": "http://unitsofmeasure.org",
          "value": 5.5,
          "unit": "g/dL",
          "code": "g/dL"
        },
        "referenceRange": [
          {
            "low": {
              "value": 3.5,
              "code": "g/dL",
              "system": "http://unitsofmeasure.org"
            }
          },
          {
            "high": {
              "value": 5.5,
              "code": "g/dL",
              "system": "http://unitsofmeasure.org"
            }
          }
        ],
        "text": {
          "status": "generated",
          "div": "<div xmlns=\"http://www.w3.org/1999/xhtml\"><table class=\"hl7__eu__lab__report\"><tr><th>Test</th><th>13-Feb-2016</th><th>Reference&#xA0;Range</th><th>Unit</th></tr><tr><td>Albumin [Mass/volume] in Serum or Plasma</td><td>5.5</td><td>3.5 - 5.5</td><td></td><td>g/dL</td></tr></table></div>"
        },
        "status": "final",
        "subject": {
          "reference": "urn:uuid:ba7201ea-95a3-44a4-bec2-68999c062acd",
          "display": "Maria Nohlmans"
        },
        "effectiveDateTime": "2016-02-13T04:35:39Z",
        "specimen": {
          "reference": "urn:uuid:856bd339-d9ef-4b03-9b87-d59bbe31391e"
        }
      }
    },
    {
      "fullUrl": "urn:uuid:2fc90d15-d6e5-4b0e-bb03-e2aa7d190d5f",
      "resource": {
        "resourceType": "Observation",
        "id": "2fc90d15-d6e5-4b0e-bb03-e2aa7d190d5f",
        "meta": {
          "profile": [
            "http://hl7.eu/fhir/laboratory/StructureDefinition/Observation-resultslab-eu-lab"
          ]
        },
        "performer": [
          {
            "display": "The Central European Lab"
          }
        ],
        "category": [
          {
            "coding": [
              {
                "system": "http://terminology.hl7.org/CodeSystem/observation-category",
                "code": "laboratory"
              }
            ]
          }
        ],
        "code": {
          "coding": [
            {
              "code": "10834-0",
              "system": "http://loinc.org",
              "display": "Globulin [Mass/volume] in Serum by calculation"
            }
          ],
          "text": "Globulin [Mass/volume] in Serum by calculation"
        },
        "valueQuantity": {
          "system": "http://unitsofmeasure.org",
          "value": 2.7,
          "unit": "g/L",
          "code": "g/L"
        },
        "referenceRange": [
          {
            "low": {
              "value": 2,
              "code": "g/L",
              "system": "http://unitsofmeasure.org"
            }
          },
          {
            "high": {
              "value": 3.5,
              "code": "g/L",
              "system": "http://unitsofmeasure.org"
            }
          }
        ],
        "text": {
          "status": "generated",
          "div": "<div xmlns=\"http://www.w3.org/1999/xhtml\"><table class=\"hl7__eu__lab__report\"><tr><th>Test</th><th>13-Feb-2016</th><th>Reference&#xA0;Range</th><th>Unit</th></tr><tr><td>Globulin [Mass/volume] in Serum by calculation</td><td>2.7</td><td>2 - 3.5</td><td></td><td>g/L</td></tr></table></div>"
        },
        "status": "final",
        "subject": {
          "reference": "urn:uuid:ba7201ea-95a3-44a4-bec2-68999c062acd",
          "display": "Maria Nohlmans"
        },
        "effectiveDateTime": "2016-02-13T04:35:39Z",
        "specimen": {
          "reference": "urn:uuid:f52f780f-6c94-4bfe-acc7-a37a99137513"
        }
      }
    },
    {
      "fullUrl": "urn:uuid:8bf6dcd1-9c3b-4a0a-b233-924275c31762",
      "resource": {
        "resourceType": "Observation",
        "id": "8bf6dcd1-9c3b-4a0a-b233-924275c31762",
        "meta": {
          "profile": [
            "http://hl7.eu/fhir/laboratory/StructureDefinition/Observation-resultslab-eu-lab"
          ]
        },
        "performer": [
          {
            "display": "The Central European Lab"
          }
        ],
        "category": [
          {
            "coding": [
              {
                "system": "http://terminology.hl7.org/CodeSystem/observation-category",
                "code": "laboratory"
              }
            ]
          }
        ],
        "code": {
          "coding": [
            {
              "code": "1975-2",
              "system": "http://loinc.org",
              "display": "Bilirubin.total [Mass/volume] in Serum or Plasma"
            }
          ],
          "text": "Bilirubin.total [Mass/volume] in Serum or Plasma"
        },
        "valueQuantity": {
          "system": "http://unitsofmeasure.org",
          "value": 0.5,
          "unit": "mg/dL",
          "code": "mg/dL"
        },
        "referenceRange": [
          {
            "low": {
              "value": 0.3,
              "code": "mg/dL",
              "system": "http://unitsofmeasure.org"
            }
          },
          {
            "high": {
              "value": 1.2,
              "code": "mg/dL",
              "system": "http://unitsofmeasure.org"
            }
          }
        ],
        "text": {
          "status": "generated",
          "div": "<div xmlns=\"http://www.w3.org/1999/xhtml\"><table class=\"hl7__eu__lab__report\"><tr><th>Test</th><th>13-Feb-2016</th><th>Reference&#xA0;Range</th><th>Unit</th></tr><tr><td>Bilirubin.total [Mass/volume] in Serum or Plasma</td><td>0.5</td><td>0.3 - 1.2</td><td></td><td>mg/dL</td></tr></table></div>"
        },
        "status": "final",
        "subject": {
          "reference": "urn:uuid:ba7201ea-95a3-44a4-bec2-68999c062acd",
          "display": "Maria Nohlmans"
        },
        "effectiveDateTime": "2016-02-13T04:35:39Z",
        "specimen": {
          "reference": "urn:uuid:856bd339-d9ef-4b03-9b87-d59bbe31391e"
        }
      }
    },
    {
      "fullUrl": "urn:uuid:8d355f6a-0fb0-4598-83c0-67f03fb1bcfa",
      "resource": {
        "resourceType": "Observation",
        "id": "8d355f6a-0fb0-4598-83c0-67f03fb1bcfa",
        "meta": {
          "profile": [
            "http://hl7.eu/fhir/laboratory/StructureDefinition/Observation-resultslab-eu-lab"
          ]
        },
        "performer": [
          {
            "display": "The Central European Lab"
          }
        ],
        "category": [
          {
            "coding": [
              {
                "system": "http://terminology.hl7.org/CodeSystem/observation-category",
                "code": "laboratory"
              }
            ]
          }
        ],
        "code": {
          "coding": [
            {
              "code": "6768-6",
              "system": "http://loinc.org",
              "display": "Alkaline phosphatase [Enzymatic activity/volume] in Serum or Plasma"
            }
          ],
          "text": "Alkaline phosphatase [Enzymatic activity/volume] in Serum or Plasma"
        },
        "valueQuantity": {
          "system": "http://unitsofmeasure.org",
          "value": 72.5,
          "unit": "U/L",
          "code": "U/L"
        },
        "referenceRange": [
          {
            "low": {
              "value": 44,
              "code": "U/L",
              "system": "http://unitsofmeasure.org"
            }
          },
          {
            "high": {
              "value": 142,
              "code": "U/L",
              "system": "http://unitsofmeasure.org"
            }
          }
        ],
        "text": {
          "status": "generated",
          "div": "<div xmlns=\"http://www.w3.org/1999/xhtml\"><table class=\"hl7__eu__lab__report\"><tr><th>Test</th><th>13-Feb-2016</th><th>Reference&#xA0;Range</th><th>Unit</th></tr><tr><td>Alkaline phosphatase [Enzymatic activity/volume] in Serum or Plasma</td><td>72.5</td><td>44 - 142</td><td></td><td>U/L</td></tr></table></div>"
        },
        "status": "final",
        "subject": {
          "reference": "urn:uuid:ba7201ea-95a3-44a4-bec2-68999c062acd",
          "display": "Maria Nohlmans"
        },
        "effectiveDateTime": "2016-02-13T04:35:39Z",
        "specimen": {
          "reference": "urn:uuid:856bd339-d9ef-4b03-9b87-d59bbe31391e"
        }
      }
    },
    {
      "fullUrl": "urn:uuid:ca22fc54-4325-44a4-9fa7-58ab2742c6b7",
      "resource": {
        "resourceType": "Observation",
        "id": "ca22fc54-4325-44a4-9fa7-58ab2742c6b7",
        "meta": {
          "profile": [
            "http://hl7.eu/fhir/laboratory/StructureDefinition/Observation-resultslab-eu-lab"
          ]
        },
        "performer": [
          {
            "display": "The Central European Lab"
          }
        ],
        "category": [
          {
            "coding": [
              {
                "system": "http://terminology.hl7.org/CodeSystem/observation-category",
                "code": "laboratory"
              }
            ]
          }
        ],
        "code": {
          "coding": [
            {
              "code": "1742-6",
              "system": "http://loinc.org",
              "display": "Alanine aminotransferase [Enzymatic activity/volume] in Serum or Plasma"
            }
          ],
          "text": "Alanine aminotransferase [Enzymatic activity/volume] in Serum or Plasma"
        },
        "valueQuantity": {
          "system": "http://unitsofmeasure.org",
          "value": 34.3,
          "unit": "U/L",
          "code": "U/L"
        },
        "referenceRange": [
          {
            "low": {
              "value": 7,
              "code": "U/L",
              "system": "http://unitsofmeasure.org"
            }
          },
          {
            "high": {
              "value": 40,
              "code": "U/L",
              "system": "http://unitsofmeasure.org"
            }
          }
        ],
        "text": {
          "status": "generated",
          "div": "<div xmlns=\"http://www.w3.org/1999/xhtml\"><table class=\"hl7__eu__lab__report\"><tr><th>Test</th><th>13-Feb-2016</th><th>Reference&#xA0;Range</th><th>Unit</th></tr><tr><td>Alanine aminotransferase [Enzymatic activity/volume] in Serum or Plasma</td><td>34.3</td><td>7 - 40</td><td></td><td>U/L</td></tr></table></div>"
        },
        "status": "final",
        "subject": {
          "reference": "urn:uuid:ba7201ea-95a3-44a4-bec2-68999c062acd",
          "display": "Maria Nohlmans"
        },
        "effectiveDateTime": "2016-02-13T04:35:39Z",
        "specimen": {
          "reference": "urn:uuid:856bd339-d9ef-4b03-9b87-d59bbe31391e"
        }
      }
    },
    {
      "fullUrl": "urn:uuid:7f0d0e12-b80d-4330-b332-500f29196ace",
      "resource": {
        "resourceType": "Observation",
        "id": "7f0d0e12-b80d-4330-b332-500f29196ace",
        "meta": {
          "profile": [
            "http://hl7.eu/fhir/laboratory/StructureDefinition/Observation-resultslab-eu-lab"
          ]
        },
        "performer": [
          {
            "display": "The Central European Lab"
          }
        ],
        "category": [
          {
            "coding": [
              {
                "system": "http://terminology.hl7.org/CodeSystem/observation-category",
                "code": "laboratory"
              }
            ]
          }
        ],
        "code": {
          "coding": [
            {
              "code": "1920-8",
              "system": "http://loinc.org",
              "display": "Aspartate aminotransferase [Enzymatic activity/volume] in Serum or Plasma"
            }
          ],
          "text": "Aspartate aminotransferase [Enzymatic activity/volume] in Serum or Plasma"
        },
        "valueQuantity": {
          "system": "http://unitsofmeasure.org",
          "value": 33.3,
          "unit": "U/L",
          "code": "U/L"
        },
        "referenceRange": [
          {
            "low": {
              "value": 10,
              "code": "U/L",
              "system": "http://unitsofmeasure.org"
            }
          },
          {
            "high": {
              "value": 40,
              "code": "U/L",
              "system": "http://unitsofmeasure.org"
            }
          }
        ],
        "text": {
          "status": "generated",
          "div": "<div xmlns=\"http://www.w3.org/1999/xhtml\"><table class=\"hl7__eu__lab__report\"><tr><th>Test</th><th>13-Feb-2016</th><th>Reference&#xA0;Range</th><th>Unit</th></tr><tr><td>Aspartate aminotransferase [Enzymatic activity/volume] in Serum or Plasma</td><td>33.3</td><td>10 - 40</td><td></td><td>U/L</td></tr></table></div>"
        },
        "status": "final",
        "subject": {
          "reference": "urn:uuid:ba7201ea-95a3-44a4-bec2-68999c062acd",
          "display": "Maria Nohlmans"
        },
        "effectiveDateTime": "2016-02-13T04:35:39Z",
        "specimen": {
          "reference": "urn:uuid:856bd339-d9ef-4b03-9b87-d59bbe31391e"
        }
      }
    },
    {
      "fullUrl": "urn:uuid:ea372656-bee0-4e52-9a89-c3366a667dc0",
      "resource": {
        "resourceType": "Observation",
        "id": "ea372656-bee0-4e52-9a89-c3366a667dc0",
        "meta": {
          "profile": [
            "http://hl7.eu/fhir/laboratory/StructureDefinition/Observation-resultslab-eu-lab"
          ]
        },
        "performer": [
          {
            "display": "The Central European Lab"
          }
        ],
        "category": [
          {
            "coding": [
              {
                "system": "http://terminology.hl7.org/CodeSystem/observation-category",
                "code": "laboratory"
              }
            ]
          }
        ],
        "code": {
          "coding": [
            {
              "code": "5767-9",
              "system": "http://loinc.org",
              "display": "Appearance of Urine"
            }
          ],
          "text": "Appearance of Urine"
        },
        "text": {
          "status": "generated",
          "div": "<div xmlns=\"http://www.w3.org/1999/xhtml\"><table class=\"hl7__eu__lab__report\"><tr><th>Test</th><th>13-Feb-2016</th><th>Reference&#xA0;Range</th><th>Unit</th></tr><tr><td>Appearance of Urine</td></tr></table></div>"
        },
        "status": "final",
        "subject": {
          "reference": "urn:uuid:ba7201ea-95a3-44a4-bec2-68999c062acd",
          "display": "Maria Nohlmans"
        },
        "effectiveDateTime": "2016-02-13T04:35:39Z",
        "specimen": {
          "reference": "urn:uuid:28989ee6-b3ce-4a39-b0d5-f05ba12f0333"
        }
      }
    },
    {
      "fullUrl": "urn:uuid:838cd897-fb43-4619-ae19-747a40040153",
      "resource": {
        "resourceType": "Observation",
        "id": "838cd897-fb43-4619-ae19-747a40040153",
        "meta": {
          "profile": [
            "http://hl7.eu/fhir/laboratory/StructureDefinition/Observation-resultslab-eu-lab"
          ]
        },
        "performer": [
          {
            "display": "The Central European Lab"
          }
        ],
        "category": [
          {
            "coding": [
              {
                "system": "http://terminology.hl7.org/CodeSystem/observation-category",
                "code": "laboratory"
              }
            ]
          }
        ],
        "code": {
          "coding": [
            {
              "code": "34533-0",
              "system": "http://loinc.org",
              "display": "Odor of Urine"
            }
          ],
          "text": "Odor of Urine"
        },
        "text": {
          "status": "generated",
          "div": "<div xmlns=\"http://www.w3.org/1999/xhtml\"><table class=\"hl7__eu__lab__report\"><tr><th>Test</th><th>13-Feb-2016</th><th>Reference&#xA0;Range</th><th>Unit</th></tr><tr><td>Odor of Urine</td></tr></table></div>"
        },
        "status": "final",
        "subject": {
          "reference": "urn:uuid:ba7201ea-95a3-44a4-bec2-68999c062acd",
          "display": "Maria Nohlmans"
        },
        "effectiveDateTime": "2016-02-13T04:35:39Z",
        "specimen": {
          "reference": "urn:uuid:28989ee6-b3ce-4a39-b0d5-f05ba12f0333"
        }
      }
    },
    {
      "fullUrl": "urn:uuid:82d6bd40-67d8-45ea-8b4c-545486973e84",
      "resource": {
        "resourceType": "Observation",
        "id": "82d6bd40-67d8-45ea-8b4c-545486973e84",
        "meta": {
          "profile": [
            "http://hl7.eu/fhir/laboratory/StructureDefinition/Observation-resultslab-eu-lab"
          ]
        },
        "performer": [
          {
            "display": "The Central European Lab"
          }
        ],
        "category": [
          {
            "coding": [
              {
                "system": "http://terminology.hl7.org/CodeSystem/observation-category",
                "code": "laboratory"
              }
            ]
          }
        ],
        "code": {
          "coding": [
            {
              "code": "32167-9",
              "system": "http://loinc.org",
              "display": "Clarity of Urine"
            }
          ],
          "text": "Clarity of Urine"
        },
        "text": {
          "status": "generated",
          "div": "<div xmlns=\"http://www.w3.org/1999/xhtml\"><table class=\"hl7__eu__lab__report\"><tr><th>Test</th><th>13-Feb-2016</th><th>Reference&#xA0;Range</th><th>Unit</th></tr><tr><td>Clarity of Urine</td></tr></table></div>"
        },
        "status": "final",
        "subject": {
          "reference": "urn:uuid:ba7201ea-95a3-44a4-bec2-68999c062acd",
          "display": "Maria Nohlmans"
        },
        "effectiveDateTime": "2016-02-13T04:35:39Z",
        "specimen": {
          "reference": "urn:uuid:28989ee6-b3ce-4a39-b0d5-f05ba12f0333"
        }
      }
    },
    {
      "fullUrl": "urn:uuid:9ce2c7c0-7d89-43ee-868e-4f5d6ffbfe91",
      "resource": {
        "resourceType": "Observation",
        "id": "9ce2c7c0-7d89-43ee-868e-4f5d6ffbfe91",
        "meta": {
          "profile": [
            "http://hl7.eu/fhir/laboratory/StructureDefinition/Observation-resultslab-eu-lab"
          ]
        },
        "performer": [
          {
            "display": "The Central European Lab"
          }
        ],
        "category": [
          {
            "coding": [
              {
                "system": "http://terminology.hl7.org/CodeSystem/observation-category",
                "code": "laboratory"
              }
            ]
          }
        ],
        "code": {
          "coding": [
            {
              "code": "5778-6",
              "system": "http://loinc.org",
              "display": "Color of Urine"
            }
          ],
          "text": "Color of Urine"
        },
        "text": {
          "status": "generated",
          "div": "<div xmlns=\"http://www.w3.org/1999/xhtml\"><table class=\"hl7__eu__lab__report\"><tr><th>Test</th><th>13-Feb-2016</th><th>Reference&#xA0;Range</th><th>Unit</th></tr><tr><td>Color of Urine</td></tr></table></div>"
        },
        "status": "final",
        "subject": {
          "reference": "urn:uuid:ba7201ea-95a3-44a4-bec2-68999c062acd",
          "display": "Maria Nohlmans"
        },
        "effectiveDateTime": "2016-02-13T04:35:39Z",
        "specimen": {
          "reference": "urn:uuid:28989ee6-b3ce-4a39-b0d5-f05ba12f0333"
        }
      }
    },
    {
      "fullUrl": "urn:uuid:5514e99e-666f-4c00-9027-54f9aa9f225a",
      "resource": {
        "resourceType": "Observation",
        "id": "5514e99e-666f-4c00-9027-54f9aa9f225a",
        "meta": {
          "profile": [
            "http://hl7.eu/fhir/laboratory/StructureDefinition/Observation-resultslab-eu-lab"
          ]
        },
        "performer": [
          {
            "display": "The Central European Lab"
          }
        ],
        "category": [
          {
            "coding": [
              {
                "system": "http://terminology.hl7.org/CodeSystem/observation-category",
                "code": "laboratory"
              }
            ]
          }
        ],
        "code": {
          "coding": [
            {
              "code": "5792-7",
              "system": "http://loinc.org",
              "display": "Glucose [Mass/volume] in Urine by Test strip"
            }
          ],
          "text": "Glucose [Mass/volume] in Urine by Test strip"
        },
        "valueQuantity": {
          "system": "http://unitsofmeasure.org",
          "value": 1.5,
          "unit": "mg/dL",
          "code": "mg/dL"
        },
        "referenceRange": [
          {
            "low": {
              "value": 0.8,
              "code": "mg/dL",
              "system": "http://unitsofmeasure.org"
            }
          },
          {
            "high": {
              "value": 0,
              "code": "mg/dL",
              "system": "http://unitsofmeasure.org"
            }
          }
        ],
        "interpretation": [
          {
            "coding": [
              {
                "code": "H",
                "system": "http://terminology.hl7.org/CodeSystem/v3-ObservationInterpretation",
                "display": "High"
              }
            ]
          }
        ],
        "text": {
          "status": "generated",
          "div": "<div xmlns=\"http://www.w3.org/1999/xhtml\"><table class=\"hl7__eu__lab__report\"><tr><th>Test</th><th>13-Feb-2016</th><th>Reference&#xA0;Range</th><th>Unit</th></tr><tr><td>Glucose [Mass/volume] in Urine by Test strip</td><td>1.5</td><td>0.8 - 0</td><td>H</td><td>mg/dL</td></tr></table></div>"
        },
        "status": "final",
        "subject": {
          "reference": "urn:uuid:ba7201ea-95a3-44a4-bec2-68999c062acd",
          "display": "Maria Nohlmans"
        },
        "effectiveDateTime": "2016-02-13T04:35:39Z",
        "specimen": {
          "reference": "urn:uuid:28989ee6-b3ce-4a39-b0d5-f05ba12f0333"
        }
      }
    },
    {
      "fullUrl": "urn:uuid:bfa563ad-29c8-4517-a2db-756c2601ce5e",
      "resource": {
        "resourceType": "Observation",
        "id": "bfa563ad-29c8-4517-a2db-756c2601ce5e",
        "meta": {
          "profile": [
            "http://hl7.eu/fhir/laboratory/StructureDefinition/Observation-resultslab-eu-lab"
          ]
        },
        "performer": [
          {
            "display": "The Central European Lab"
          }
        ],
        "category": [
          {
            "coding": [
              {
                "system": "http://terminology.hl7.org/CodeSystem/observation-category",
                "code": "laboratory"
              }
            ]
          }
        ],
        "code": {
          "coding": [
            {
              "code": "25428-4",
              "system": "http://loinc.org",
              "display": "Glucose [Presence] in Urine by Test strip"
            }
          ],
          "text": "Glucose [Presence] in Urine by Test strip"
        },
        "text": {
          "status": "generated",
          "div": "<div xmlns=\"http://www.w3.org/1999/xhtml\"><table class=\"hl7__eu__lab__report\"><tr><th>Test</th><th>13-Feb-2016</th><th>Reference&#xA0;Range</th><th>Unit</th></tr><tr><td>Glucose [Presence] in Urine by Test strip</td></tr></table></div>"
        },
        "status": "final",
        "subject": {
          "reference": "urn:uuid:ba7201ea-95a3-44a4-bec2-68999c062acd",
          "display": "Maria Nohlmans"
        },
        "effectiveDateTime": "2016-02-13T04:35:39Z",
        "specimen": {
          "reference": "urn:uuid:28989ee6-b3ce-4a39-b0d5-f05ba12f0333"
        }
      }
    },
    {
      "fullUrl": "urn:uuid:84a7029c-d154-47fa-976f-f4b210723507",
      "resource": {
        "resourceType": "Observation",
        "id": "84a7029c-d154-47fa-976f-f4b210723507",
        "meta": {
          "profile": [
            "http://hl7.eu/fhir/laboratory/StructureDefinition/Observation-resultslab-eu-lab"
          ]
        },
        "performer": [
          {
            "display": "The Central European Lab"
          }
        ],
        "category": [
          {
            "coding": [
              {
                "system": "http://terminology.hl7.org/CodeSystem/observation-category",
                "code": "laboratory"
              }
            ]
          }
        ],
        "code": {
          "coding": [
            {
              "code": "20505-4",
              "system": "http://loinc.org",
              "display": "Bilirubin.total [Mass/volume] in Urine by Test strip"
            }
          ],
          "text": "Bilirubin.total [Mass/volume] in Urine by Test strip"
        },
        "valueQuantity": {
          "system": "http://unitsofmeasure.org",
          "value": 0.9,
          "unit": "mg/dL",
          "code": "mg/dL"
        },
        "referenceRange": [
          {
            "low": {
              "value": 0,
              "code": "mg/dL",
              "system": "http://unitsofmeasure.org"
            }
          },
          {
            "high": {
              "value": 1.5,
              "code": "mg/dL",
              "system": "http://unitsofmeasure.org"
            }
          }
        ],
        "text": {
          "status": "generated",
          "div": "<div xmlns=\"http://www.w3.org/1999/xhtml\"><table class=\"hl7__eu__lab__report\"><tr><th>Test</th><th>13-Feb-2016</th><th>Reference&#xA0;Range</th><th>Unit</th></tr><tr><td>Bilirubin.total [Mass/volume] in Urine by Test strip</td><td>0.9</td><td>0 - 1.5</td><td></td><td>mg/dL</td></tr></table></div>"
        },
        "status": "final",
        "subject": {
          "reference": "urn:uuid:ba7201ea-95a3-44a4-bec2-68999c062acd",
          "display": "Maria Nohlmans"
        },
        "effectiveDateTime": "2016-02-13T04:35:39Z",
        "specimen": {
          "reference": "urn:uuid:28989ee6-b3ce-4a39-b0d5-f05ba12f0333"
        }
      }
    },
    {
      "fullUrl": "urn:uuid:fe59a715-3cd1-4236-90e3-a347c757d9f2",
      "resource": {
        "resourceType": "Observation",
        "id": "fe59a715-3cd1-4236-90e3-a347c757d9f2",
        "meta": {
          "profile": [
            "http://hl7.eu/fhir/laboratory/StructureDefinition/Observation-resultslab-eu-lab"
          ]
        },
        "performer": [
          {
            "display": "The Central European Lab"
          }
        ],
        "category": [
          {
            "coding": [
              {
                "system": "http://terminology.hl7.org/CodeSystem/observation-category",
                "code": "laboratory"
              }
            ]
          }
        ],
        "code": {
          "coding": [
            {
              "code": "5770-3",
              "system": "http://loinc.org",
              "display": "Bilirubin.total [Presence] in Urine by Test strip"
            }
          ],
          "text": "Bilirubin.total [Presence] in Urine by Test strip"
        },
        "text": {
          "status": "generated",
          "div": "<div xmlns=\"http://www.w3.org/1999/xhtml\"><table class=\"hl7__eu__lab__report\"><tr><th>Test</th><th>13-Feb-2016</th><th>Reference&#xA0;Range</th><th>Unit</th></tr><tr><td>Bilirubin.total [Presence] in Urine by Test strip</td></tr></table></div>"
        },
        "status": "final",
        "subject": {
          "reference": "urn:uuid:ba7201ea-95a3-44a4-bec2-68999c062acd",
          "display": "Maria Nohlmans"
        },
        "effectiveDateTime": "2016-02-13T04:35:39Z",
        "specimen": {
          "reference": "urn:uuid:28989ee6-b3ce-4a39-b0d5-f05ba12f0333"
        }
      }
    },
    {
      "fullUrl": "urn:uuid:c644d4d0-1398-47c5-84df-b7b13b7177a4",
      "resource": {
        "resourceType": "Observation",
        "id": "c644d4d0-1398-47c5-84df-b7b13b7177a4",
        "meta": {
          "profile": [
            "http://hl7.eu/fhir/laboratory/StructureDefinition/Observation-resultslab-eu-lab"
          ]
        },
        "performer": [
          {
            "display": "The Central European Lab"
          }
        ],
        "category": [
          {
            "coding": [
              {
                "system": "http://terminology.hl7.org/CodeSystem/observation-category",
                "code": "laboratory"
              }
            ]
          }
        ],
        "code": {
          "coding": [
            {
              "code": "5797-6",
              "system": "http://loinc.org",
              "display": "Ketones [Mass/volume] in Urine by Test strip"
            }
          ],
          "text": "Ketones [Mass/volume] in Urine by Test strip"
        },
        "valueQuantity": {
          "system": "http://unitsofmeasure.org",
          "value": 19.4,
          "unit": "mg/dL",
          "code": "mg/dL"
        },
        "referenceRange": [
          {
            "low": {
              "value": 0,
              "code": "mg/dL",
              "system": "http://unitsofmeasure.org"
            }
          },
          {
            "high": {
              "value": 8,
              "code": "mg/dL",
              "system": "http://unitsofmeasure.org"
            }
          }
        ],
        "interpretation": [
          {
            "coding": [
              {
                "code": "H",
                "system": "http://terminology.hl7.org/CodeSystem/v3-ObservationInterpretation",
                "display": "High"
              }
            ]
          }
        ],
        "text": {
          "status": "generated",
          "div": "<div xmlns=\"http://www.w3.org/1999/xhtml\"><table class=\"hl7__eu__lab__report\"><tr><th>Test</th><th>13-Feb-2016</th><th>Reference&#xA0;Range</th><th>Unit</th></tr><tr><td>Ketones [Mass/volume] in Urine by Test strip</td><td>19.4</td><td>0 - 8</td><td>H</td><td>mg/dL</td></tr></table></div>"
        },
        "status": "final",
        "subject": {
          "reference": "urn:uuid:ba7201ea-95a3-44a4-bec2-68999c062acd",
          "display": "Maria Nohlmans"
        },
        "effectiveDateTime": "2016-02-13T04:35:39Z",
        "specimen": {
          "reference": "urn:uuid:28989ee6-b3ce-4a39-b0d5-f05ba12f0333"
        }
      }
    },
    {
      "fullUrl": "urn:uuid:f4ae092b-0ed0-4fd3-b033-d722dc568107",
      "resource": {
        "resourceType": "Observation",
        "id": "f4ae092b-0ed0-4fd3-b033-d722dc568107",
        "meta": {
          "profile": [
            "http://hl7.eu/fhir/laboratory/StructureDefinition/Observation-resultslab-eu-lab"
          ]
        },
        "performer": [
          {
            "display": "The Central European Lab"
          }
        ],
        "category": [
          {
            "coding": [
              {
                "system": "http://terminology.hl7.org/CodeSystem/observation-category",
                "code": "laboratory"
              }
            ]
          }
        ],
        "code": {
          "coding": [
            {
              "code": "2514-8",
              "system": "http://loinc.org",
              "display": "Ketones [Presence] in Urine by Test strip"
            }
          ],
          "text": "Ketones [Presence] in Urine by Test strip"
        },
        "text": {
          "status": "generated",
          "div": "<div xmlns=\"http://www.w3.org/1999/xhtml\"><table class=\"hl7__eu__lab__report\"><tr><th>Test</th><th>13-Feb-2016</th><th>Reference&#xA0;Range</th><th>Unit</th></tr><tr><td>Ketones [Presence] in Urine by Test strip</td></tr></table></div>"
        },
        "status": "final",
        "subject": {
          "reference": "urn:uuid:ba7201ea-95a3-44a4-bec2-68999c062acd",
          "display": "Maria Nohlmans"
        },
        "effectiveDateTime": "2016-02-13T04:35:39Z",
        "specimen": {
          "reference": "urn:uuid:28989ee6-b3ce-4a39-b0d5-f05ba12f0333"
        }
      }
    },
    {
      "fullUrl": "urn:uuid:0ebf4465-e9ec-4340-a567-0024025d0ebc",
      "resource": {
        "resourceType": "Observation",
        "id": "0ebf4465-e9ec-4340-a567-0024025d0ebc",
        "meta": {
          "profile": [
            "http://hl7.eu/fhir/laboratory/StructureDefinition/Observation-resultslab-eu-lab"
          ]
        },
        "performer": [
          {
            "display": "The Central European Lab"
          }
        ],
        "category": [
          {
            "coding": [
              {
                "system": "http://terminology.hl7.org/CodeSystem/observation-category",
                "code": "laboratory"
              }
            ]
          }
        ],
        "code": {
          "coding": [
            {
              "code": "5811-5",
              "system": "http://loinc.org",
              "display": "Specific gravity of Urine by Test strip"
            }
          ],
          "text": "Specific gravity of Urine by Test strip"
        },
        "valueQuantity": {
          "system": "http://unitsofmeasure.org",
          "value": 1,
          "unit": "{nominal}",
          "code": "{nominal}"
        },
        "referenceRange": [
          {
            "low": {
              "value": 1.01,
              "code": "g/mL",
              "system": "http://unitsofmeasure.org"
            }
          },
          {
            "high": {
              "value": 1.03,
              "code": "g/mL",
              "system": "http://unitsofmeasure.org"
            }
          }
        ],
        "interpretation": [
          {
            "coding": [
              {
                "code": "L",
                "system": "http://terminology.hl7.org/CodeSystem/v3-ObservationInterpretation",
                "display": "Low"
              }
            ]
          }
        ],
        "text": {
          "status": "generated",
          "div": "<div xmlns=\"http://www.w3.org/1999/xhtml\"><table class=\"hl7__eu__lab__report\"><tr><th>Test</th><th>13-Feb-2016</th><th>Reference&#xA0;Range</th><th>Unit</th></tr><tr><td>Specific gravity of Urine by Test strip</td><td>1.0</td><td>1.01 - 1.03</td><td>L</td><td>{nominal}</td></tr></table></div>"
        },
        "status": "final",
        "subject": {
          "reference": "urn:uuid:ba7201ea-95a3-44a4-bec2-68999c062acd",
          "display": "Maria Nohlmans"
        },
        "effectiveDateTime": "2016-02-13T04:35:39Z",
        "specimen": {
          "reference": "urn:uuid:28989ee6-b3ce-4a39-b0d5-f05ba12f0333"
        }
      }
    },
    {
      "fullUrl": "urn:uuid:02f7d9db-dbca-45d1-98b6-a046a3a14d2f",
      "resource": {
        "resourceType": "Observation",
        "id": "02f7d9db-dbca-45d1-98b6-a046a3a14d2f",
        "meta": {
          "profile": [
            "http://hl7.eu/fhir/laboratory/StructureDefinition/Observation-resultslab-eu-lab"
          ]
        },
        "performer": [
          {
            "display": "The Central European Lab"
          }
        ],
        "category": [
          {
            "coding": [
              {
                "system": "http://terminology.hl7.org/CodeSystem/observation-category",
                "code": "laboratory"
              }
            ]
          }
        ],
        "code": {
          "coding": [
            {
              "code": "5803-2",
              "system": "http://loinc.org",
              "display": "pH of Urine by Test strip"
            }
          ],
          "text": "pH of Urine by Test strip"
        },
        "valueQuantity": {
          "system": "http://unitsofmeasure.org",
          "value": 5.9,
          "unit": "pH",
          "code": "pH"
        },
        "referenceRange": [
          {
            "low": {
              "value": 4.6,
              "code": "pH",
              "system": "http://unitsofmeasure.org"
            }
          },
          {
            "high": {
              "value": 7.5,
              "code": "pH",
              "system": "http://unitsofmeasure.org"
            }
          }
        ],
        "text": {
          "status": "generated",
          "div": "<div xmlns=\"http://www.w3.org/1999/xhtml\"><table class=\"hl7__eu__lab__report\"><tr><th>Test</th><th>13-Feb-2016</th><th>Reference&#xA0;Range</th><th>Unit</th></tr><tr><td>pH of Urine by Test strip</td><td>5.9</td><td>4.6 - 7.5</td><td></td><td>pH</td></tr></table></div>"
        },
        "status": "final",
        "subject": {
          "reference": "urn:uuid:ba7201ea-95a3-44a4-bec2-68999c062acd",
          "display": "Maria Nohlmans"
        },
        "effectiveDateTime": "2016-02-13T04:35:39Z",
        "specimen": {
          "reference": "urn:uuid:28989ee6-b3ce-4a39-b0d5-f05ba12f0333"
        }
      }
    },
    {
      "fullUrl": "urn:uuid:90da6084-58b6-49d0-892f-8260d07f1c25",
      "resource": {
        "resourceType": "Observation",
        "id": "90da6084-58b6-49d0-892f-8260d07f1c25",
        "meta": {
          "profile": [
            "http://hl7.eu/fhir/laboratory/StructureDefinition/Observation-resultslab-eu-lab"
          ]
        },
        "performer": [
          {
            "display": "The Central European Lab"
          }
        ],
        "category": [
          {
            "coding": [
              {
                "system": "http://terminology.hl7.org/CodeSystem/observation-category",
                "code": "laboratory"
              }
            ]
          }
        ],
        "code": {
          "coding": [
            {
              "code": "5804-0",
              "system": "http://loinc.org",
              "display": "Protein [Mass/volume] in Urine by Test strip"
            }
          ],
          "text": "Protein [Mass/volume] in Urine by Test strip"
        },
        "valueQuantity": {
          "system": "http://unitsofmeasure.org",
          "value": 346.4,
          "unit": "mg/dL",
          "code": "mg/dL"
        },
        "referenceRange": [
          {
            "low": {
              "value": 0,
              "code": "mg/dL",
              "system": "http://unitsofmeasure.org"
            }
          },
          {
            "high": {
              "value": 14,
              "code": "mg/dL",
              "system": "http://unitsofmeasure.org"
            }
          }
        ],
        "interpretation": [
          {
            "coding": [
              {
                "code": "H",
                "system": "http://terminology.hl7.org/CodeSystem/v3-ObservationInterpretation",
                "display": "High"
              }
            ]
          }
        ],
        "text": {
          "status": "generated",
          "div": "<div xmlns=\"http://www.w3.org/1999/xhtml\"><table class=\"hl7__eu__lab__report\"><tr><th>Test</th><th>13-Feb-2016</th><th>Reference&#xA0;Range</th><th>Unit</th></tr><tr><td>Protein [Mass/volume] in Urine by Test strip</td><td>346.4</td><td>0 - 14</td><td>H</td><td>mg/dL</td></tr></table></div>"
        },
        "status": "final",
        "subject": {
          "reference": "urn:uuid:ba7201ea-95a3-44a4-bec2-68999c062acd",
          "display": "Maria Nohlmans"
        },
        "effectiveDateTime": "2016-02-13T04:35:39Z",
        "specimen": {
          "reference": "urn:uuid:28989ee6-b3ce-4a39-b0d5-f05ba12f0333"
        }
      }
    },
    {
      "fullUrl": "urn:uuid:3a424c6a-28c4-4458-b96a-6dadafe3180e",
      "resource": {
        "resourceType": "Observation",
        "id": "3a424c6a-28c4-4458-b96a-6dadafe3180e",
        "meta": {
          "profile": [
            "http://hl7.eu/fhir/laboratory/StructureDefinition/Observation-resultslab-eu-lab"
          ]
        },
        "performer": [
          {
            "display": "The Central European Lab"
          }
        ],
        "category": [
          {
            "coding": [
              {
                "system": "http://terminology.hl7.org/CodeSystem/observation-category",
                "code": "laboratory"
              }
            ]
          }
        ],
        "code": {
          "coding": [
            {
              "code": "20454-5",
              "system": "http://loinc.org",
              "display": "Protein [Presence] in Urine by Test strip"
            }
          ],
          "text": "Protein [Presence] in Urine by Test strip"
        },
        "text": {
          "status": "generated",
          "div": "<div xmlns=\"http://www.w3.org/1999/xhtml\"><table class=\"hl7__eu__lab__report\"><tr><th>Test</th><th>13-Feb-2016</th><th>Reference&#xA0;Range</th><th>Unit</th></tr><tr><td>Protein [Presence] in Urine by Test strip</td></tr></table></div>"
        },
        "status": "final",
        "subject": {
          "reference": "urn:uuid:ba7201ea-95a3-44a4-bec2-68999c062acd",
          "display": "Maria Nohlmans"
        },
        "effectiveDateTime": "2016-02-13T04:35:39Z",
        "specimen": {
          "reference": "urn:uuid:28989ee6-b3ce-4a39-b0d5-f05ba12f0333"
        }
      }
    },
    {
      "fullUrl": "urn:uuid:d54c407e-a305-447b-a9f2-bea0dff1b790",
      "resource": {
        "resourceType": "Observation",
        "id": "d54c407e-a305-447b-a9f2-bea0dff1b790",
        "meta": {
          "profile": [
            "http://hl7.eu/fhir/laboratory/StructureDefinition/Observation-resultslab-eu-lab"
          ]
        },
        "performer": [
          {
            "display": "The Central European Lab"
          }
        ],
        "category": [
          {
            "coding": [
              {
                "system": "http://terminology.hl7.org/CodeSystem/observation-category",
                "code": "laboratory"
              }
            ]
          }
        ],
        "code": {
          "coding": [
            {
              "code": "5802-4",
              "system": "http://loinc.org",
              "display": "Nitrite [Presence] in Urine by Test strip"
            }
          ],
          "text": "Nitrite [Presence] in Urine by Test strip"
        },
        "text": {
          "status": "generated",
          "div": "<div xmlns=\"http://www.w3.org/1999/xhtml\"><table class=\"hl7__eu__lab__report\"><tr><th>Test</th><th>13-Feb-2016</th><th>Reference&#xA0;Range</th><th>Unit</th></tr><tr><td>Nitrite [Presence] in Urine by Test strip</td></tr></table></div>"
        },
        "status": "final",
        "subject": {
          "reference": "urn:uuid:ba7201ea-95a3-44a4-bec2-68999c062acd",
          "display": "Maria Nohlmans"
        },
        "effectiveDateTime": "2016-02-13T04:35:39Z",
        "specimen": {
          "reference": "urn:uuid:28989ee6-b3ce-4a39-b0d5-f05ba12f0333"
        }
      }
    },
    {
      "fullUrl": "urn:uuid:8ec66de2-4fb8-4d02-8360-ffe9d1ab9dff",
      "resource": {
        "resourceType": "Observation",
        "id": "8ec66de2-4fb8-4d02-8360-ffe9d1ab9dff",
        "meta": {
          "profile": [
            "http://hl7.eu/fhir/laboratory/StructureDefinition/Observation-resultslab-eu-lab"
          ]
        },
        "performer": [
          {
            "display": "The Central European Lab"
          }
        ],
        "category": [
          {
            "coding": [
              {
                "system": "http://terminology.hl7.org/CodeSystem/observation-category",
                "code": "laboratory"
              }
            ]
          }
        ],
        "code": {
          "coding": [
            {
              "code": "5794-3",
              "system": "http://loinc.org",
              "display": "Hemoglobin [Presence] in Urine by Test strip"
            }
          ],
          "text": "Hemoglobin [Presence] in Urine by Test strip"
        },
        "text": {
          "status": "generated",
          "div": "<div xmlns=\"http://www.w3.org/1999/xhtml\"><table class=\"hl7__eu__lab__report\"><tr><th>Test</th><th>13-Feb-2016</th><th>Reference&#xA0;Range</th><th>Unit</th></tr><tr><td>Hemoglobin [Presence] in Urine by Test strip</td></tr></table></div>"
        },
        "status": "final",
        "subject": {
          "reference": "urn:uuid:ba7201ea-95a3-44a4-bec2-68999c062acd",
          "display": "Maria Nohlmans"
        },
        "effectiveDateTime": "2016-02-13T04:35:39Z",
        "specimen": {
          "reference": "urn:uuid:28989ee6-b3ce-4a39-b0d5-f05ba12f0333"
        }
      }
    },
    {
      "fullUrl": "urn:uuid:bc2b48d9-9039-4a19-82b4-d7f00e069f58",
      "resource": {
        "resourceType": "Observation",
        "id": "bc2b48d9-9039-4a19-82b4-d7f00e069f58",
        "meta": {
          "profile": [
            "http://hl7.eu/fhir/laboratory/StructureDefinition/Observation-resultslab-eu-lab"
          ]
        },
        "performer": [
          {
            "display": "The Central European Lab"
          }
        ],
        "category": [
          {
            "coding": [
              {
                "system": "http://terminology.hl7.org/CodeSystem/observation-category",
                "code": "laboratory"
              }
            ]
          }
        ],
        "code": {
          "coding": [
            {
              "code": "5799-2",
              "system": "http://loinc.org",
              "display": "Leukocyte esterase [Presence] in Urine by Test strip"
            }
          ],
          "text": "Leukocyte esterase [Presence] in Urine by Test strip"
        },
        "text": {
          "status": "generated",
          "div": "<div xmlns=\"http://www.w3.org/1999/xhtml\"><table class=\"hl7__eu__lab__report\"><tr><th>Test</th><th>13-Feb-2016</th><th>Reference&#xA0;Range</th><th>Unit</th></tr><tr><td>Leukocyte esterase [Presence] in Urine by Test strip</td></tr></table></div>"
        },
        "status": "final",
        "subject": {
          "reference": "urn:uuid:ba7201ea-95a3-44a4-bec2-68999c062acd",
          "display": "Maria Nohlmans"
        },
        "effectiveDateTime": "2016-02-13T04:35:39Z",
        "specimen": {
          "reference": "urn:uuid:28989ee6-b3ce-4a39-b0d5-f05ba12f0333"
        }
      }
    },
    {
      "fullUrl": "urn:uuid:b0d6fa6b-b7d3-4f20-bf15-0a48511e99ce",
      "resource": {
        "resourceType": "Device",
        "id": "b0d6fa6b-b7d3-4f20-bf15-0a48511e99ce",
        "deviceName": [
          {
            "name": "SYNDERAI Synthetic Generator",
            "type": "manufacturer-name"
          }
        ],
        "version": [
          {
            "value": "5.0"
          }
        ],
        "text": {
          "status": "generated",
          "div": "<div xmlns=\"http://www.w3.org/1999/xhtml\">SYNDERAI Synthetic Generator v5.0</div>"
        },
        "status": "active\"",
        "distinctIdentifier": "synderai-generator-50",
        "manufacturer": "SYNDERAI Project"
      }
    },
    {
      "fullUrl": "urn:uuid:6b9de4cd-dd9d-4d97-91dd-3580d6ba67fd",
      "resource": {
        "resourceType": "Provenance",
        "id": "6b9de4cd-dd9d-4d97-91dd-3580d6ba67fd",
        "target": [
          {
            "reference": "Patient/ba7201ea-95a3-44a4-bec2-68999c062acd"
          },
          {
            "reference": "Bundle/02ad720b-c895-42ed-acdd-28044ed3d08b"
          },
          {
            "reference": "Composition/b574c2bb-f442-4040-be95-351febbf1870"
          },
          {
            "reference": "PractitionerRole/854e3fd8-56c2-41fb-85b1-875f6f9dc72f"
          },
          {
            "reference": "Practitioner/092f887c-c84c-4f1e-8160-658a3b5f3a9c"
          },
          {
            "reference": "PractitionerRole/da6c24af-a140-4b7b-86a4-c50969f24305"
          },
          {
            "reference": "Organization/5f1f1964-efd2-4f46-992e-77995014485f"
          }
        ],
        "activity": {
          "text": "Synthetic Example Data Generation"
        },
        "policy": [
          "https://synderai.net/synderai-synthetic-data-policy"
        ],
        "agent": [
          {
            "type": {
              "text": "author"
            },
            "who": {
              "reference": "Device/b0d6fa6b-b7d3-4f20-bf15-0a48511e99ce"
            }
          }
        ],
        "reason": [
          {
            "text": "Interoperability Testing and Training (non-clinical use)"
          }
        ],
        "text": {
          "status": "generated",
          "div": "<div xmlns=\"http://www.w3.org/1999/xhtml\">Provenance for SYNDERAI Synthetic Example Data Resource</div>"
        },
        "recorded": "2016-02-13T05:35:39Z"
      }
    },
    {
      "fullUrl": "urn:uuid:854e3fd8-56c2-41fb-85b1-875f6f9dc72f",
      "resource": {
        "resourceType": "PractitionerRole",
        "id": "854e3fd8-56c2-41fb-85b1-875f6f9dc72f",
        "meta": {
          "profile": [
            "http://hl7.eu/fhir/base/StructureDefinition/practitionerRole-eu"
          ]
        },
        "text": {
          "status": "generated",
          "div": "<div xmlns=\"http://www.w3.org/1999/xhtml\">Laboratory Role Id: 854e3fd8-56c2-41fb-85b1-875f6f9dc72f</div>"
        },
        "practitioner": {
          "reference": "urn:uuid:092f887c-c84c-4f1e-8160-658a3b5f3a9c"
        }
      }
    },
    {
      "fullUrl": "urn:uuid:092f887c-c84c-4f1e-8160-658a3b5f3a9c",
      "resource": {
        "resourceType": "Practitioner",
        "id": "092f887c-c84c-4f1e-8160-658a3b5f3a9c",
        "meta": {
          "profile": [
            "http://hl7.eu/fhir/base/StructureDefinition/practitioner-eu"
          ]
        },
        "identifier": [
          {
            "assigner": {
              "display": "HL7 Europe"
            },
            "system": "urn:oid:2.16.840.1.113883.2.51.999",
            "value": "206801e9-184d-4ff4-8880-9331a25e7506"
          }
        ],
        "name": [
          {
            "prefix": [
              "dr"
            ],
            "given": [
              "Ex"
            ],
            "family": "Ample"
          }
        ],
        "address": [
          {
            "line": [
              "Laboratoire Central Européenne",
              "Boulevard du Jardin Botanique 32"
            ],
            "postalCode": "1000",
            "city": "Brussels",
            "country": "Belgium"
          }
        ],
        "text": {
          "status": "generated",
          "div": "<div xmlns=\"http://www.w3.org/1999/xhtml\">Laboratory: Laboratoire Central Européenne, 1000 Brussels, Belgium</div>"
        }
      }
    }
  ],
  "type": "document",
  "timestamp": "2016-02-13T05:35:39Z"
}
