{
  "resourceType": "Bundle",
  "id": "e1c30def-1b66-47b7-ad04-b8888ae238f9",
  "meta": {
    "profile": [
      "http://hl7.eu/fhir/laboratory/StructureDefinition/Bundle-eu-lab"
    ]
  },
  "identifier": {
    "assigner": {
      "display": "HL7 Europe"
    },
    "system": "urn:oid:2.16.840.1.113883.2.51.999",
    "value": "3b60d4f0-497a-45a0-8e30-65df70259358"
  },
  "entry": [
    {
      "fullUrl": "urn:uuid:14e2a07d-071e-476e-90d2-c07735ba44b3",
      "resource": {
        "resourceType": "Composition",
        "id": "14e2a07d-071e-476e-90d2-c07735ba44b3",
        "meta": {
          "profile": [
            "http://hl7.eu/fhir/laboratory/StructureDefinition/Composition-eu-lab"
          ]
        },
        "identifier": {
          "assigner": {
            "display": "HL7 Europe"
          },
          "system": "urn:oid:2.16.840.1.113883.2.51.999",
          "value": "ac8a15bf-c328-4cb6-8b21-404c99586dd6"
        },
        "author": [
          {
            "reference": "urn:uuid:1d23d29c-25d0-4ef1-9946-886ad037d326"
          }
        ],
        "category": [
          {
            "coding": [
              {
                "code": "26436-6",
                "system": "http://loinc.org",
                "display": "Laboratory studies (set)"
              }
            ]
          }
        ],
        "type": {
          "coding": [
            {
              "code": "11502-2",
              "system": "http://loinc.org",
              "display": "Laboratory report"
            }
          ],
          "text": "Laboratory Report"
        },
        "section": [
          {
            "code": {
              "coding": [
                {
                  "code": "26436-6",
                  "system": "http://loinc.org",
                  "display": "Laboratory studies (set)"
                }
              ],
              "text": "Laboratory studies"
            },
            "section": [
              {
                "code": {
                  "coding": [
                    {
                      "code": "$18719-5",
                      "system": "http://loinc.org",
                      "display": "Chemistry studies (set)"
                    }
                  ],
                  "text": "Chemistry"
                },
                "entry": [
                  {
                    "reference": "urn:uuid:e4576f66-4871-43c6-a908-716c4d27e28b"
                  },
                  {
                    "reference": "urn:uuid:61d3041f-b90d-40ff-b04f-6f01cf89e968"
                  },
                  {
                    "reference": "urn:uuid:70d81cd9-84ab-4f96-9932-584815cbe38b"
                  },
                  {
                    "reference": "urn:uuid:f0b1fcb0-c547-422c-abb6-821573b7b889"
                  },
                  {
                    "reference": "urn:uuid:8b0caa6f-357b-4ac9-9b63-986acb8a8fb8"
                  },
                  {
                    "reference": "urn:uuid:e48d2040-c1e5-452c-bb3a-43ec705c86e4"
                  },
                  {
                    "reference": "urn:uuid:470d70bb-28ab-4e1a-8d6b-e281e1a23470"
                  },
                  {
                    "reference": "urn:uuid:1d5e7aae-5a3f-4262-aa8a-6b999a3224ac"
                  },
                  {
                    "reference": "urn:uuid:17d219d9-c5f7-4318-a553-fa2259f1fa77"
                  }
                ],
                "text": {
                  "status": "generated",
                  "div": "<div xmlns=\"http://www.w3.org/1999/xhtml\"><h3>Chemistry</h3><table class=\"hl7__eu__lab__report\"><thead><tr><th>Test</th><th>05-MAR-2020</th><th>Reference&#xA0;Range</th><th>Unit</th></tr></thead><tbody><tr><td>Glucose [Mass/volume] in Serum or Plasma</td><td>79.4</td><td>70 - 140</td><td>mg/dL</td></tr><tr><td>Urea nitrogen [Mass/volume] in Serum or Plasma</td><td>9.9</td><td>7 - 50</td><td>mg/dL</td></tr><tr><td>Creatinine [Mass/volume] in Serum or Plasma</td><td><strong>1.4 H</strong></td><td>0.6 - 1.1</td><td>mg/dL</td></tr><tr><td>Calcium [Mass/volume] in Serum or Plasma</td><td>9.9</td><td>8.5 - 10.5</td><td>mg/dL</td></tr><tr><td>Sodium [Moles/volume] in Serum or Plasma</td><td>136.7</td><td>135 - 145</td><td>mmol/L</td></tr><tr><td>Potassium [Moles/volume] in Serum or Plasma</td><td>4.0</td><td>3.5 - 5.1</td><td>mmol/L</td></tr><tr><td>Chloride [Moles/volume] in Serum or Plasma</td><td>101.6</td><td>98 - 108</td><td>mmol/L</td></tr><tr><td>Carbon dioxide, total [Moles/volume] in Serum or Plasma</td><td><strong>21.6 L</strong></td><td>22 - 32</td><td>mmol/L</td></tr><tr><td>Ketones [Presence] in Urine by Test strip</td><td>Urine ketone test = trace</td><td></td><td></td></tr></tbody></table></div>"
                },
                "title": "Chemistry"
              },
              {
                "code": {
                  "coding": [
                    {
                      "code": "$18729-4",
                      "system": "http://loinc.org",
                      "display": "Urinalysis studies (set)"
                    }
                  ],
                  "text": "Urinalysis"
                },
                "entry": [
                  {
                    "reference": "urn:uuid:b781c96d-62ab-48a1-a000-d44f00dd6848"
                  },
                  {
                    "reference": "urn:uuid:f9020520-8c4b-43a1-879c-3b65b02e772c"
                  },
                  {
                    "reference": "urn:uuid:2cdaf9f8-7639-42d3-b42c-3f2990163799"
                  },
                  {
                    "reference": "urn:uuid:88f0ac2a-d69d-4a69-ab60-642efcf5f7c1"
                  },
                  {
                    "reference": "urn:uuid:632563c3-cc0f-4bad-a3cf-9bf5b6249045"
                  },
                  {
                    "reference": "urn:uuid:bcbcec6e-40f2-4ea8-9400-cc95b6b297bf"
                  },
                  {
                    "reference": "urn:uuid:2fef1251-c72b-43d1-a742-53f8b26720ba"
                  },
                  {
                    "reference": "urn:uuid:33d3ca2a-0e7d-4cb9-8243-deeafcfe0ac3"
                  },
                  {
                    "reference": "urn:uuid:d1bb1af3-d2dd-49dd-9b4e-5912d4e932a7"
                  },
                  {
                    "reference": "urn:uuid:1c53682b-821f-4f79-87c1-306c2895563f"
                  },
                  {
                    "reference": "urn:uuid:8cce67be-9105-4690-b5a6-983912a5c840"
                  },
                  {
                    "reference": "urn:uuid:60973ee6-86ac-409d-8fb5-7ccced7086b0"
                  }
                ],
                "text": {
                  "status": "generated",
                  "div": "<div xmlns=\"http://www.w3.org/1999/xhtml\"><h3>Urinalysis</h3><table class=\"hl7__eu__lab__report\"><thead><tr><th>Test</th><th>05-MAR-2020</th><th>Reference&#xA0;Range</th><th>Unit</th></tr></thead><tbody><tr><td>Glucose [Mass/volume] in Urine by Test strip</td><td><strong>2.2 H</strong></td><td>0.8 - 0</td><td>mg/dL</td></tr><tr><td>Glucose [Presence] in Urine by Test strip</td><td>++</td><td></td><td></td></tr><tr><td>Bilirubin.total [Mass/volume] in Urine by Test strip</td><td>0.8</td><td>0 - 1</td><td>mg/dL</td></tr><tr><td>Bilirubin.total [Presence] in Urine by Test strip</td><td>Finding of bilirubin in urine</td><td></td><td></td></tr><tr><td>Ketones [Mass/volume] in Urine by Test strip</td><td>1.6</td><td>0 - 20</td><td>mg/dL</td></tr><tr><td>Specific gravity of Urine by Test strip</td><td><strong>1.0 L</strong></td><td>1.01 - 1.03</td><td>{nominal}</td></tr><tr><td>pH of Urine by Test strip</td><td>6.4</td><td>4.6 - 7</td><td>pH</td></tr><tr><td>Protein [Mass/volume] in Urine by Test strip</td><td><strong>121.1 H</strong></td><td>0 - 15</td><td>mg/dL</td></tr><tr><td>Protein [Presence] in Urine by Test strip</td><td>Urine protein test = +</td><td></td><td></td></tr><tr><td>Nitrite [Presence] in Urine by Test strip</td><td>Urine nitrite negative</td><td></td><td></td></tr><tr><td>Hemoglobin [Presence] in Urine by Test strip</td><td>Urine blood test = negative</td><td></td><td></td></tr><tr><td>Leukocyte esterase [Presence] in Urine by Test strip</td><td>Urine leukocyte test negative</td><td></td><td></td></tr></tbody></table></div>"
                },
                "title": "Urinalysis"
              },
              {
                "code": {
                  "coding": [
                    {
                      "code": "$LP7846-1",
                      "system": "http://loinc.org",
                      "display": "Specimen information"
                    }
                  ],
                  "text": "Specimen information"
                },
                "entry": [
                  {
                    "reference": "urn:uuid:9f1383cd-e3ab-43ee-a40a-cb07de37ce36"
                  },
                  {
                    "reference": "urn:uuid:cb309392-1bf5-48b7-9b34-944cb7d5e01c"
                  },
                  {
                    "reference": "urn:uuid:9a68216a-74bd-419b-9af0-8e4410fb299b"
                  },
                  {
                    "reference": "urn:uuid:db5d9c00-6418-4aa4-b614-3368608008a1"
                  }
                ],
                "text": {
                  "status": "generated",
                  "div": "<div xmlns=\"http://www.w3.org/1999/xhtml\"><h3>Specimen information</h3><table class=\"hl7__eu__lab__report\"><thead><tr><th>Test</th><th>05-MAR-2020</th><th>Specimen</th><th></th></tr></thead><tbody><tr><td>Appearance of Urine</td><td>Cloudy urine</td><td>Urine</td><td></td></tr><tr><td>Odor of Urine</td><td>Urine smell ammoniacal</td><td>Urine</td><td></td></tr><tr><td>Clarity of Urine</td><td>Translucent</td><td>Urine</td><td></td></tr><tr><td>Color of Urine</td><td>Brown color</td><td>Urine</td><td></td></tr></tbody></table></div>"
                },
                "title": "Specimen information"
              }
            ],
            "title": "Laboratory Report"
          },
          {
            "text": {
              "status": "generated",
              "div": "<div xmlns=\"http://www.w3.org/1999/xhtml\"><h3>Annotation</h3><table class=\"hl7__eu__lab__report\"><tr><th>Conclusion and Recommendations based on this report and previous findings known to us</th></tr><tr><td>Renal function is mildly impaired (elevated creatinine), with low total CO₂ suggesting possible mild metabolic acidosis. Urinalysis shows significant proteinuria and glucosuria, with low specific gravity and abnormal urine appearance (cloudy, brown, ammoniacal), but no evidence of infection (negative nitrites/leukocytes). Findings are suggestive of possible diabetic nephropathy or other renal pathology; further nephrological evaluation is recommended.</td></tr></table></div>"
            },
            "code": {
              "coding": [
                {
                  "system": "http://loinc.org",
                  "code": "48767-8",
                  "display": "Annotation comment"
                }
              ]
            },
            "title": "Annotation comment"
          }
        ],
        "status": "final",
        "subject": {
          "reference": "urn:uuid:fe725d33-864a-4528-b6dc-3367273337cf",
          "display": "Marthe Gallet"
        },
        "date": "2020-03-05T20:05:43Z",
        "title": "Laboratory Report",
        "confidentiality": "N"
      }
    },
    {
      "fullUrl": "urn:uuid:3092ec2a-12b1-401b-bd66-da17603e3707",
      "resource": {
        "resourceType": "DiagnosticReport",
        "id": "3092ec2a-12b1-401b-bd66-da17603e3707",
        "meta": {
          "profile": [
            "http://hl7.eu/fhir/laboratory/StructureDefinition/DiagnosticReport-eu-lab"
          ]
        },
        "identifier": [
          {
            "assigner": {
              "display": "HL7 Europe"
            },
            "system": "urn:oid:2.16.840.1.113883.2.51.999",
            "value": "d4cd4a8f-b1ef-4804-be09-9b8d63b8a11f"
          }
        ],
        "extension": [
          {
            "url": "http://hl7.org/fhir/5.0/StructureDefinition/extension-DiagnosticReport.composition",
            "valueReference": {
              "reference": "urn:uuid:ac8a15bf-c328-4cb6-8b21-404c99586dd6"
            }
          }
        ],
        "category": [
          {
            "coding": [
              {
                "code": "26436-6",
                "system": "http://loinc.org",
                "display": "Laboratory studies (set)"
              }
            ]
          }
        ],
        "specimen": [
          {
            "reference": "urn:uuid:442cbf01-a0fe-46b7-a6a5-bbc92fc3cb8a"
          },
          {
            "reference": "urn:uuid:8ce9df69-60db-4b34-ab62-fa044b3c1ef5"
          }
        ],
        "result": [
          {
            "reference": "urn:uuid:e4576f66-4871-43c6-a908-716c4d27e28b"
          },
          {
            "reference": "urn:uuid:61d3041f-b90d-40ff-b04f-6f01cf89e968"
          },
          {
            "reference": "urn:uuid:70d81cd9-84ab-4f96-9932-584815cbe38b"
          },
          {
            "reference": "urn:uuid:f0b1fcb0-c547-422c-abb6-821573b7b889"
          },
          {
            "reference": "urn:uuid:8b0caa6f-357b-4ac9-9b63-986acb8a8fb8"
          },
          {
            "reference": "urn:uuid:e48d2040-c1e5-452c-bb3a-43ec705c86e4"
          },
          {
            "reference": "urn:uuid:470d70bb-28ab-4e1a-8d6b-e281e1a23470"
          },
          {
            "reference": "urn:uuid:1d5e7aae-5a3f-4262-aa8a-6b999a3224ac"
          },
          {
            "reference": "urn:uuid:9f1383cd-e3ab-43ee-a40a-cb07de37ce36"
          },
          {
            "reference": "urn:uuid:cb309392-1bf5-48b7-9b34-944cb7d5e01c"
          },
          {
            "reference": "urn:uuid:9a68216a-74bd-419b-9af0-8e4410fb299b"
          },
          {
            "reference": "urn:uuid:db5d9c00-6418-4aa4-b614-3368608008a1"
          },
          {
            "reference": "urn:uuid:b781c96d-62ab-48a1-a000-d44f00dd6848"
          },
          {
            "reference": "urn:uuid:f9020520-8c4b-43a1-879c-3b65b02e772c"
          },
          {
            "reference": "urn:uuid:2cdaf9f8-7639-42d3-b42c-3f2990163799"
          },
          {
            "reference": "urn:uuid:88f0ac2a-d69d-4a69-ab60-642efcf5f7c1"
          },
          {
            "reference": "urn:uuid:632563c3-cc0f-4bad-a3cf-9bf5b6249045"
          },
          {
            "reference": "urn:uuid:17d219d9-c5f7-4318-a553-fa2259f1fa77"
          },
          {
            "reference": "urn:uuid:bcbcec6e-40f2-4ea8-9400-cc95b6b297bf"
          },
          {
            "reference": "urn:uuid:2fef1251-c72b-43d1-a742-53f8b26720ba"
          },
          {
            "reference": "urn:uuid:33d3ca2a-0e7d-4cb9-8243-deeafcfe0ac3"
          },
          {
            "reference": "urn:uuid:d1bb1af3-d2dd-49dd-9b4e-5912d4e932a7"
          },
          {
            "reference": "urn:uuid:1c53682b-821f-4f79-87c1-306c2895563f"
          },
          {
            "reference": "urn:uuid:8cce67be-9105-4690-b5a6-983912a5c840"
          },
          {
            "reference": "urn:uuid:60973ee6-86ac-409d-8fb5-7ccced7086b0"
          }
        ],
        "status": "registered",
        "code": {
          "coding": [
            {
              "code": "11502-2",
              "system": "http://loinc.org",
              "display": "Laboratory report"
            }
          ]
        },
        "subject": {
          "reference": "urn:uuid:fe725d33-864a-4528-b6dc-3367273337cf",
          "display": "Marthe Gallet"
        }
      }
    },
    {
      "fullUrl": "urn:uuid:fe725d33-864a-4528-b6dc-3367273337cf",
      "resource": {
        "resourceType": "Patient",
        "id": "fe725d33-864a-4528-b6dc-3367273337cf",
        "meta": {
          "security": [
            {
              "system": "http://terminology.hl7.org/CodeSystem/v3-ActReason",
              "code": "HTEST"
            },
            {
              "system": "http://terminology.hl7.org/CodeSystem/v3-ActReason",
              "code": "TRAIN"
            }
          ],
          "tag": [
            {
              "system": "https://synderai.net/fhir/CodeSystem/tags",
              "code": "synthetic",
              "display": "SYNDERAI Synthetic data"
            }
          ],
          "profile": [
            "http://hl7.eu/fhir/base/StructureDefinition/patient-eu-core"
          ]
        },
        "identifier": [
          {
            "type": {
              "coding": [
                {
                  "code": "PT",
                  "system": "http://terminology.hl7.org/CodeSystem/v2-0203"
                }
              ]
            },
            "system": "http://ec.europa.eu/identifier/eci",
            "value": "9444-947487-6"
          },
          {
            "type": {
              "coding": [
                {
                  "code": "MR",
                  "system": "http://terminology.hl7.org/CodeSystem/v2-0203"
                }
              ]
            },
            "system": "http://local.setting.eu/identifier",
            "value": "854228d5-a476-2d9c-a1d7-c3202375a617"
          }
        ],
        "name": [
          {
            "family": "Gallet"
          },
          {
            "given": [
              "Marthe"
            ]
          },
          {
            "text": "Marthe Gallet"
          }
        ],
        "address": [
          {
            "line": [
              "3, rue Emmanuel Goncalves"
            ],
            "use": "home",
            "type": "physical",
            "postalCode": "49490",
            "city": "Briand",
            "country": "France"
          }
        ],
        "telecom": [
          {
            "system": "phone",
            "value": "+33 1 70 99 82 74"
          }
        ],
        "extension": [
          {
            "url": "http://hl7.org/fhir/StructureDefinition/patient-nationality",
            "valueCodeableConcept": {
              "coding": [
                {
                  "code": "FR",
                  "system": "http://hl7.org/fhir/ValueSet/country"
                }
              ]
            }
          }
        ],
        "text": {
          "status": "generated",
          "div": "<div xmlns=\"http://www.w3.org/1999/xhtml\"><table class=\"hl7__ips\"><tr><td>Marthe Gallet</td><td>female</td><td>29-Oct-1950</td></tr></table></div>"
        },
        "gender": "female",
        "birthDate": "1950-10-29"
      }
    },
    {
      "fullUrl": "urn:uuid:a0abb255-adac-4c05-b150-f98861fae807",
      "resource": {
        "resourceType": "ServiceRequest",
        "id": "a0abb255-adac-4c05-b150-f98861fae807",
        "meta": {
          "profile": [
            "http://hl7.eu/fhir/laboratory/StructureDefinition/ServiceRequest-eu-lab"
          ]
        },
        "identifier": [
          {
            "system": "http://example.org",
            "value": "fe207fe0-7629-46e9-808f-64e2640cbe75"
          }
        ],
        "specimen": [
          {
            "reference": "urn:uuid:442cbf01-a0fe-46b7-a6a5-bbc92fc3cb8a"
          },
          {
            "reference": "urn:uuid:8ce9df69-60db-4b34-ab62-fa044b3c1ef5"
          }
        ],
        "reasonCode": [
          {
            "coding": [
              {
                "code": "431856006",
                "system": "http://snomed.info/sct",
                "display": "Chronic kidney disease stage 2"
              }
            ]
          },
          {
            "coding": [
              {
                "code": "90781000119102",
                "system": "http://snomed.info/sct",
                "display": "Microalbuminuria due to type 2 diabetes mellitus"
              }
            ]
          },
          {
            "coding": [
              {
                "code": "127013003",
                "system": "http://snomed.info/sct",
                "display": "Disorder of kidney due to diabetes mellitus"
              }
            ]
          },
          {
            "coding": [
              {
                "code": "431855005",
                "system": "http://snomed.info/sct",
                "display": "Chronic kidney disease stage 1"
              }
            ]
          },
          {
            "coding": [
              {
                "code": "55822004",
                "system": "http://snomed.info/sct",
                "display": "Hyperlipidemia"
              }
            ]
          },
          {
            "coding": [
              {
                "code": "59621000",
                "system": "http://snomed.info/sct",
                "display": "Essential hypertension"
              }
            ]
          }
        ],
        "status": "active",
        "intent": "order",
        "code": {
          "coding": [
            {
              "code": "108252007",
              "system": "http://snomed.info/sct",
              "display": "Laboratory procedure"
            }
          ]
        },
        "subject": {
          "reference": "urn:uuid:fe725d33-864a-4528-b6dc-3367273337cf",
          "display": "Marthe Gallet"
        },
        "requester": {
          "reference": "urn:uuid:227dd070-7ae3-4799-bbbf-177306246b5e"
        }
      }
    },
    {
      "fullUrl": "urn:uuid:227dd070-7ae3-4799-bbbf-177306246b5e",
      "resource": {
        "resourceType": "PractitionerRole",
        "id": "227dd070-7ae3-4799-bbbf-177306246b5e",
        "meta": {
          "profile": [
            "http://hl7.eu/fhir/base/StructureDefinition/practitionerRole-eu"
          ]
        },
        "text": {
          "status": "generated",
          "div": "<div xmlns=\"http://www.w3.org/1999/xhtml\">Provider Role Id: 227dd070-7ae3-4799-bbbf-177306246b5e</div>"
        },
        "organization": {
          "reference": "urn:uuid:bf6b78bd-4ada-4d5a-bb76-aee53abc08ea"
        }
      }
    },
    {
      "fullUrl": "urn:uuid:bf6b78bd-4ada-4d5a-bb76-aee53abc08ea",
      "resource": {
        "resourceType": "Organization",
        "id": "bf6b78bd-4ada-4d5a-bb76-aee53abc08ea",
        "meta": {
          "profile": [
            "http://hl7.eu/fhir/base/StructureDefinition/organization-eu"
          ]
        },
        "identifier": [
          {
            "assigner": {
              "display": "HL7 Europe"
            },
            "system": "urn:oid:2.16.840.1.113883.2.51.999",
            "value": "2fff7243-c4a2-41d6-85b0-619d99b63ed1"
          }
        ],
        "address": [
          {
            "line": [
              "Rue Larrey nan"
            ],
            "city": "Angers",
            "postalCode": "49100",
            "country": "France"
          }
        ],
        "text": {
          "status": "generated",
          "div": "<div xmlns=\"http://www.w3.org/1999/xhtml\">Provider Organization: CHU d&#039;Angers</div>"
        },
        "name": "CHU d&#039;Angers"
      }
    },
    {
      "fullUrl": "urn:uuid:442cbf01-a0fe-46b7-a6a5-bbc92fc3cb8a",
      "resource": {
        "resourceType": "Specimen",
        "id": "442cbf01-a0fe-46b7-a6a5-bbc92fc3cb8a",
        "meta": {
          "profile": [
            "http://hl7.eu/fhir/laboratory/StructureDefinition/Specimen-eu-lab"
          ]
        },
        "collection": {
          "collectedDateTime": "2020-03-05"
        },
        "text": {
          "status": "generated",
          "div": "<div xmlns=\"http://www.w3.org/1999/xhtml\"><table class=\"hl7__eu__lab__report\"><tr><th>Specimen</th><th>Collection Date</th></tr><tr><td>Acellular blood (serum or plasma) specimen</td><td><span class=\"nb\">05-Mar-2020</span></td></tr></table></div>"
        },
        "type": {
          "coding": [
            {
              "code": "122592007",
              "system": "http://snomed.info/sct",
              "display": "Acellular blood (serum or plasma) specimen"
            }
          ]
        }
      }
    },
    {
      "fullUrl": "urn:uuid:8ce9df69-60db-4b34-ab62-fa044b3c1ef5",
      "resource": {
        "resourceType": "Specimen",
        "id": "8ce9df69-60db-4b34-ab62-fa044b3c1ef5",
        "meta": {
          "profile": [
            "http://hl7.eu/fhir/laboratory/StructureDefinition/Specimen-eu-lab"
          ]
        },
        "collection": {
          "collectedDateTime": "2020-03-05"
        },
        "text": {
          "status": "generated",
          "div": "<div xmlns=\"http://www.w3.org/1999/xhtml\"><table class=\"hl7__eu__lab__report\"><tr><th>Specimen</th><th>Collection Date</th></tr><tr><td>Urine specimen</td><td><span class=\"nb\">05-Mar-2020</span></td></tr></table></div>"
        },
        "type": {
          "coding": [
            {
              "code": "122575003",
              "system": "http://snomed.info/sct",
              "display": "Urine specimen"
            }
          ]
        }
      }
    },
    {
      "fullUrl": "urn:uuid:e4576f66-4871-43c6-a908-716c4d27e28b",
      "resource": {
        "resourceType": "Observation",
        "id": "e4576f66-4871-43c6-a908-716c4d27e28b",
        "meta": {
          "profile": [
            "http://hl7.eu/fhir/laboratory/StructureDefinition/Observation-resultslab-eu-lab"
          ]
        },
        "performer": [
          {
            "display": "The Central European Lab"
          }
        ],
        "category": [
          {
            "coding": [
              {
                "system": "http://terminology.hl7.org/CodeSystem/observation-category",
                "code": "laboratory"
              }
            ]
          }
        ],
        "code": {
          "coding": [
            {
              "code": "2345-7",
              "system": "http://loinc.org",
              "display": "Glucose [Mass/volume] in Serum or Plasma"
            }
          ],
          "text": "Glucose [Mass/volume] in Serum or Plasma"
        },
        "valueQuantity": {
          "system": "http://unitsofmeasure.org",
          "value": 79.4,
          "unit": "mg/dL",
          "code": "mg/dL"
        },
        "referenceRange": [
          {
            "low": {
              "value": 70,
              "code": "mg/dL",
              "system": "http://unitsofmeasure.org"
            }
          },
          {
            "high": {
              "value": 140,
              "code": "mg/dL",
              "system": "http://unitsofmeasure.org"
            }
          }
        ],
        "text": {
          "status": "generated",
          "div": "<div xmlns=\"http://www.w3.org/1999/xhtml\"><table class=\"hl7__eu__lab__report\"><tr><th>Test</th><th>05-Mar-2020</th><th>Reference&#xA0;Range</th><th>Unit</th></tr><tr><td>Glucose [Mass/volume] in Serum or Plasma</td><td>79.4</td><td>70 - 140</td><td></td><td>mg/dL</td></tr></table></div>"
        },
        "status": "final",
        "subject": {
          "reference": "urn:uuid:fe725d33-864a-4528-b6dc-3367273337cf",
          "display": "Marthe Gallet"
        },
        "effectiveDateTime": "2020-03-05T19:05:43Z",
        "specimen": {
          "reference": "urn:uuid:442cbf01-a0fe-46b7-a6a5-bbc92fc3cb8a"
        }
      }
    },
    {
      "fullUrl": "urn:uuid:61d3041f-b90d-40ff-b04f-6f01cf89e968",
      "resource": {
        "resourceType": "Observation",
        "id": "61d3041f-b90d-40ff-b04f-6f01cf89e968",
        "meta": {
          "profile": [
            "http://hl7.eu/fhir/laboratory/StructureDefinition/Observation-resultslab-eu-lab"
          ]
        },
        "performer": [
          {
            "display": "The Central European Lab"
          }
        ],
        "category": [
          {
            "coding": [
              {
                "system": "http://terminology.hl7.org/CodeSystem/observation-category",
                "code": "laboratory"
              }
            ]
          }
        ],
        "code": {
          "coding": [
            {
              "code": "3094-0",
              "system": "http://loinc.org",
              "display": "Urea nitrogen [Mass/volume] in Serum or Plasma"
            }
          ],
          "text": "Urea nitrogen [Mass/volume] in Serum or Plasma"
        },
        "valueQuantity": {
          "system": "http://unitsofmeasure.org",
          "value": 9.9,
          "unit": "mg/dL",
          "code": "mg/dL"
        },
        "referenceRange": [
          {
            "low": {
              "value": 7,
              "code": "mg/dL",
              "system": "http://unitsofmeasure.org"
            }
          },
          {
            "high": {
              "value": 50,
              "code": "mg/dL",
              "system": "http://unitsofmeasure.org"
            }
          }
        ],
        "text": {
          "status": "generated",
          "div": "<div xmlns=\"http://www.w3.org/1999/xhtml\"><table class=\"hl7__eu__lab__report\"><tr><th>Test</th><th>05-Mar-2020</th><th>Reference&#xA0;Range</th><th>Unit</th></tr><tr><td>Urea nitrogen [Mass/volume] in Serum or Plasma</td><td>9.9</td><td>7 - 50</td><td></td><td>mg/dL</td></tr></table></div>"
        },
        "status": "final",
        "subject": {
          "reference": "urn:uuid:fe725d33-864a-4528-b6dc-3367273337cf",
          "display": "Marthe Gallet"
        },
        "effectiveDateTime": "2020-03-05T19:05:43Z",
        "specimen": {
          "reference": "urn:uuid:442cbf01-a0fe-46b7-a6a5-bbc92fc3cb8a"
        }
      }
    },
    {
      "fullUrl": "urn:uuid:70d81cd9-84ab-4f96-9932-584815cbe38b",
      "resource": {
        "resourceType": "Observation",
        "id": "70d81cd9-84ab-4f96-9932-584815cbe38b",
        "meta": {
          "profile": [
            "http://hl7.eu/fhir/laboratory/StructureDefinition/Observation-resultslab-eu-lab"
          ]
        },
        "performer": [
          {
            "display": "The Central European Lab"
          }
        ],
        "category": [
          {
            "coding": [
              {
                "system": "http://terminology.hl7.org/CodeSystem/observation-category",
                "code": "laboratory"
              }
            ]
          }
        ],
        "code": {
          "coding": [
            {
              "code": "2160-0",
              "system": "http://loinc.org",
              "display": "Creatinine [Mass/volume] in Serum or Plasma"
            }
          ],
          "text": "Creatinine [Mass/volume] in Serum or Plasma"
        },
        "valueQuantity": {
          "system": "http://unitsofmeasure.org",
          "value": 1.4,
          "unit": "mg/dL",
          "code": "mg/dL"
        },
        "referenceRange": [
          {
            "low": {
              "value": 0.6,
              "code": "mg/dL",
              "system": "http://unitsofmeasure.org"
            }
          },
          {
            "high": {
              "value": 1.1,
              "code": "mg/dL",
              "system": "http://unitsofmeasure.org"
            }
          }
        ],
        "interpretation": [
          {
            "coding": [
              {
                "code": "H",
                "system": "http://terminology.hl7.org/CodeSystem/v3-ObservationInterpretation",
                "display": "High"
              }
            ]
          }
        ],
        "text": {
          "status": "generated",
          "div": "<div xmlns=\"http://www.w3.org/1999/xhtml\"><table class=\"hl7__eu__lab__report\"><tr><th>Test</th><th>05-Mar-2020</th><th>Reference&#xA0;Range</th><th>Unit</th></tr><tr><td>Creatinine [Mass/volume] in Serum or Plasma</td><td>1.4</td><td>0.6 - 1.1</td><td>H</td><td>mg/dL</td></tr></table></div>"
        },
        "status": "final",
        "subject": {
          "reference": "urn:uuid:fe725d33-864a-4528-b6dc-3367273337cf",
          "display": "Marthe Gallet"
        },
        "effectiveDateTime": "2020-03-05T19:05:43Z",
        "specimen": {
          "reference": "urn:uuid:442cbf01-a0fe-46b7-a6a5-bbc92fc3cb8a"
        }
      }
    },
    {
      "fullUrl": "urn:uuid:f0b1fcb0-c547-422c-abb6-821573b7b889",
      "resource": {
        "resourceType": "Observation",
        "id": "f0b1fcb0-c547-422c-abb6-821573b7b889",
        "meta": {
          "profile": [
            "http://hl7.eu/fhir/laboratory/StructureDefinition/Observation-resultslab-eu-lab"
          ]
        },
        "performer": [
          {
            "display": "The Central European Lab"
          }
        ],
        "category": [
          {
            "coding": [
              {
                "system": "http://terminology.hl7.org/CodeSystem/observation-category",
                "code": "laboratory"
              }
            ]
          }
        ],
        "code": {
          "coding": [
            {
              "code": "17861-6",
              "system": "http://loinc.org",
              "display": "Calcium [Mass/volume] in Serum or Plasma"
            }
          ],
          "text": "Calcium [Mass/volume] in Serum or Plasma"
        },
        "valueQuantity": {
          "system": "http://unitsofmeasure.org",
          "value": 9.9,
          "unit": "mg/dL",
          "code": "mg/dL"
        },
        "referenceRange": [
          {
            "low": {
              "value": 8.5,
              "code": "mg/dL",
              "system": "http://unitsofmeasure.org"
            }
          },
          {
            "high": {
              "value": 10.5,
              "code": "mg/dL",
              "system": "http://unitsofmeasure.org"
            }
          }
        ],
        "text": {
          "status": "generated",
          "div": "<div xmlns=\"http://www.w3.org/1999/xhtml\"><table class=\"hl7__eu__lab__report\"><tr><th>Test</th><th>05-Mar-2020</th><th>Reference&#xA0;Range</th><th>Unit</th></tr><tr><td>Calcium [Mass/volume] in Serum or Plasma</td><td>9.9</td><td>8.5 - 10.5</td><td></td><td>mg/dL</td></tr></table></div>"
        },
        "status": "final",
        "subject": {
          "reference": "urn:uuid:fe725d33-864a-4528-b6dc-3367273337cf",
          "display": "Marthe Gallet"
        },
        "effectiveDateTime": "2020-03-05T19:05:43Z",
        "specimen": {
          "reference": "urn:uuid:442cbf01-a0fe-46b7-a6a5-bbc92fc3cb8a"
        }
      }
    },
    {
      "fullUrl": "urn:uuid:8b0caa6f-357b-4ac9-9b63-986acb8a8fb8",
      "resource": {
        "resourceType": "Observation",
        "id": "8b0caa6f-357b-4ac9-9b63-986acb8a8fb8",
        "meta": {
          "profile": [
            "http://hl7.eu/fhir/laboratory/StructureDefinition/Observation-resultslab-eu-lab"
          ]
        },
        "performer": [
          {
            "display": "The Central European Lab"
          }
        ],
        "category": [
          {
            "coding": [
              {
                "system": "http://terminology.hl7.org/CodeSystem/observation-category",
                "code": "laboratory"
              }
            ]
          }
        ],
        "code": {
          "coding": [
            {
              "code": "2951-2",
              "system": "http://loinc.org",
              "display": "Sodium [Moles/volume] in Serum or Plasma"
            }
          ],
          "text": "Sodium [Moles/volume] in Serum or Plasma"
        },
        "valueQuantity": {
          "system": "http://unitsofmeasure.org",
          "value": 136.7,
          "unit": "mmol/L",
          "code": "mmol/L"
        },
        "referenceRange": [
          {
            "low": {
              "value": 135,
              "code": "mmol/L",
              "system": "http://unitsofmeasure.org"
            }
          },
          {
            "high": {
              "value": 145,
              "code": "mmol/L",
              "system": "http://unitsofmeasure.org"
            }
          }
        ],
        "text": {
          "status": "generated",
          "div": "<div xmlns=\"http://www.w3.org/1999/xhtml\"><table class=\"hl7__eu__lab__report\"><tr><th>Test</th><th>05-Mar-2020</th><th>Reference&#xA0;Range</th><th>Unit</th></tr><tr><td>Sodium [Moles/volume] in Serum or Plasma</td><td>136.7</td><td>135 - 145</td><td></td><td>mmol/L</td></tr></table></div>"
        },
        "status": "final",
        "subject": {
          "reference": "urn:uuid:fe725d33-864a-4528-b6dc-3367273337cf",
          "display": "Marthe Gallet"
        },
        "effectiveDateTime": "2020-03-05T19:05:43Z",
        "specimen": {
          "reference": "urn:uuid:442cbf01-a0fe-46b7-a6a5-bbc92fc3cb8a"
        }
      }
    },
    {
      "fullUrl": "urn:uuid:e48d2040-c1e5-452c-bb3a-43ec705c86e4",
      "resource": {
        "resourceType": "Observation",
        "id": "e48d2040-c1e5-452c-bb3a-43ec705c86e4",
        "meta": {
          "profile": [
            "http://hl7.eu/fhir/laboratory/StructureDefinition/Observation-resultslab-eu-lab"
          ]
        },
        "performer": [
          {
            "display": "The Central European Lab"
          }
        ],
        "category": [
          {
            "coding": [
              {
                "system": "http://terminology.hl7.org/CodeSystem/observation-category",
                "code": "laboratory"
              }
            ]
          }
        ],
        "code": {
          "coding": [
            {
              "code": "2823-3",
              "system": "http://loinc.org",
              "display": "Potassium [Moles/volume] in Serum or Plasma"
            }
          ],
          "text": "Potassium [Moles/volume] in Serum or Plasma"
        },
        "valueQuantity": {
          "system": "http://unitsofmeasure.org",
          "value": 4,
          "unit": "mmol/L",
          "code": "mmol/L"
        },
        "referenceRange": [
          {
            "low": {
              "value": 3.5,
              "code": "mmol/L",
              "system": "http://unitsofmeasure.org"
            }
          },
          {
            "high": {
              "value": 5.1,
              "code": "mmol/L",
              "system": "http://unitsofmeasure.org"
            }
          }
        ],
        "text": {
          "status": "generated",
          "div": "<div xmlns=\"http://www.w3.org/1999/xhtml\"><table class=\"hl7__eu__lab__report\"><tr><th>Test</th><th>05-Mar-2020</th><th>Reference&#xA0;Range</th><th>Unit</th></tr><tr><td>Potassium [Moles/volume] in Serum or Plasma</td><td>4.0</td><td>3.5 - 5.1</td><td></td><td>mmol/L</td></tr></table></div>"
        },
        "status": "final",
        "subject": {
          "reference": "urn:uuid:fe725d33-864a-4528-b6dc-3367273337cf",
          "display": "Marthe Gallet"
        },
        "effectiveDateTime": "2020-03-05T19:05:43Z",
        "specimen": {
          "reference": "urn:uuid:442cbf01-a0fe-46b7-a6a5-bbc92fc3cb8a"
        }
      }
    },
    {
      "fullUrl": "urn:uuid:470d70bb-28ab-4e1a-8d6b-e281e1a23470",
      "resource": {
        "resourceType": "Observation",
        "id": "470d70bb-28ab-4e1a-8d6b-e281e1a23470",
        "meta": {
          "profile": [
            "http://hl7.eu/fhir/laboratory/StructureDefinition/Observation-resultslab-eu-lab"
          ]
        },
        "performer": [
          {
            "display": "The Central European Lab"
          }
        ],
        "category": [
          {
            "coding": [
              {
                "system": "http://terminology.hl7.org/CodeSystem/observation-category",
                "code": "laboratory"
              }
            ]
          }
        ],
        "code": {
          "coding": [
            {
              "code": "2075-0",
              "system": "http://loinc.org",
              "display": "Chloride [Moles/volume] in Serum or Plasma"
            }
          ],
          "text": "Chloride [Moles/volume] in Serum or Plasma"
        },
        "valueQuantity": {
          "system": "http://unitsofmeasure.org",
          "value": 101.6,
          "unit": "mmol/L",
          "code": "mmol/L"
        },
        "referenceRange": [
          {
            "low": {
              "value": 98,
              "code": "mmol/L",
              "system": "http://unitsofmeasure.org"
            }
          },
          {
            "high": {
              "value": 108,
              "code": "mmol/L",
              "system": "http://unitsofmeasure.org"
            }
          }
        ],
        "text": {
          "status": "generated",
          "div": "<div xmlns=\"http://www.w3.org/1999/xhtml\"><table class=\"hl7__eu__lab__report\"><tr><th>Test</th><th>05-Mar-2020</th><th>Reference&#xA0;Range</th><th>Unit</th></tr><tr><td>Chloride [Moles/volume] in Serum or Plasma</td><td>101.6</td><td>98 - 108</td><td></td><td>mmol/L</td></tr></table></div>"
        },
        "status": "final",
        "subject": {
          "reference": "urn:uuid:fe725d33-864a-4528-b6dc-3367273337cf",
          "display": "Marthe Gallet"
        },
        "effectiveDateTime": "2020-03-05T19:05:43Z",
        "specimen": {
          "reference": "urn:uuid:442cbf01-a0fe-46b7-a6a5-bbc92fc3cb8a"
        }
      }
    },
    {
      "fullUrl": "urn:uuid:1d5e7aae-5a3f-4262-aa8a-6b999a3224ac",
      "resource": {
        "resourceType": "Observation",
        "id": "1d5e7aae-5a3f-4262-aa8a-6b999a3224ac",
        "meta": {
          "profile": [
            "http://hl7.eu/fhir/laboratory/StructureDefinition/Observation-resultslab-eu-lab"
          ]
        },
        "performer": [
          {
            "display": "The Central European Lab"
          }
        ],
        "category": [
          {
            "coding": [
              {
                "system": "http://terminology.hl7.org/CodeSystem/observation-category",
                "code": "laboratory"
              }
            ]
          }
        ],
        "code": {
          "coding": [
            {
              "code": "2028-9",
              "system": "http://loinc.org",
              "display": "Carbon dioxide, total [Moles/volume] in Serum or Plasma"
            }
          ],
          "text": "Carbon dioxide, total [Moles/volume] in Serum or Plasma"
        },
        "valueQuantity": {
          "system": "http://unitsofmeasure.org",
          "value": 21.6,
          "unit": "mmol/L",
          "code": "mmol/L"
        },
        "referenceRange": [
          {
            "low": {
              "value": 22,
              "code": "mmol/L",
              "system": "http://unitsofmeasure.org"
            }
          },
          {
            "high": {
              "value": 32,
              "code": "mmol/L",
              "system": "http://unitsofmeasure.org"
            }
          }
        ],
        "interpretation": [
          {
            "coding": [
              {
                "code": "L",
                "system": "http://terminology.hl7.org/CodeSystem/v3-ObservationInterpretation",
                "display": "Low"
              }
            ]
          }
        ],
        "text": {
          "status": "generated",
          "div": "<div xmlns=\"http://www.w3.org/1999/xhtml\"><table class=\"hl7__eu__lab__report\"><tr><th>Test</th><th>05-Mar-2020</th><th>Reference&#xA0;Range</th><th>Unit</th></tr><tr><td>Carbon dioxide, total [Moles/volume] in Serum or Plasma</td><td>21.6</td><td>22 - 32</td><td>L</td><td>mmol/L</td></tr></table></div>"
        },
        "status": "final",
        "subject": {
          "reference": "urn:uuid:fe725d33-864a-4528-b6dc-3367273337cf",
          "display": "Marthe Gallet"
        },
        "effectiveDateTime": "2020-03-05T19:05:43Z",
        "specimen": {
          "reference": "urn:uuid:442cbf01-a0fe-46b7-a6a5-bbc92fc3cb8a"
        }
      }
    },
    {
      "fullUrl": "urn:uuid:9f1383cd-e3ab-43ee-a40a-cb07de37ce36",
      "resource": {
        "resourceType": "Observation",
        "id": "9f1383cd-e3ab-43ee-a40a-cb07de37ce36",
        "meta": {
          "profile": [
            "http://hl7.eu/fhir/laboratory/StructureDefinition/Observation-resultslab-eu-lab"
          ]
        },
        "performer": [
          {
            "display": "The Central European Lab"
          }
        ],
        "category": [
          {
            "coding": [
              {
                "system": "http://terminology.hl7.org/CodeSystem/observation-category",
                "code": "laboratory"
              }
            ]
          }
        ],
        "code": {
          "coding": [
            {
              "code": "5767-9",
              "system": "http://loinc.org",
              "display": "Appearance of Urine"
            }
          ],
          "text": "Appearance of Urine"
        },
        "text": {
          "status": "generated",
          "div": "<div xmlns=\"http://www.w3.org/1999/xhtml\"><table class=\"hl7__eu__lab__report\"><tr><th>Test</th><th>05-Mar-2020</th><th>Reference&#xA0;Range</th><th>Unit</th></tr><tr><td>Appearance of Urine</td></tr></table></div>"
        },
        "status": "final",
        "subject": {
          "reference": "urn:uuid:fe725d33-864a-4528-b6dc-3367273337cf",
          "display": "Marthe Gallet"
        },
        "effectiveDateTime": "2020-03-05T19:05:43Z",
        "specimen": {
          "reference": "urn:uuid:8ce9df69-60db-4b34-ab62-fa044b3c1ef5"
        }
      }
    },
    {
      "fullUrl": "urn:uuid:cb309392-1bf5-48b7-9b34-944cb7d5e01c",
      "resource": {
        "resourceType": "Observation",
        "id": "cb309392-1bf5-48b7-9b34-944cb7d5e01c",
        "meta": {
          "profile": [
            "http://hl7.eu/fhir/laboratory/StructureDefinition/Observation-resultslab-eu-lab"
          ]
        },
        "performer": [
          {
            "display": "The Central European Lab"
          }
        ],
        "category": [
          {
            "coding": [
              {
                "system": "http://terminology.hl7.org/CodeSystem/observation-category",
                "code": "laboratory"
              }
            ]
          }
        ],
        "code": {
          "coding": [
            {
              "code": "34533-0",
              "system": "http://loinc.org",
              "display": "Odor of Urine"
            }
          ],
          "text": "Odor of Urine"
        },
        "text": {
          "status": "generated",
          "div": "<div xmlns=\"http://www.w3.org/1999/xhtml\"><table class=\"hl7__eu__lab__report\"><tr><th>Test</th><th>05-Mar-2020</th><th>Reference&#xA0;Range</th><th>Unit</th></tr><tr><td>Odor of Urine</td></tr></table></div>"
        },
        "status": "final",
        "subject": {
          "reference": "urn:uuid:fe725d33-864a-4528-b6dc-3367273337cf",
          "display": "Marthe Gallet"
        },
        "effectiveDateTime": "2020-03-05T19:05:43Z",
        "specimen": {
          "reference": "urn:uuid:8ce9df69-60db-4b34-ab62-fa044b3c1ef5"
        }
      }
    },
    {
      "fullUrl": "urn:uuid:9a68216a-74bd-419b-9af0-8e4410fb299b",
      "resource": {
        "resourceType": "Observation",
        "id": "9a68216a-74bd-419b-9af0-8e4410fb299b",
        "meta": {
          "profile": [
            "http://hl7.eu/fhir/laboratory/StructureDefinition/Observation-resultslab-eu-lab"
          ]
        },
        "performer": [
          {
            "display": "The Central European Lab"
          }
        ],
        "category": [
          {
            "coding": [
              {
                "system": "http://terminology.hl7.org/CodeSystem/observation-category",
                "code": "laboratory"
              }
            ]
          }
        ],
        "code": {
          "coding": [
            {
              "code": "32167-9",
              "system": "http://loinc.org",
              "display": "Clarity of Urine"
            }
          ],
          "text": "Clarity of Urine"
        },
        "text": {
          "status": "generated",
          "div": "<div xmlns=\"http://www.w3.org/1999/xhtml\"><table class=\"hl7__eu__lab__report\"><tr><th>Test</th><th>05-Mar-2020</th><th>Reference&#xA0;Range</th><th>Unit</th></tr><tr><td>Clarity of Urine</td></tr></table></div>"
        },
        "status": "final",
        "subject": {
          "reference": "urn:uuid:fe725d33-864a-4528-b6dc-3367273337cf",
          "display": "Marthe Gallet"
        },
        "effectiveDateTime": "2020-03-05T19:05:43Z",
        "specimen": {
          "reference": "urn:uuid:8ce9df69-60db-4b34-ab62-fa044b3c1ef5"
        }
      }
    },
    {
      "fullUrl": "urn:uuid:db5d9c00-6418-4aa4-b614-3368608008a1",
      "resource": {
        "resourceType": "Observation",
        "id": "db5d9c00-6418-4aa4-b614-3368608008a1",
        "meta": {
          "profile": [
            "http://hl7.eu/fhir/laboratory/StructureDefinition/Observation-resultslab-eu-lab"
          ]
        },
        "performer": [
          {
            "display": "The Central European Lab"
          }
        ],
        "category": [
          {
            "coding": [
              {
                "system": "http://terminology.hl7.org/CodeSystem/observation-category",
                "code": "laboratory"
              }
            ]
          }
        ],
        "code": {
          "coding": [
            {
              "code": "5778-6",
              "system": "http://loinc.org",
              "display": "Color of Urine"
            }
          ],
          "text": "Color of Urine"
        },
        "text": {
          "status": "generated",
          "div": "<div xmlns=\"http://www.w3.org/1999/xhtml\"><table class=\"hl7__eu__lab__report\"><tr><th>Test</th><th>05-Mar-2020</th><th>Reference&#xA0;Range</th><th>Unit</th></tr><tr><td>Color of Urine</td></tr></table></div>"
        },
        "status": "final",
        "subject": {
          "reference": "urn:uuid:fe725d33-864a-4528-b6dc-3367273337cf",
          "display": "Marthe Gallet"
        },
        "effectiveDateTime": "2020-03-05T19:05:43Z",
        "specimen": {
          "reference": "urn:uuid:8ce9df69-60db-4b34-ab62-fa044b3c1ef5"
        }
      }
    },
    {
      "fullUrl": "urn:uuid:b781c96d-62ab-48a1-a000-d44f00dd6848",
      "resource": {
        "resourceType": "Observation",
        "id": "b781c96d-62ab-48a1-a000-d44f00dd6848",
        "meta": {
          "profile": [
            "http://hl7.eu/fhir/laboratory/StructureDefinition/Observation-resultslab-eu-lab"
          ]
        },
        "performer": [
          {
            "display": "The Central European Lab"
          }
        ],
        "category": [
          {
            "coding": [
              {
                "system": "http://terminology.hl7.org/CodeSystem/observation-category",
                "code": "laboratory"
              }
            ]
          }
        ],
        "code": {
          "coding": [
            {
              "code": "5792-7",
              "system": "http://loinc.org",
              "display": "Glucose [Mass/volume] in Urine by Test strip"
            }
          ],
          "text": "Glucose [Mass/volume] in Urine by Test strip"
        },
        "valueQuantity": {
          "system": "http://unitsofmeasure.org",
          "value": 2.2,
          "unit": "mg/dL",
          "code": "mg/dL"
        },
        "referenceRange": [
          {
            "low": {
              "value": 0.8,
              "code": "mg/dL",
              "system": "http://unitsofmeasure.org"
            }
          },
          {
            "high": {
              "value": 0,
              "code": "mg/dL",
              "system": "http://unitsofmeasure.org"
            }
          }
        ],
        "interpretation": [
          {
            "coding": [
              {
                "code": "H",
                "system": "http://terminology.hl7.org/CodeSystem/v3-ObservationInterpretation",
                "display": "High"
              }
            ]
          }
        ],
        "text": {
          "status": "generated",
          "div": "<div xmlns=\"http://www.w3.org/1999/xhtml\"><table class=\"hl7__eu__lab__report\"><tr><th>Test</th><th>05-Mar-2020</th><th>Reference&#xA0;Range</th><th>Unit</th></tr><tr><td>Glucose [Mass/volume] in Urine by Test strip</td><td>2.2</td><td>0.8 - 0</td><td>H</td><td>mg/dL</td></tr></table></div>"
        },
        "status": "final",
        "subject": {
          "reference": "urn:uuid:fe725d33-864a-4528-b6dc-3367273337cf",
          "display": "Marthe Gallet"
        },
        "effectiveDateTime": "2020-03-05T19:05:43Z",
        "specimen": {
          "reference": "urn:uuid:8ce9df69-60db-4b34-ab62-fa044b3c1ef5"
        }
      }
    },
    {
      "fullUrl": "urn:uuid:f9020520-8c4b-43a1-879c-3b65b02e772c",
      "resource": {
        "resourceType": "Observation",
        "id": "f9020520-8c4b-43a1-879c-3b65b02e772c",
        "meta": {
          "profile": [
            "http://hl7.eu/fhir/laboratory/StructureDefinition/Observation-resultslab-eu-lab"
          ]
        },
        "performer": [
          {
            "display": "The Central European Lab"
          }
        ],
        "category": [
          {
            "coding": [
              {
                "system": "http://terminology.hl7.org/CodeSystem/observation-category",
                "code": "laboratory"
              }
            ]
          }
        ],
        "code": {
          "coding": [
            {
              "code": "25428-4",
              "system": "http://loinc.org",
              "display": "Glucose [Presence] in Urine by Test strip"
            }
          ],
          "text": "Glucose [Presence] in Urine by Test strip"
        },
        "text": {
          "status": "generated",
          "div": "<div xmlns=\"http://www.w3.org/1999/xhtml\"><table class=\"hl7__eu__lab__report\"><tr><th>Test</th><th>05-Mar-2020</th><th>Reference&#xA0;Range</th><th>Unit</th></tr><tr><td>Glucose [Presence] in Urine by Test strip</td></tr></table></div>"
        },
        "status": "final",
        "subject": {
          "reference": "urn:uuid:fe725d33-864a-4528-b6dc-3367273337cf",
          "display": "Marthe Gallet"
        },
        "effectiveDateTime": "2020-03-05T19:05:43Z",
        "specimen": {
          "reference": "urn:uuid:8ce9df69-60db-4b34-ab62-fa044b3c1ef5"
        }
      }
    },
    {
      "fullUrl": "urn:uuid:2cdaf9f8-7639-42d3-b42c-3f2990163799",
      "resource": {
        "resourceType": "Observation",
        "id": "2cdaf9f8-7639-42d3-b42c-3f2990163799",
        "meta": {
          "profile": [
            "http://hl7.eu/fhir/laboratory/StructureDefinition/Observation-resultslab-eu-lab"
          ]
        },
        "performer": [
          {
            "display": "The Central European Lab"
          }
        ],
        "category": [
          {
            "coding": [
              {
                "system": "http://terminology.hl7.org/CodeSystem/observation-category",
                "code": "laboratory"
              }
            ]
          }
        ],
        "code": {
          "coding": [
            {
              "code": "20505-4",
              "system": "http://loinc.org",
              "display": "Bilirubin.total [Mass/volume] in Urine by Test strip"
            }
          ],
          "text": "Bilirubin.total [Mass/volume] in Urine by Test strip"
        },
        "valueQuantity": {
          "system": "http://unitsofmeasure.org",
          "value": 0.8,
          "unit": "mg/dL",
          "code": "mg/dL"
        },
        "referenceRange": [
          {
            "low": {
              "value": 0,
              "code": "mg/dL",
              "system": "http://unitsofmeasure.org"
            }
          },
          {
            "high": {
              "value": 1,
              "code": "mg/dL",
              "system": "http://unitsofmeasure.org"
            }
          }
        ],
        "text": {
          "status": "generated",
          "div": "<div xmlns=\"http://www.w3.org/1999/xhtml\"><table class=\"hl7__eu__lab__report\"><tr><th>Test</th><th>05-Mar-2020</th><th>Reference&#xA0;Range</th><th>Unit</th></tr><tr><td>Bilirubin.total [Mass/volume] in Urine by Test strip</td><td>0.8</td><td>0 - 1</td><td></td><td>mg/dL</td></tr></table></div>"
        },
        "status": "final",
        "subject": {
          "reference": "urn:uuid:fe725d33-864a-4528-b6dc-3367273337cf",
          "display": "Marthe Gallet"
        },
        "effectiveDateTime": "2020-03-05T19:05:43Z",
        "specimen": {
          "reference": "urn:uuid:8ce9df69-60db-4b34-ab62-fa044b3c1ef5"
        }
      }
    },
    {
      "fullUrl": "urn:uuid:88f0ac2a-d69d-4a69-ab60-642efcf5f7c1",
      "resource": {
        "resourceType": "Observation",
        "id": "88f0ac2a-d69d-4a69-ab60-642efcf5f7c1",
        "meta": {
          "profile": [
            "http://hl7.eu/fhir/laboratory/StructureDefinition/Observation-resultslab-eu-lab"
          ]
        },
        "performer": [
          {
            "display": "The Central European Lab"
          }
        ],
        "category": [
          {
            "coding": [
              {
                "system": "http://terminology.hl7.org/CodeSystem/observation-category",
                "code": "laboratory"
              }
            ]
          }
        ],
        "code": {
          "coding": [
            {
              "code": "5770-3",
              "system": "http://loinc.org",
              "display": "Bilirubin.total [Presence] in Urine by Test strip"
            }
          ],
          "text": "Bilirubin.total [Presence] in Urine by Test strip"
        },
        "text": {
          "status": "generated",
          "div": "<div xmlns=\"http://www.w3.org/1999/xhtml\"><table class=\"hl7__eu__lab__report\"><tr><th>Test</th><th>05-Mar-2020</th><th>Reference&#xA0;Range</th><th>Unit</th></tr><tr><td>Bilirubin.total [Presence] in Urine by Test strip</td></tr></table></div>"
        },
        "status": "final",
        "subject": {
          "reference": "urn:uuid:fe725d33-864a-4528-b6dc-3367273337cf",
          "display": "Marthe Gallet"
        },
        "effectiveDateTime": "2020-03-05T19:05:43Z",
        "specimen": {
          "reference": "urn:uuid:8ce9df69-60db-4b34-ab62-fa044b3c1ef5"
        }
      }
    },
    {
      "fullUrl": "urn:uuid:632563c3-cc0f-4bad-a3cf-9bf5b6249045",
      "resource": {
        "resourceType": "Observation",
        "id": "632563c3-cc0f-4bad-a3cf-9bf5b6249045",
        "meta": {
          "profile": [
            "http://hl7.eu/fhir/laboratory/StructureDefinition/Observation-resultslab-eu-lab"
          ]
        },
        "performer": [
          {
            "display": "The Central European Lab"
          }
        ],
        "category": [
          {
            "coding": [
              {
                "system": "http://terminology.hl7.org/CodeSystem/observation-category",
                "code": "laboratory"
              }
            ]
          }
        ],
        "code": {
          "coding": [
            {
              "code": "5797-6",
              "system": "http://loinc.org",
              "display": "Ketones [Mass/volume] in Urine by Test strip"
            }
          ],
          "text": "Ketones [Mass/volume] in Urine by Test strip"
        },
        "valueQuantity": {
          "system": "http://unitsofmeasure.org",
          "value": 1.6,
          "unit": "mg/dL",
          "code": "mg/dL"
        },
        "referenceRange": [
          {
            "low": {
              "value": 0,
              "code": "mg/dL",
              "system": "http://unitsofmeasure.org"
            }
          },
          {
            "high": {
              "value": 20,
              "code": "mg/dL",
              "system": "http://unitsofmeasure.org"
            }
          }
        ],
        "text": {
          "status": "generated",
          "div": "<div xmlns=\"http://www.w3.org/1999/xhtml\"><table class=\"hl7__eu__lab__report\"><tr><th>Test</th><th>05-Mar-2020</th><th>Reference&#xA0;Range</th><th>Unit</th></tr><tr><td>Ketones [Mass/volume] in Urine by Test strip</td><td>1.6</td><td>0 - 20</td><td></td><td>mg/dL</td></tr></table></div>"
        },
        "status": "final",
        "subject": {
          "reference": "urn:uuid:fe725d33-864a-4528-b6dc-3367273337cf",
          "display": "Marthe Gallet"
        },
        "effectiveDateTime": "2020-03-05T19:05:43Z",
        "specimen": {
          "reference": "urn:uuid:8ce9df69-60db-4b34-ab62-fa044b3c1ef5"
        }
      }
    },
    {
      "fullUrl": "urn:uuid:17d219d9-c5f7-4318-a553-fa2259f1fa77",
      "resource": {
        "resourceType": "Observation",
        "id": "17d219d9-c5f7-4318-a553-fa2259f1fa77",
        "meta": {
          "profile": [
            "http://hl7.eu/fhir/laboratory/StructureDefinition/Observation-resultslab-eu-lab"
          ]
        },
        "performer": [
          {
            "display": "The Central European Lab"
          }
        ],
        "category": [
          {
            "coding": [
              {
                "system": "http://terminology.hl7.org/CodeSystem/observation-category",
                "code": "laboratory"
              }
            ]
          }
        ],
        "code": {
          "coding": [
            {
              "code": "2514-8",
              "system": "http://loinc.org",
              "display": "Ketones [Presence] in Urine by Test strip"
            }
          ],
          "text": "Ketones [Presence] in Urine by Test strip"
        },
        "text": {
          "status": "generated",
          "div": "<div xmlns=\"http://www.w3.org/1999/xhtml\"><table class=\"hl7__eu__lab__report\"><tr><th>Test</th><th>05-Mar-2020</th><th>Reference&#xA0;Range</th><th>Unit</th></tr><tr><td>Ketones [Presence] in Urine by Test strip</td></tr></table></div>"
        },
        "status": "final",
        "subject": {
          "reference": "urn:uuid:fe725d33-864a-4528-b6dc-3367273337cf",
          "display": "Marthe Gallet"
        },
        "effectiveDateTime": "2020-03-05T19:05:43Z",
        "specimen": {
          "reference": "urn:uuid:8ce9df69-60db-4b34-ab62-fa044b3c1ef5"
        }
      }
    },
    {
      "fullUrl": "urn:uuid:bcbcec6e-40f2-4ea8-9400-cc95b6b297bf",
      "resource": {
        "resourceType": "Observation",
        "id": "bcbcec6e-40f2-4ea8-9400-cc95b6b297bf",
        "meta": {
          "profile": [
            "http://hl7.eu/fhir/laboratory/StructureDefinition/Observation-resultslab-eu-lab"
          ]
        },
        "performer": [
          {
            "display": "The Central European Lab"
          }
        ],
        "category": [
          {
            "coding": [
              {
                "system": "http://terminology.hl7.org/CodeSystem/observation-category",
                "code": "laboratory"
              }
            ]
          }
        ],
        "code": {
          "coding": [
            {
              "code": "5811-5",
              "system": "http://loinc.org",
              "display": "Specific gravity of Urine by Test strip"
            }
          ],
          "text": "Specific gravity of Urine by Test strip"
        },
        "valueQuantity": {
          "system": "http://unitsofmeasure.org",
          "value": 1,
          "unit": "{nominal}",
          "code": "{nominal}"
        },
        "referenceRange": [
          {
            "low": {
              "value": 1.01,
              "code": "g/mL",
              "system": "http://unitsofmeasure.org"
            }
          },
          {
            "high": {
              "value": 1.03,
              "code": "g/mL",
              "system": "http://unitsofmeasure.org"
            }
          }
        ],
        "interpretation": [
          {
            "coding": [
              {
                "code": "L",
                "system": "http://terminology.hl7.org/CodeSystem/v3-ObservationInterpretation",
                "display": "Low"
              }
            ]
          }
        ],
        "text": {
          "status": "generated",
          "div": "<div xmlns=\"http://www.w3.org/1999/xhtml\"><table class=\"hl7__eu__lab__report\"><tr><th>Test</th><th>05-Mar-2020</th><th>Reference&#xA0;Range</th><th>Unit</th></tr><tr><td>Specific gravity of Urine by Test strip</td><td>1.0</td><td>1.01 - 1.03</td><td>L</td><td>{nominal}</td></tr></table></div>"
        },
        "status": "final",
        "subject": {
          "reference": "urn:uuid:fe725d33-864a-4528-b6dc-3367273337cf",
          "display": "Marthe Gallet"
        },
        "effectiveDateTime": "2020-03-05T19:05:43Z",
        "specimen": {
          "reference": "urn:uuid:8ce9df69-60db-4b34-ab62-fa044b3c1ef5"
        }
      }
    },
    {
      "fullUrl": "urn:uuid:2fef1251-c72b-43d1-a742-53f8b26720ba",
      "resource": {
        "resourceType": "Observation",
        "id": "2fef1251-c72b-43d1-a742-53f8b26720ba",
        "meta": {
          "profile": [
            "http://hl7.eu/fhir/laboratory/StructureDefinition/Observation-resultslab-eu-lab"
          ]
        },
        "performer": [
          {
            "display": "The Central European Lab"
          }
        ],
        "category": [
          {
            "coding": [
              {
                "system": "http://terminology.hl7.org/CodeSystem/observation-category",
                "code": "laboratory"
              }
            ]
          }
        ],
        "code": {
          "coding": [
            {
              "code": "5803-2",
              "system": "http://loinc.org",
              "display": "pH of Urine by Test strip"
            }
          ],
          "text": "pH of Urine by Test strip"
        },
        "valueQuantity": {
          "system": "http://unitsofmeasure.org",
          "value": 6.4,
          "unit": "pH",
          "code": "pH"
        },
        "referenceRange": [
          {
            "low": {
              "value": 4.6,
              "code": "pH",
              "system": "http://unitsofmeasure.org"
            }
          },
          {
            "high": {
              "value": 7,
              "code": "pH",
              "system": "http://unitsofmeasure.org"
            }
          }
        ],
        "text": {
          "status": "generated",
          "div": "<div xmlns=\"http://www.w3.org/1999/xhtml\"><table class=\"hl7__eu__lab__report\"><tr><th>Test</th><th>05-Mar-2020</th><th>Reference&#xA0;Range</th><th>Unit</th></tr><tr><td>pH of Urine by Test strip</td><td>6.4</td><td>4.6 - 7</td><td></td><td>pH</td></tr></table></div>"
        },
        "status": "final",
        "subject": {
          "reference": "urn:uuid:fe725d33-864a-4528-b6dc-3367273337cf",
          "display": "Marthe Gallet"
        },
        "effectiveDateTime": "2020-03-05T19:05:43Z",
        "specimen": {
          "reference": "urn:uuid:8ce9df69-60db-4b34-ab62-fa044b3c1ef5"
        }
      }
    },
    {
      "fullUrl": "urn:uuid:33d3ca2a-0e7d-4cb9-8243-deeafcfe0ac3",
      "resource": {
        "resourceType": "Observation",
        "id": "33d3ca2a-0e7d-4cb9-8243-deeafcfe0ac3",
        "meta": {
          "profile": [
            "http://hl7.eu/fhir/laboratory/StructureDefinition/Observation-resultslab-eu-lab"
          ]
        },
        "performer": [
          {
            "display": "The Central European Lab"
          }
        ],
        "category": [
          {
            "coding": [
              {
                "system": "http://terminology.hl7.org/CodeSystem/observation-category",
                "code": "laboratory"
              }
            ]
          }
        ],
        "code": {
          "coding": [
            {
              "code": "5804-0",
              "system": "http://loinc.org",
              "display": "Protein [Mass/volume] in Urine by Test strip"
            }
          ],
          "text": "Protein [Mass/volume] in Urine by Test strip"
        },
        "valueQuantity": {
          "system": "http://unitsofmeasure.org",
          "value": 121.1,
          "unit": "mg/dL",
          "code": "mg/dL"
        },
        "referenceRange": [
          {
            "low": {
              "value": 0,
              "code": "mg/dL",
              "system": "http://unitsofmeasure.org"
            }
          },
          {
            "high": {
              "value": 15,
              "code": "mg/dL",
              "system": "http://unitsofmeasure.org"
            }
          }
        ],
        "interpretation": [
          {
            "coding": [
              {
                "code": "H",
                "system": "http://terminology.hl7.org/CodeSystem/v3-ObservationInterpretation",
                "display": "High"
              }
            ]
          }
        ],
        "text": {
          "status": "generated",
          "div": "<div xmlns=\"http://www.w3.org/1999/xhtml\"><table class=\"hl7__eu__lab__report\"><tr><th>Test</th><th>05-Mar-2020</th><th>Reference&#xA0;Range</th><th>Unit</th></tr><tr><td>Protein [Mass/volume] in Urine by Test strip</td><td>121.1</td><td>0 - 15</td><td>H</td><td>mg/dL</td></tr></table></div>"
        },
        "status": "final",
        "subject": {
          "reference": "urn:uuid:fe725d33-864a-4528-b6dc-3367273337cf",
          "display": "Marthe Gallet"
        },
        "effectiveDateTime": "2020-03-05T19:05:43Z",
        "specimen": {
          "reference": "urn:uuid:8ce9df69-60db-4b34-ab62-fa044b3c1ef5"
        }
      }
    },
    {
      "fullUrl": "urn:uuid:d1bb1af3-d2dd-49dd-9b4e-5912d4e932a7",
      "resource": {
        "resourceType": "Observation",
        "id": "d1bb1af3-d2dd-49dd-9b4e-5912d4e932a7",
        "meta": {
          "profile": [
            "http://hl7.eu/fhir/laboratory/StructureDefinition/Observation-resultslab-eu-lab"
          ]
        },
        "performer": [
          {
            "display": "The Central European Lab"
          }
        ],
        "category": [
          {
            "coding": [
              {
                "system": "http://terminology.hl7.org/CodeSystem/observation-category",
                "code": "laboratory"
              }
            ]
          }
        ],
        "code": {
          "coding": [
            {
              "code": "20454-5",
              "system": "http://loinc.org",
              "display": "Protein [Presence] in Urine by Test strip"
            }
          ],
          "text": "Protein [Presence] in Urine by Test strip"
        },
        "text": {
          "status": "generated",
          "div": "<div xmlns=\"http://www.w3.org/1999/xhtml\"><table class=\"hl7__eu__lab__report\"><tr><th>Test</th><th>05-Mar-2020</th><th>Reference&#xA0;Range</th><th>Unit</th></tr><tr><td>Protein [Presence] in Urine by Test strip</td></tr></table></div>"
        },
        "status": "final",
        "subject": {
          "reference": "urn:uuid:fe725d33-864a-4528-b6dc-3367273337cf",
          "display": "Marthe Gallet"
        },
        "effectiveDateTime": "2020-03-05T19:05:43Z",
        "specimen": {
          "reference": "urn:uuid:8ce9df69-60db-4b34-ab62-fa044b3c1ef5"
        }
      }
    },
    {
      "fullUrl": "urn:uuid:1c53682b-821f-4f79-87c1-306c2895563f",
      "resource": {
        "resourceType": "Observation",
        "id": "1c53682b-821f-4f79-87c1-306c2895563f",
        "meta": {
          "profile": [
            "http://hl7.eu/fhir/laboratory/StructureDefinition/Observation-resultslab-eu-lab"
          ]
        },
        "performer": [
          {
            "display": "The Central European Lab"
          }
        ],
        "category": [
          {
            "coding": [
              {
                "system": "http://terminology.hl7.org/CodeSystem/observation-category",
                "code": "laboratory"
              }
            ]
          }
        ],
        "code": {
          "coding": [
            {
              "code": "5802-4",
              "system": "http://loinc.org",
              "display": "Nitrite [Presence] in Urine by Test strip"
            }
          ],
          "text": "Nitrite [Presence] in Urine by Test strip"
        },
        "text": {
          "status": "generated",
          "div": "<div xmlns=\"http://www.w3.org/1999/xhtml\"><table class=\"hl7__eu__lab__report\"><tr><th>Test</th><th>05-Mar-2020</th><th>Reference&#xA0;Range</th><th>Unit</th></tr><tr><td>Nitrite [Presence] in Urine by Test strip</td></tr></table></div>"
        },
        "status": "final",
        "subject": {
          "reference": "urn:uuid:fe725d33-864a-4528-b6dc-3367273337cf",
          "display": "Marthe Gallet"
        },
        "effectiveDateTime": "2020-03-05T19:05:43Z",
        "specimen": {
          "reference": "urn:uuid:8ce9df69-60db-4b34-ab62-fa044b3c1ef5"
        }
      }
    },
    {
      "fullUrl": "urn:uuid:8cce67be-9105-4690-b5a6-983912a5c840",
      "resource": {
        "resourceType": "Observation",
        "id": "8cce67be-9105-4690-b5a6-983912a5c840",
        "meta": {
          "profile": [
            "http://hl7.eu/fhir/laboratory/StructureDefinition/Observation-resultslab-eu-lab"
          ]
        },
        "performer": [
          {
            "display": "The Central European Lab"
          }
        ],
        "category": [
          {
            "coding": [
              {
                "system": "http://terminology.hl7.org/CodeSystem/observation-category",
                "code": "laboratory"
              }
            ]
          }
        ],
        "code": {
          "coding": [
            {
              "code": "5794-3",
              "system": "http://loinc.org",
              "display": "Hemoglobin [Presence] in Urine by Test strip"
            }
          ],
          "text": "Hemoglobin [Presence] in Urine by Test strip"
        },
        "text": {
          "status": "generated",
          "div": "<div xmlns=\"http://www.w3.org/1999/xhtml\"><table class=\"hl7__eu__lab__report\"><tr><th>Test</th><th>05-Mar-2020</th><th>Reference&#xA0;Range</th><th>Unit</th></tr><tr><td>Hemoglobin [Presence] in Urine by Test strip</td></tr></table></div>"
        },
        "status": "final",
        "subject": {
          "reference": "urn:uuid:fe725d33-864a-4528-b6dc-3367273337cf",
          "display": "Marthe Gallet"
        },
        "effectiveDateTime": "2020-03-05T19:05:43Z",
        "specimen": {
          "reference": "urn:uuid:8ce9df69-60db-4b34-ab62-fa044b3c1ef5"
        }
      }
    },
    {
      "fullUrl": "urn:uuid:60973ee6-86ac-409d-8fb5-7ccced7086b0",
      "resource": {
        "resourceType": "Observation",
        "id": "60973ee6-86ac-409d-8fb5-7ccced7086b0",
        "meta": {
          "profile": [
            "http://hl7.eu/fhir/laboratory/StructureDefinition/Observation-resultslab-eu-lab"
          ]
        },
        "performer": [
          {
            "display": "The Central European Lab"
          }
        ],
        "category": [
          {
            "coding": [
              {
                "system": "http://terminology.hl7.org/CodeSystem/observation-category",
                "code": "laboratory"
              }
            ]
          }
        ],
        "code": {
          "coding": [
            {
              "code": "5799-2",
              "system": "http://loinc.org",
              "display": "Leukocyte esterase [Presence] in Urine by Test strip"
            }
          ],
          "text": "Leukocyte esterase [Presence] in Urine by Test strip"
        },
        "text": {
          "status": "generated",
          "div": "<div xmlns=\"http://www.w3.org/1999/xhtml\"><table class=\"hl7__eu__lab__report\"><tr><th>Test</th><th>05-Mar-2020</th><th>Reference&#xA0;Range</th><th>Unit</th></tr><tr><td>Leukocyte esterase [Presence] in Urine by Test strip</td></tr></table></div>"
        },
        "status": "final",
        "subject": {
          "reference": "urn:uuid:fe725d33-864a-4528-b6dc-3367273337cf",
          "display": "Marthe Gallet"
        },
        "effectiveDateTime": "2020-03-05T19:05:43Z",
        "specimen": {
          "reference": "urn:uuid:8ce9df69-60db-4b34-ab62-fa044b3c1ef5"
        }
      }
    },
    {
      "fullUrl": "urn:uuid:b640785f-f49b-4e61-821b-04a26bffc188",
      "resource": {
        "resourceType": "Device",
        "id": "b640785f-f49b-4e61-821b-04a26bffc188",
        "deviceName": [
          {
            "name": "SYNDERAI Synthetic Generator",
            "type": "manufacturer-name"
          }
        ],
        "version": [
          {
            "value": "5.0"
          }
        ],
        "text": {
          "status": "generated",
          "div": "<div xmlns=\"http://www.w3.org/1999/xhtml\">SYNDERAI Synthetic Generator v5.0</div>"
        },
        "status": "active\"",
        "distinctIdentifier": "synderai-generator-50",
        "manufacturer": "SYNDERAI Project"
      }
    },
    {
      "fullUrl": "urn:uuid:8f7d8a68-e108-46e0-a5a8-ac71e757ebb3",
      "resource": {
        "resourceType": "Provenance",
        "id": "8f7d8a68-e108-46e0-a5a8-ac71e757ebb3",
        "target": [
          {
            "reference": "Patient/fe725d33-864a-4528-b6dc-3367273337cf"
          },
          {
            "reference": "Bundle/e1c30def-1b66-47b7-ad04-b8888ae238f9"
          },
          {
            "reference": "Composition/14e2a07d-071e-476e-90d2-c07735ba44b3"
          },
          {
            "reference": "PractitionerRole/1d23d29c-25d0-4ef1-9946-886ad037d326"
          },
          {
            "reference": "Practitioner/02138914-824f-4bc9-a764-e3a4d8e71fb3"
          },
          {
            "reference": "PractitionerRole/227dd070-7ae3-4799-bbbf-177306246b5e"
          },
          {
            "reference": "Organization/bf6b78bd-4ada-4d5a-bb76-aee53abc08ea"
          }
        ],
        "activity": {
          "text": "Synthetic Example Data Generation"
        },
        "policy": [
          "https://synderai.net/synderai-synthetic-data-policy"
        ],
        "agent": [
          {
            "type": {
              "text": "author"
            },
            "who": {
              "reference": "Device/b640785f-f49b-4e61-821b-04a26bffc188"
            }
          }
        ],
        "reason": [
          {
            "text": "Interoperability Testing and Training (non-clinical use)"
          }
        ],
        "text": {
          "status": "generated",
          "div": "<div xmlns=\"http://www.w3.org/1999/xhtml\">Provenance for SYNDERAI Synthetic Example Data Resource</div>"
        },
        "recorded": "2020-03-05T20:05:43Z"
      }
    },
    {
      "fullUrl": "urn:uuid:1d23d29c-25d0-4ef1-9946-886ad037d326",
      "resource": {
        "resourceType": "PractitionerRole",
        "id": "1d23d29c-25d0-4ef1-9946-886ad037d326",
        "meta": {
          "profile": [
            "http://hl7.eu/fhir/base/StructureDefinition/practitionerRole-eu"
          ]
        },
        "text": {
          "status": "generated",
          "div": "<div xmlns=\"http://www.w3.org/1999/xhtml\">Laboratory Role Id: 1d23d29c-25d0-4ef1-9946-886ad037d326</div>"
        },
        "practitioner": {
          "reference": "urn:uuid:02138914-824f-4bc9-a764-e3a4d8e71fb3"
        }
      }
    },
    {
      "fullUrl": "urn:uuid:02138914-824f-4bc9-a764-e3a4d8e71fb3",
      "resource": {
        "resourceType": "Practitioner",
        "id": "02138914-824f-4bc9-a764-e3a4d8e71fb3",
        "meta": {
          "profile": [
            "http://hl7.eu/fhir/base/StructureDefinition/practitioner-eu"
          ]
        },
        "identifier": [
          {
            "assigner": {
              "display": "HL7 Europe"
            },
            "system": "urn:oid:2.16.840.1.113883.2.51.999",
            "value": "9ffc3de6-48fa-4001-b01c-49ad54a49cec"
          }
        ],
        "name": [
          {
            "prefix": [
              "dr"
            ],
            "given": [
              "Ex"
            ],
            "family": "Ample"
          }
        ],
        "address": [
          {
            "line": [
              "Laboratoire Central Européenne",
              "Boulevard du Jardin Botanique 32"
            ],
            "postalCode": "1000",
            "city": "Brussels",
            "country": "Belgium"
          }
        ],
        "text": {
          "status": "generated",
          "div": "<div xmlns=\"http://www.w3.org/1999/xhtml\">Laboratory: Laboratoire Central Européenne, 1000 Brussels, Belgium</div>"
        }
      }
    }
  ],
  "type": "document",
  "timestamp": "2020-03-05T20:05:43Z"
}
