<Bundle xmlns="http://hl7.org/fhir">
   <id value="f03da6a5-665d-4cfd-902f-89fc887c4529"/>
   <meta>
      <profile value="http://hl7.eu/fhir/laboratory/StructureDefinition/Bundle-eu-lab"/>
   </meta>
   <identifier>
      <system value="urn:oid:2.16.840.1.113883.2.51.999"/>
      <value value="706aea01-df31-4680-8946-3c55e554c154"/>
      <assigner>
         <display value="HL7 Europe"/>
      </assigner>
   </identifier>
   <type value="document"/>
   <timestamp value="2020-11-11T08:25:24Z"/>
   <entry>
      <fullUrl value="urn:uuid:a3568b44-a95c-4624-9c6a-c5b4cfc697d8"/>
      <resource>
         <Composition>
            <id value="a3568b44-a95c-4624-9c6a-c5b4cfc697d8"/>
            <meta>
               <profile value="http://hl7.eu/fhir/laboratory/StructureDefinition/Composition-eu-lab"/>
            </meta>
            <identifier>
               <system value="urn:oid:2.16.840.1.113883.2.51.999"/>
               <value value="71fcdb0e-4b2c-4d2d-9a65-388cc4d1dbf3"/>
               <assigner>
                  <display value="HL7 Europe"/>
               </assigner>
            </identifier>
            <status value="final"/>
            <type>
               <coding>
                  <system value="http://loinc.org"/>
                  <code value="11502-2"/>
                  <display value="Laboratory report"/>
               </coding>
               <text value="Laboratory Report"/>
            </type>
            <category>
               <coding>
                  <system value="http://loinc.org"/>
                  <code value="26436-6"/>
                  <display value="Laboratory studies (set)"/>
               </coding>
            </category>
            <subject>
               <reference value="urn:uuid:8050e48f-f910-4bbf-9e62-3af68277883a"/>
               <display value="Lazăr Florea"/>
            </subject>
            <date value="2020-11-11T08:25:24Z"/>
            <author>
               <reference value="urn:uuid:7df8b35a-4792-4d2b-ab38-b6d9c97fbcd6"/>
            </author>
            <title value="Laboratory Report"/>
            <confidentiality value="N"/>
            <section>
               <title value="Laboratory Report"/>
               <code>
                  <coding>
                     <system value="http://loinc.org"/>
                     <code value="26436-6"/>
                     <display value="Laboratory studies (set)"/>
                  </coding>
                  <text value="Laboratory studies"/>
               </code>
               <section>
                  <title value="Chemistry"/>
                  <code>
                     <coding>
                        <system value="http://loinc.org"/>
                        <code value="$18719-5"/>
                        <display value="Chemistry studies (set)"/>
                     </coding>
                     <text value="Chemistry"/>
                  </code>
                  <text>
                     <status value="generated"/>
                     <div xmlns="http://www.w3.org/1999/xhtml">
                        <h3>Chemistry</h3>
                        <table class="hl7__eu__lab__report">
                           <thead>
                              <tr>
                                 <th>Test</th>
                                 <th>11-NOV-2020</th>
                                 <th>Reference Range</th>
                                 <th>Unit</th>
                              </tr>
                           </thead>
                           <tbody>
                              <tr>
                                 <td>Ketones [Presence] in Urine by Test strip</td>
                                 <td>Urine ketone test negative</td>
                                 <td/>
                                 <td/>
                              </tr>
                           </tbody>
                        </table>
                     </div>
                  </text>
                  <entry>
                     <reference value="urn:uuid:9d5d5021-b359-44dc-803d-a7c7967f0de3"/>
                  </entry>
               </section>
               <section>
                  <title value="Urinalysis"/>
                  <code>
                     <coding>
                        <system value="http://loinc.org"/>
                        <code value="$18729-4"/>
                        <display value="Urinalysis studies (set)"/>
                     </coding>
                     <text value="Urinalysis"/>
                  </code>
                  <text>
                     <status value="generated"/>
                     <div xmlns="http://www.w3.org/1999/xhtml">
                        <h3>Urinalysis</h3>
                        <table class="hl7__eu__lab__report">
                           <thead>
                              <tr>
                                 <th>Test</th>
                                 <th>11-NOV-2020</th>
                                 <th>Reference Range</th>
                                 <th>Unit</th>
                              </tr>
                           </thead>
                           <tbody>
                              <tr>
                                 <td>Glucose [Mass/volume] in Urine by Test strip</td>
                                 <td>
                                    <strong>10.3 H</strong>
                                 </td>
                                 <td>0 - 0.8</td>
                                 <td>mg/dL</td>
                              </tr>
                              <tr>
                                 <td>Specific gravity of Urine by Test strip</td>
                                 <td>
                                    <strong>1.0 L</strong>
                                 </td>
                                 <td>1.005 - 1.03</td>
                                 <td>{nominal}</td>
                              </tr>
                              <tr>
                                 <td>pH of Urine by Test strip</td>
                                 <td>6.0</td>
                                 <td>4.6 - 7</td>
                                 <td>pH</td>
                              </tr>
                              <tr>
                                 <td>Protein [Mass/volume] in Urine by Test strip</td>
                                 <td>10.6</td>
                                 <td>0 - 145</td>
                                 <td>mg/dL</td>
                              </tr>
                              <tr>
                                 <td>Nitrite [Presence] in Urine by Test strip</td>
                                 <td>Urine nitrite positive</td>
                                 <td/>
                                 <td/>
                              </tr>
                              <tr>
                                 <td>Hemoglobin [Presence] in Urine by Test strip</td>
                                 <td>Urine blood test = +</td>
                                 <td/>
                                 <td/>
                              </tr>
                              <tr>
                                 <td>Leukocyte esterase [Presence] in Urine by Test strip</td>
                                 <td>Urine leukocyte test</td>
                                 <td/>
                                 <td/>
                              </tr>
                              <tr>
                                 <td>Leukocytes [#/area] in Urine sediment by Microscopy high power field</td>
                                 <td>42.7</td>
                                 <td>0 - 50</td>
                                 <td>/[HPF]</td>
                              </tr>
                              <tr>
                                 <td>Erythrocytes [#/area] in Urine sediment by Microscopy high power field</td>
                                 <td>1.3</td>
                                 <td>0 - 3</td>
                                 <td>/[HPF]</td>
                              </tr>
                              <tr>
                                 <td>Epithelial cells [#/area] in Urine sediment by Microscopy high power field</td>
                                 <td>3.5</td>
                                 <td>0 - 10</td>
                                 <td>/[HPF]</td>
                              </tr>
                              <tr>
                                 <td>Casts [Presence] in Urine sediment by Light microscopy</td>
                                 <td>Urine microscopy: no casts</td>
                                 <td/>
                                 <td/>
                              </tr>
                              <tr>
                                 <td>Mucus [Presence] in Urine sediment by Light microscopy</td>
                                 <td>Mucus in urine</td>
                                 <td/>
                                 <td/>
                              </tr>
                              <tr>
                                 <td>Bacteria [#/area] in Urine sediment by Microscopy high power field</td>
                                 <td>Finding of presence of bacteria</td>
                                 <td/>
                                 <td/>
                              </tr>
                           </tbody>
                        </table>
                     </div>
                  </text>
                  <entry>
                     <reference value="urn:uuid:51f19bbc-7cd3-4c8a-a6f4-42c8235a5f2d"/>
                  </entry>
                  <entry>
                     <reference value="urn:uuid:462f7344-f782-49db-8ab0-f5200d9ad247"/>
                  </entry>
                  <entry>
                     <reference value="urn:uuid:d105ade2-ae3d-4441-87c1-410a917524b5"/>
                  </entry>
                  <entry>
                     <reference value="urn:uuid:71e9c9cd-f13c-4fbb-adb2-75434d8f9896"/>
                  </entry>
                  <entry>
                     <reference value="urn:uuid:d4c9e6b5-fe03-45cb-aac4-d70c205d3d18"/>
                  </entry>
                  <entry>
                     <reference value="urn:uuid:5bf1d12b-6ebe-4ff2-b781-afdd1d17772f"/>
                  </entry>
                  <entry>
                     <reference value="urn:uuid:866ad135-fcb5-4b65-89c5-6e2ad0741a46"/>
                  </entry>
                  <entry>
                     <reference value="urn:uuid:ee633e2c-7b2c-42f7-97b2-61437aba2753"/>
                  </entry>
                  <entry>
                     <reference value="urn:uuid:a2d2ba9e-a495-4108-9a67-da0fc3b8efa3"/>
                  </entry>
                  <entry>
                     <reference value="urn:uuid:0882efd1-d69a-470e-b4d8-84a1d7e76130"/>
                  </entry>
                  <entry>
                     <reference value="urn:uuid:8922038f-14da-4d74-a6f7-3fa4eebdc244"/>
                  </entry>
                  <entry>
                     <reference value="urn:uuid:07e7043e-8b33-4c27-9dac-4cef3638b96b"/>
                  </entry>
                  <entry>
                     <reference value="urn:uuid:6c4c2efd-a4ed-4cef-bf9d-1eaaa58d92c2"/>
                  </entry>
               </section>
               <section>
                  <title value="Microbiology"/>
                  <code>
                     <coding>
                        <system value="http://loinc.org"/>
                        <code value="$18725-2"/>
                        <display value="Microbiology studies"/>
                     </coding>
                     <text value="Microbiology"/>
                  </code>
                  <text>
                     <status value="generated"/>
                     <div xmlns="http://www.w3.org/1999/xhtml">
                        <h3>Microbiology</h3>
                        <table class="hl7__eu__lab__report">
                           <thead>
                              <tr>
                                 <th>Test</th>
                                 <th>11-NOV-2020</th>
                                 <th>Reference Range</th>
                                 <th>Unit</th>
                              </tr>
                           </thead>
                           <tbody>
                              <tr>
                                 <td>Bacteria identified in Urine by Culture</td>
                                 <td/>
                                 <td/>
                                 <td/>
                              </tr>
                           </tbody>
                        </table>
                     </div>
                  </text>
                  <entry>
                     <reference value="urn:uuid:4c2259a2-4eb3-4279-b1d8-e6249bd955a9"/>
                  </entry>
               </section>
            </section>
            <section>
               <title value="Annotation comment"/>
               <code>
                  <coding>
                     <system value="http://loinc.org"/>
                     <code value="48767-8"/>
                     <display value="Annotation comment"/>
                  </coding>
               </code>
               <text>
                  <status value="generated"/>
                  <div xmlns="http://www.w3.org/1999/xhtml">
                     <h3>Annotation</h3>
                     <table class="hl7__eu__lab__report">
                        <tr>
                           <th>Conclusion and Recommendations based on this report and previous findings known to us</th>
                        </tr>
                        <tr>
                           <td>Urinalysis shows significant glucosuria, low specific gravity, positive nitrites, leukocyte esterase, blood, and presence of bacteria, with urine culture growing &gt;100,000 CFU/mL Klebsiella pneumoniae. Findings are consistent with a urinary tract infection, likely complicated by poor glycemic control (possible undiagnosed or uncontrolled diabetes). Recommend clinical correlation and prompt management.</td>
                        </tr>
                     </table>
                  </div>
               </text>
            </section>
         </Composition>
      </resource>
   </entry>
   <entry>
      <fullUrl value="urn:uuid:717d8009-862e-4c3c-9ab2-d3b7cbde5496"/>
      <resource>
         <DiagnosticReport>
            <id value="717d8009-862e-4c3c-9ab2-d3b7cbde5496"/>
            <meta>
               <profile value="http://hl7.eu/fhir/laboratory/StructureDefinition/DiagnosticReport-eu-lab"/>
            </meta>
            <extension url="http://hl7.org/fhir/5.0/StructureDefinition/extension-DiagnosticReport.composition">
               <valueReference>
                  <reference value="urn:uuid:71fcdb0e-4b2c-4d2d-9a65-388cc4d1dbf3"/>
               </valueReference>
            </extension>
            <identifier>
               <system value="urn:oid:2.16.840.1.113883.2.51.999"/>
               <value value="787b55e1-a40c-4423-97f1-f1130a58be53"/>
               <assigner>
                  <display value="HL7 Europe"/>
               </assigner>
            </identifier>
            <status value="registered"/>
            <category>
               <coding>
                  <system value="http://loinc.org"/>
                  <code value="26436-6"/>
                  <display value="Laboratory studies (set)"/>
               </coding>
            </category>
            <code>
               <coding>
                  <system value="http://loinc.org"/>
                  <code value="11502-2"/>
                  <display value="Laboratory report"/>
               </coding>
            </code>
            <subject>
               <reference value="urn:uuid:8050e48f-f910-4bbf-9e62-3af68277883a"/>
               <display value="Lazăr Florea"/>
            </subject>
            <specimen>
               <reference value="urn:uuid:eca6f547-16a5-4a3f-ade9-2bde71618a33"/>
            </specimen>
            <specimen>
               <reference value="urn:uuid:921a247b-92af-40e0-b4bb-a8a1b57aa548"/>
            </specimen>
            <result>
               <reference value="urn:uuid:51f19bbc-7cd3-4c8a-a6f4-42c8235a5f2d"/>
            </result>
            <result>
               <reference value="urn:uuid:9d5d5021-b359-44dc-803d-a7c7967f0de3"/>
            </result>
            <result>
               <reference value="urn:uuid:462f7344-f782-49db-8ab0-f5200d9ad247"/>
            </result>
            <result>
               <reference value="urn:uuid:d105ade2-ae3d-4441-87c1-410a917524b5"/>
            </result>
            <result>
               <reference value="urn:uuid:71e9c9cd-f13c-4fbb-adb2-75434d8f9896"/>
            </result>
            <result>
               <reference value="urn:uuid:d4c9e6b5-fe03-45cb-aac4-d70c205d3d18"/>
            </result>
            <result>
               <reference value="urn:uuid:5bf1d12b-6ebe-4ff2-b781-afdd1d17772f"/>
            </result>
            <result>
               <reference value="urn:uuid:866ad135-fcb5-4b65-89c5-6e2ad0741a46"/>
            </result>
            <result>
               <reference value="urn:uuid:ee633e2c-7b2c-42f7-97b2-61437aba2753"/>
            </result>
            <result>
               <reference value="urn:uuid:a2d2ba9e-a495-4108-9a67-da0fc3b8efa3"/>
            </result>
            <result>
               <reference value="urn:uuid:0882efd1-d69a-470e-b4d8-84a1d7e76130"/>
            </result>
            <result>
               <reference value="urn:uuid:8922038f-14da-4d74-a6f7-3fa4eebdc244"/>
            </result>
            <result>
               <reference value="urn:uuid:07e7043e-8b33-4c27-9dac-4cef3638b96b"/>
            </result>
            <result>
               <reference value="urn:uuid:6c4c2efd-a4ed-4cef-bf9d-1eaaa58d92c2"/>
            </result>
            <result>
               <reference value="urn:uuid:4c2259a2-4eb3-4279-b1d8-e6249bd955a9"/>
            </result>
         </DiagnosticReport>
      </resource>
   </entry>
   <entry>
      <fullUrl value="urn:uuid:8050e48f-f910-4bbf-9e62-3af68277883a"/>
      <resource>
         <Patient>
            <id value="8050e48f-f910-4bbf-9e62-3af68277883a"/>
            <meta>
               <profile value="http://hl7.eu/fhir/base/StructureDefinition/patient-eu-core"/>
               <security>
                  <system value="http://terminology.hl7.org/CodeSystem/v3-ActReason"/>
                  <code value="HTEST"/>
               </security>
               <security>
                  <system value="http://terminology.hl7.org/CodeSystem/v3-ActReason"/>
                  <code value="TRAIN"/>
               </security>
               <tag>
                  <system value="https://synderai.net/fhir/CodeSystem/tags"/>
                  <code value="synthetic"/>
                  <display value="SYNDERAI Synthetic data"/>
               </tag>
            </meta>
            <text>
               <status value="generated"/>
               <div xmlns="http://www.w3.org/1999/xhtml">
                  <table class="hl7__ips">
                     <tr>
                        <td>Lazăr Florea</td>
                        <td>male</td>
                        <td>10-Feb-1946</td>
                     </tr>
                  </table>
               </div>
            </text>
            <extension url="http://hl7.org/fhir/StructureDefinition/patient-nationality">
               <valueCodeableConcept>
                  <coding>
                     <system value="http://hl7.org/fhir/ValueSet/country"/>
                     <code value="RO"/>
                  </coding>
               </valueCodeableConcept>
            </extension>
            <identifier>
               <type>
                  <coding>
                     <system value="http://terminology.hl7.org/CodeSystem/v2-0203"/>
                     <code value="PT"/>
                  </coding>
               </type>
               <system value="http://ec.europa.eu/identifier/eci"/>
               <value value="8693-862290-8"/>
            </identifier>
            <identifier>
               <type>
                  <coding>
                     <system value="http://terminology.hl7.org/CodeSystem/v2-0203"/>
                     <code value="MR"/>
                  </coding>
               </type>
               <system value="http://local.setting.eu/identifier"/>
               <value value="602fbbf5-967b-6d86-a533-5cec24b13e71"/>
            </identifier>
            <name>
               <family value="Florea"/>
            </name>
            <name>
               <given value="Lazăr"/>
            </name>
            <name>
               <text value="Lazăr Florea"/>
            </name>
            <telecom>
               <system value="phone"/>
               <value value="0753 950 380"/>
            </telecom>
            <gender value="male"/>
            <birthDate value="1946-02-10"/>
            <address>
               <use value="home"/>
               <type value="physical"/>
               <line value="Drumul Grațian Nistor"/>
               <city value="Lupeni"/>
               <postalCode value="265300"/>
               <country value="Romania"/>
            </address>
         </Patient>
      </resource>
   </entry>
   <entry>
      <fullUrl value="urn:uuid:9990f103-c718-4cbe-b0a4-65814249c5cd"/>
      <resource>
         <ServiceRequest>
            <id value="9990f103-c718-4cbe-b0a4-65814249c5cd"/>
            <meta>
               <profile value="http://hl7.eu/fhir/laboratory/StructureDefinition/ServiceRequest-eu-lab"/>
            </meta>
            <identifier>
               <system value="http://example.org"/>
               <value value="319fba19-5964-45a1-a386-ed072c6b89ff"/>
            </identifier>
            <status value="active"/>
            <intent value="order"/>
            <code>
               <coding>
                  <system value="http://snomed.info/sct"/>
                  <code value="108252007"/>
                  <display value="Laboratory procedure"/>
               </coding>
            </code>
            <subject>
               <reference value="urn:uuid:8050e48f-f910-4bbf-9e62-3af68277883a"/>
               <display value="Lazăr Florea"/>
            </subject>
            <requester>
               <reference value="urn:uuid:024f3852-34e6-410c-9a80-8d1b2429575f"/>
            </requester>
            <reasonCode>
               <coding>
                  <system value="http://snomed.info/sct"/>
                  <code value="197927001"/>
                  <display value="Recurrent urinary tract infection"/>
               </coding>
            </reasonCode>
            <reasonCode>
               <coding>
                  <system value="http://snomed.info/sct"/>
                  <code value="414545008"/>
                  <display value="Ischemic heart disease"/>
               </coding>
            </reasonCode>
            <reasonCode>
               <coding>
                  <system value="http://snomed.info/sct"/>
                  <code value="237602007"/>
                  <display value="Metabolic syndrome X"/>
               </coding>
            </reasonCode>
            <reasonCode>
               <coding>
                  <system value="http://snomed.info/sct"/>
                  <code value="271737000"/>
                  <display value="Anemia"/>
               </coding>
            </reasonCode>
            <reasonCode>
               <coding>
                  <system value="http://snomed.info/sct"/>
                  <code value="15777000"/>
                  <display value="Prediabetes"/>
               </coding>
            </reasonCode>
            <reasonCode>
               <coding>
                  <system value="http://snomed.info/sct"/>
                  <code value="59621000"/>
                  <display value="Essential hypertension"/>
               </coding>
            </reasonCode>
            <reasonCode>
               <coding>
                  <system value="http://snomed.info/sct"/>
                  <code value="40055000"/>
                  <display value="Chronic sinusitis"/>
               </coding>
            </reasonCode>
            <specimen>
               <reference value="urn:uuid:eca6f547-16a5-4a3f-ade9-2bde71618a33"/>
            </specimen>
            <specimen>
               <reference value="urn:uuid:921a247b-92af-40e0-b4bb-a8a1b57aa548"/>
            </specimen>
         </ServiceRequest>
      </resource>
   </entry>
   <entry>
      <fullUrl value="urn:uuid:024f3852-34e6-410c-9a80-8d1b2429575f"/>
      <resource>
         <PractitionerRole>
            <id value="024f3852-34e6-410c-9a80-8d1b2429575f"/>
            <meta>
               <profile value="http://hl7.eu/fhir/base/StructureDefinition/practitionerRole-eu"/>
            </meta>
            <text>
               <status value="generated"/>
               <div xmlns="http://www.w3.org/1999/xhtml">Provider Role Id: 024f3852-34e6-410c-9a80-8d1b2429575f</div>
            </text>
            <organization>
               <reference value="urn:uuid:16384647-faa0-4d6d-81af-abb988d8eac4"/>
            </organization>
         </PractitionerRole>
      </resource>
   </entry>
   <entry>
      <fullUrl value="urn:uuid:16384647-faa0-4d6d-81af-abb988d8eac4"/>
      <resource>
         <Organization>
            <id value="16384647-faa0-4d6d-81af-abb988d8eac4"/>
            <meta>
               <profile value="http://hl7.eu/fhir/base/StructureDefinition/organization-eu"/>
            </meta>
            <text>
               <status value="generated"/>
               <div xmlns="http://www.w3.org/1999/xhtml">Provider Organization: Spitalul de Urgență</div>
            </text>
            <identifier>
               <system value="urn:oid:2.16.840.1.113883.2.51.999"/>
               <value value="d26b6bea-938a-4aab-8b08-2366dc9bf90a"/>
               <assigner>
                  <display value="HL7 Europe"/>
               </assigner>
            </identifier>
            <name value="Spitalul de Urgență"/>
            <address>
               <line value="Strada 1 Decembrie 1918 137 A"/>
               <city value="Petroșani"/>
               <postalCode value="332019"/>
               <country value="Romania"/>
            </address>
         </Organization>
      </resource>
   </entry>
   <entry>
      <fullUrl value="urn:uuid:eca6f547-16a5-4a3f-ade9-2bde71618a33"/>
      <resource>
         <Specimen>
            <id value="eca6f547-16a5-4a3f-ade9-2bde71618a33"/>
            <meta>
               <profile value="http://hl7.eu/fhir/laboratory/StructureDefinition/Specimen-eu-lab"/>
            </meta>
            <text>
               <status value="generated"/>
               <div xmlns="http://www.w3.org/1999/xhtml">
                  <table class="hl7__eu__lab__report">
                     <tr>
                        <th>Specimen</th>
                        <th>Collection Date</th>
                     </tr>
                     <tr>
                        <td>Urine specimen</td>
                        <td>
                           <span class="nb">11-Nov-2020</span>
                        </td>
                     </tr>
                  </table>
               </div>
            </text>
            <type>
               <coding>
                  <system value="http://snomed.info/sct"/>
                  <code value="122575003"/>
                  <display value="Urine specimen"/>
               </coding>
            </type>
            <collection>
               <collectedDateTime value="2020-11-11"/>
            </collection>
         </Specimen>
      </resource>
   </entry>
   <entry>
      <fullUrl value="urn:uuid:921a247b-92af-40e0-b4bb-a8a1b57aa548"/>
      <resource>
         <Specimen>
            <id value="921a247b-92af-40e0-b4bb-a8a1b57aa548"/>
            <meta>
               <profile value="http://hl7.eu/fhir/laboratory/StructureDefinition/Specimen-eu-lab"/>
            </meta>
            <text>
               <status value="generated"/>
               <div xmlns="http://www.w3.org/1999/xhtml">
                  <table class="hl7__eu__lab__report">
                     <tr>
                        <th>Specimen</th>
                        <th>Collection Date</th>
                     </tr>
                     <tr>
                        <td>Urine sediment specimen (specimen)</td>
                        <td>
                           <span class="nb">11-Nov-2020</span>
                        </td>
                     </tr>
                  </table>
               </div>
            </text>
            <type>
               <coding>
                  <system value="http://snomed.info/sct"/>
                  <code value="122567009"/>
                  <display value="Urine sediment specimen (specimen)"/>
               </coding>
            </type>
            <collection>
               <collectedDateTime value="2020-11-11"/>
            </collection>
         </Specimen>
      </resource>
   </entry>
   <entry>
      <fullUrl value="urn:uuid:51f19bbc-7cd3-4c8a-a6f4-42c8235a5f2d"/>
      <resource>
         <Observation>
            <id value="51f19bbc-7cd3-4c8a-a6f4-42c8235a5f2d"/>
            <meta>
               <profile value="http://hl7.eu/fhir/laboratory/StructureDefinition/Observation-resultslab-eu-lab"/>
            </meta>
            <text>
               <status value="generated"/>
               <div xmlns="http://www.w3.org/1999/xhtml">
                  <table class="hl7__eu__lab__report">
                     <tr>
                        <th>Test</th>
                        <th>11-Nov-2020</th>
                        <th>Reference Range</th>
                        <th>Unit</th>
                     </tr>
                     <tr>
                        <td>Glucose [Mass/volume] in Urine by Test strip</td>
                        <td>10.3</td>
                        <td>0 - 0.8</td>
                        <td>H</td>
                        <td>mg/dL</td>
                     </tr>
                  </table>
               </div>
            </text>
            <status value="final"/>
            <category>
               <coding>
                  <system value="http://terminology.hl7.org/CodeSystem/observation-category"/>
                  <code value="laboratory"/>
               </coding>
            </category>
            <code>
               <coding>
                  <system value="http://loinc.org"/>
                  <code value="5792-7"/>
                  <display value="Glucose [Mass/volume] in Urine by Test strip"/>
               </coding>
               <text value="Glucose [Mass/volume] in Urine by Test strip"/>
            </code>
            <subject>
               <reference value="urn:uuid:8050e48f-f910-4bbf-9e62-3af68277883a"/>
               <display value="Lazăr Florea"/>
            </subject>
            <effectiveDateTime value="2020-11-11T07:25:24Z"/>
            <performer>
               <display value="The Central European Lab"/>
            </performer>
            <valueQuantity>
               <value value="10.3"/>
               <unit value="mg/dL"/>
               <system value="http://unitsofmeasure.org"/>
               <code value="mg/dL"/>
            </valueQuantity>
            <interpretation>
               <coding>
                  <system value="http://terminology.hl7.org/CodeSystem/v3-ObservationInterpretation"/>
                  <code value="H"/>
                  <display value="High"/>
               </coding>
            </interpretation>
            <specimen>
               <reference value="urn:uuid:eca6f547-16a5-4a3f-ade9-2bde71618a33"/>
            </specimen>
            <referenceRange>
               <low>
                  <value value="0"/>
                  <system value="http://unitsofmeasure.org"/>
                  <code value="mg/dL"/>
               </low>
            </referenceRange>
            <referenceRange>
               <high>
                  <value value="0.8"/>
                  <system value="http://unitsofmeasure.org"/>
                  <code value="mg/dL"/>
               </high>
            </referenceRange>
         </Observation>
      </resource>
   </entry>
   <entry>
      <fullUrl value="urn:uuid:9d5d5021-b359-44dc-803d-a7c7967f0de3"/>
      <resource>
         <Observation>
            <id value="9d5d5021-b359-44dc-803d-a7c7967f0de3"/>
            <meta>
               <profile value="http://hl7.eu/fhir/laboratory/StructureDefinition/Observation-resultslab-eu-lab"/>
            </meta>
            <text>
               <status value="generated"/>
               <div xmlns="http://www.w3.org/1999/xhtml">
                  <table class="hl7__eu__lab__report">
                     <tr>
                        <th>Test</th>
                        <th>11-Nov-2020</th>
                        <th>Reference Range</th>
                        <th>Unit</th>
                     </tr>
                     <tr>
                        <td>Ketones [Presence] in Urine by Test strip</td>
                     </tr>
                  </table>
               </div>
            </text>
            <status value="final"/>
            <category>
               <coding>
                  <system value="http://terminology.hl7.org/CodeSystem/observation-category"/>
                  <code value="laboratory"/>
               </coding>
            </category>
            <code>
               <coding>
                  <system value="http://loinc.org"/>
                  <code value="2514-8"/>
                  <display value="Ketones [Presence] in Urine by Test strip"/>
               </coding>
               <text value="Ketones [Presence] in Urine by Test strip"/>
            </code>
            <subject>
               <reference value="urn:uuid:8050e48f-f910-4bbf-9e62-3af68277883a"/>
               <display value="Lazăr Florea"/>
            </subject>
            <effectiveDateTime value="2020-11-11T07:25:24Z"/>
            <performer>
               <display value="The Central European Lab"/>
            </performer>
            <specimen>
               <reference value="urn:uuid:eca6f547-16a5-4a3f-ade9-2bde71618a33"/>
            </specimen>
         </Observation>
      </resource>
   </entry>
   <entry>
      <fullUrl value="urn:uuid:462f7344-f782-49db-8ab0-f5200d9ad247"/>
      <resource>
         <Observation>
            <id value="462f7344-f782-49db-8ab0-f5200d9ad247"/>
            <meta>
               <profile value="http://hl7.eu/fhir/laboratory/StructureDefinition/Observation-resultslab-eu-lab"/>
            </meta>
            <text>
               <status value="generated"/>
               <div xmlns="http://www.w3.org/1999/xhtml">
                  <table class="hl7__eu__lab__report">
                     <tr>
                        <th>Test</th>
                        <th>11-Nov-2020</th>
                        <th>Reference Range</th>
                        <th>Unit</th>
                     </tr>
                     <tr>
                        <td>Specific gravity of Urine by Test strip</td>
                        <td>1.0</td>
                        <td>1.005 - 1.03</td>
                        <td>L</td>
                        <td>{nominal}</td>
                     </tr>
                  </table>
               </div>
            </text>
            <status value="final"/>
            <category>
               <coding>
                  <system value="http://terminology.hl7.org/CodeSystem/observation-category"/>
                  <code value="laboratory"/>
               </coding>
            </category>
            <code>
               <coding>
                  <system value="http://loinc.org"/>
                  <code value="5811-5"/>
                  <display value="Specific gravity of Urine by Test strip"/>
               </coding>
               <text value="Specific gravity of Urine by Test strip"/>
            </code>
            <subject>
               <reference value="urn:uuid:8050e48f-f910-4bbf-9e62-3af68277883a"/>
               <display value="Lazăr Florea"/>
            </subject>
            <effectiveDateTime value="2020-11-11T07:25:24Z"/>
            <performer>
               <display value="The Central European Lab"/>
            </performer>
            <valueQuantity>
               <value value="1"/>
               <unit value="{nominal}"/>
               <system value="http://unitsofmeasure.org"/>
               <code value="{nominal}"/>
            </valueQuantity>
            <interpretation>
               <coding>
                  <system value="http://terminology.hl7.org/CodeSystem/v3-ObservationInterpretation"/>
                  <code value="L"/>
                  <display value="Low"/>
               </coding>
            </interpretation>
            <specimen>
               <reference value="urn:uuid:eca6f547-16a5-4a3f-ade9-2bde71618a33"/>
            </specimen>
            <referenceRange>
               <low>
                  <value value="1.005"/>
                  <system value="http://unitsofmeasure.org"/>
                  <code value="g/mL"/>
               </low>
            </referenceRange>
            <referenceRange>
               <high>
                  <value value="1.03"/>
                  <system value="http://unitsofmeasure.org"/>
                  <code value="g/mL"/>
               </high>
            </referenceRange>
         </Observation>
      </resource>
   </entry>
   <entry>
      <fullUrl value="urn:uuid:d105ade2-ae3d-4441-87c1-410a917524b5"/>
      <resource>
         <Observation>
            <id value="d105ade2-ae3d-4441-87c1-410a917524b5"/>
            <meta>
               <profile value="http://hl7.eu/fhir/laboratory/StructureDefinition/Observation-resultslab-eu-lab"/>
            </meta>
            <text>
               <status value="generated"/>
               <div xmlns="http://www.w3.org/1999/xhtml">
                  <table class="hl7__eu__lab__report">
                     <tr>
                        <th>Test</th>
                        <th>11-Nov-2020</th>
                        <th>Reference Range</th>
                        <th>Unit</th>
                     </tr>
                     <tr>
                        <td>pH of Urine by Test strip</td>
                        <td>6.0</td>
                        <td>4.6 - 7</td>
                        <td/>
                        <td>pH</td>
                     </tr>
                  </table>
               </div>
            </text>
            <status value="final"/>
            <category>
               <coding>
                  <system value="http://terminology.hl7.org/CodeSystem/observation-category"/>
                  <code value="laboratory"/>
               </coding>
            </category>
            <code>
               <coding>
                  <system value="http://loinc.org"/>
                  <code value="5803-2"/>
                  <display value="pH of Urine by Test strip"/>
               </coding>
               <text value="pH of Urine by Test strip"/>
            </code>
            <subject>
               <reference value="urn:uuid:8050e48f-f910-4bbf-9e62-3af68277883a"/>
               <display value="Lazăr Florea"/>
            </subject>
            <effectiveDateTime value="2020-11-11T07:25:24Z"/>
            <performer>
               <display value="The Central European Lab"/>
            </performer>
            <valueQuantity>
               <value value="6"/>
               <unit value="pH"/>
               <system value="http://unitsofmeasure.org"/>
               <code value="pH"/>
            </valueQuantity>
            <specimen>
               <reference value="urn:uuid:eca6f547-16a5-4a3f-ade9-2bde71618a33"/>
            </specimen>
            <referenceRange>
               <low>
                  <value value="4.6"/>
                  <system value="http://unitsofmeasure.org"/>
                  <code value="pH"/>
               </low>
            </referenceRange>
            <referenceRange>
               <high>
                  <value value="7"/>
                  <system value="http://unitsofmeasure.org"/>
                  <code value="pH"/>
               </high>
            </referenceRange>
         </Observation>
      </resource>
   </entry>
   <entry>
      <fullUrl value="urn:uuid:71e9c9cd-f13c-4fbb-adb2-75434d8f9896"/>
      <resource>
         <Observation>
            <id value="71e9c9cd-f13c-4fbb-adb2-75434d8f9896"/>
            <meta>
               <profile value="http://hl7.eu/fhir/laboratory/StructureDefinition/Observation-resultslab-eu-lab"/>
            </meta>
            <text>
               <status value="generated"/>
               <div xmlns="http://www.w3.org/1999/xhtml">
                  <table class="hl7__eu__lab__report">
                     <tr>
                        <th>Test</th>
                        <th>11-Nov-2020</th>
                        <th>Reference Range</th>
                        <th>Unit</th>
                     </tr>
                     <tr>
                        <td>Protein [Mass/volume] in Urine by Test strip</td>
                        <td>10.6</td>
                        <td>0 - 145</td>
                        <td/>
                        <td>mg/dL</td>
                     </tr>
                  </table>
               </div>
            </text>
            <status value="final"/>
            <category>
               <coding>
                  <system value="http://terminology.hl7.org/CodeSystem/observation-category"/>
                  <code value="laboratory"/>
               </coding>
            </category>
            <code>
               <coding>
                  <system value="http://loinc.org"/>
                  <code value="5804-0"/>
                  <display value="Protein [Mass/volume] in Urine by Test strip"/>
               </coding>
               <text value="Protein [Mass/volume] in Urine by Test strip"/>
            </code>
            <subject>
               <reference value="urn:uuid:8050e48f-f910-4bbf-9e62-3af68277883a"/>
               <display value="Lazăr Florea"/>
            </subject>
            <effectiveDateTime value="2020-11-11T07:25:24Z"/>
            <performer>
               <display value="The Central European Lab"/>
            </performer>
            <valueQuantity>
               <value value="10.6"/>
               <unit value="mg/dL"/>
               <system value="http://unitsofmeasure.org"/>
               <code value="mg/dL"/>
            </valueQuantity>
            <specimen>
               <reference value="urn:uuid:eca6f547-16a5-4a3f-ade9-2bde71618a33"/>
            </specimen>
            <referenceRange>
               <low>
                  <value value="0"/>
                  <system value="http://unitsofmeasure.org"/>
                  <code value="mg/dL"/>
               </low>
            </referenceRange>
            <referenceRange>
               <high>
                  <value value="145"/>
                  <system value="http://unitsofmeasure.org"/>
                  <code value="mg/dL"/>
               </high>
            </referenceRange>
         </Observation>
      </resource>
   </entry>
   <entry>
      <fullUrl value="urn:uuid:d4c9e6b5-fe03-45cb-aac4-d70c205d3d18"/>
      <resource>
         <Observation>
            <id value="d4c9e6b5-fe03-45cb-aac4-d70c205d3d18"/>
            <meta>
               <profile value="http://hl7.eu/fhir/laboratory/StructureDefinition/Observation-resultslab-eu-lab"/>
            </meta>
            <text>
               <status value="generated"/>
               <div xmlns="http://www.w3.org/1999/xhtml">
                  <table class="hl7__eu__lab__report">
                     <tr>
                        <th>Test</th>
                        <th>11-Nov-2020</th>
                        <th>Reference Range</th>
                        <th>Unit</th>
                     </tr>
                     <tr>
                        <td>Nitrite [Presence] in Urine by Test strip</td>
                     </tr>
                  </table>
               </div>
            </text>
            <status value="final"/>
            <category>
               <coding>
                  <system value="http://terminology.hl7.org/CodeSystem/observation-category"/>
                  <code value="laboratory"/>
               </coding>
            </category>
            <code>
               <coding>
                  <system value="http://loinc.org"/>
                  <code value="5802-4"/>
                  <display value="Nitrite [Presence] in Urine by Test strip"/>
               </coding>
               <text value="Nitrite [Presence] in Urine by Test strip"/>
            </code>
            <subject>
               <reference value="urn:uuid:8050e48f-f910-4bbf-9e62-3af68277883a"/>
               <display value="Lazăr Florea"/>
            </subject>
            <effectiveDateTime value="2020-11-11T07:25:24Z"/>
            <performer>
               <display value="The Central European Lab"/>
            </performer>
            <specimen>
               <reference value="urn:uuid:eca6f547-16a5-4a3f-ade9-2bde71618a33"/>
            </specimen>
         </Observation>
      </resource>
   </entry>
   <entry>
      <fullUrl value="urn:uuid:5bf1d12b-6ebe-4ff2-b781-afdd1d17772f"/>
      <resource>
         <Observation>
            <id value="5bf1d12b-6ebe-4ff2-b781-afdd1d17772f"/>
            <meta>
               <profile value="http://hl7.eu/fhir/laboratory/StructureDefinition/Observation-resultslab-eu-lab"/>
            </meta>
            <text>
               <status value="generated"/>
               <div xmlns="http://www.w3.org/1999/xhtml">
                  <table class="hl7__eu__lab__report">
                     <tr>
                        <th>Test</th>
                        <th>11-Nov-2020</th>
                        <th>Reference Range</th>
                        <th>Unit</th>
                     </tr>
                     <tr>
                        <td>Hemoglobin [Presence] in Urine by Test strip</td>
                     </tr>
                  </table>
               </div>
            </text>
            <status value="final"/>
            <category>
               <coding>
                  <system value="http://terminology.hl7.org/CodeSystem/observation-category"/>
                  <code value="laboratory"/>
               </coding>
            </category>
            <code>
               <coding>
                  <system value="http://loinc.org"/>
                  <code value="5794-3"/>
                  <display value="Hemoglobin [Presence] in Urine by Test strip"/>
               </coding>
               <text value="Hemoglobin [Presence] in Urine by Test strip"/>
            </code>
            <subject>
               <reference value="urn:uuid:8050e48f-f910-4bbf-9e62-3af68277883a"/>
               <display value="Lazăr Florea"/>
            </subject>
            <effectiveDateTime value="2020-11-11T07:25:24Z"/>
            <performer>
               <display value="The Central European Lab"/>
            </performer>
            <specimen>
               <reference value="urn:uuid:eca6f547-16a5-4a3f-ade9-2bde71618a33"/>
            </specimen>
         </Observation>
      </resource>
   </entry>
   <entry>
      <fullUrl value="urn:uuid:866ad135-fcb5-4b65-89c5-6e2ad0741a46"/>
      <resource>
         <Observation>
            <id value="866ad135-fcb5-4b65-89c5-6e2ad0741a46"/>
            <meta>
               <profile value="http://hl7.eu/fhir/laboratory/StructureDefinition/Observation-resultslab-eu-lab"/>
            </meta>
            <text>
               <status value="generated"/>
               <div xmlns="http://www.w3.org/1999/xhtml">
                  <table class="hl7__eu__lab__report">
                     <tr>
                        <th>Test</th>
                        <th>11-Nov-2020</th>
                        <th>Reference Range</th>
                        <th>Unit</th>
                     </tr>
                     <tr>
                        <td>Leukocyte esterase [Presence] in Urine by Test strip</td>
                     </tr>
                  </table>
               </div>
            </text>
            <status value="final"/>
            <category>
               <coding>
                  <system value="http://terminology.hl7.org/CodeSystem/observation-category"/>
                  <code value="laboratory"/>
               </coding>
            </category>
            <code>
               <coding>
                  <system value="http://loinc.org"/>
                  <code value="5799-2"/>
                  <display value="Leukocyte esterase [Presence] in Urine by Test strip"/>
               </coding>
               <text value="Leukocyte esterase [Presence] in Urine by Test strip"/>
            </code>
            <subject>
               <reference value="urn:uuid:8050e48f-f910-4bbf-9e62-3af68277883a"/>
               <display value="Lazăr Florea"/>
            </subject>
            <effectiveDateTime value="2020-11-11T07:25:24Z"/>
            <performer>
               <display value="The Central European Lab"/>
            </performer>
            <specimen>
               <reference value="urn:uuid:eca6f547-16a5-4a3f-ade9-2bde71618a33"/>
            </specimen>
         </Observation>
      </resource>
   </entry>
   <entry>
      <fullUrl value="urn:uuid:ee633e2c-7b2c-42f7-97b2-61437aba2753"/>
      <resource>
         <Observation>
            <id value="ee633e2c-7b2c-42f7-97b2-61437aba2753"/>
            <meta>
               <profile value="http://hl7.eu/fhir/laboratory/StructureDefinition/Observation-resultslab-eu-lab"/>
            </meta>
            <text>
               <status value="generated"/>
               <div xmlns="http://www.w3.org/1999/xhtml">
                  <table class="hl7__eu__lab__report">
                     <tr>
                        <th>Test</th>
                        <th>11-Nov-2020</th>
                        <th>Reference Range</th>
                        <th>Unit</th>
                     </tr>
                     <tr>
                        <td>Leukocytes [#/area] in Urine sediment by Microscopy high power field</td>
                        <td>42.7</td>
                        <td>0 - 50</td>
                        <td/>
                        <td>/[HPF]</td>
                     </tr>
                  </table>
               </div>
            </text>
            <status value="final"/>
            <category>
               <coding>
                  <system value="http://terminology.hl7.org/CodeSystem/observation-category"/>
                  <code value="laboratory"/>
               </coding>
            </category>
            <code>
               <coding>
                  <system value="http://loinc.org"/>
                  <code value="5821-4"/>
                  <display value="Leukocytes [#/area] in Urine sediment by Microscopy high power field"/>
               </coding>
               <text value="Leukocytes [#/area] in Urine sediment by Microscopy high power field"/>
            </code>
            <subject>
               <reference value="urn:uuid:8050e48f-f910-4bbf-9e62-3af68277883a"/>
               <display value="Lazăr Florea"/>
            </subject>
            <effectiveDateTime value="2020-11-11T07:25:24Z"/>
            <performer>
               <display value="The Central European Lab"/>
            </performer>
            <valueQuantity>
               <value value="42.7"/>
               <unit value="/[HPF]"/>
               <system value="http://unitsofmeasure.org"/>
               <code value="/[HPF]"/>
            </valueQuantity>
            <specimen>
               <reference value="urn:uuid:921a247b-92af-40e0-b4bb-a8a1b57aa548"/>
            </specimen>
            <referenceRange>
               <low>
                  <value value="0"/>
                  <system value="http://unitsofmeasure.org"/>
                  <code value="#/area"/>
               </low>
            </referenceRange>
            <referenceRange>
               <high>
                  <value value="50"/>
                  <system value="http://unitsofmeasure.org"/>
                  <code value="#/area"/>
               </high>
            </referenceRange>
         </Observation>
      </resource>
   </entry>
   <entry>
      <fullUrl value="urn:uuid:a2d2ba9e-a495-4108-9a67-da0fc3b8efa3"/>
      <resource>
         <Observation>
            <id value="a2d2ba9e-a495-4108-9a67-da0fc3b8efa3"/>
            <meta>
               <profile value="http://hl7.eu/fhir/laboratory/StructureDefinition/Observation-resultslab-eu-lab"/>
            </meta>
            <text>
               <status value="generated"/>
               <div xmlns="http://www.w3.org/1999/xhtml">
                  <table class="hl7__eu__lab__report">
                     <tr>
                        <th>Test</th>
                        <th>11-Nov-2020</th>
                        <th>Reference Range</th>
                        <th>Unit</th>
                     </tr>
                     <tr>
                        <td>Erythrocytes [#/area] in Urine sediment by Microscopy high power field</td>
                        <td>1.3</td>
                        <td>0 - 3</td>
                        <td/>
                        <td>/[HPF]</td>
                     </tr>
                  </table>
               </div>
            </text>
            <status value="final"/>
            <category>
               <coding>
                  <system value="http://terminology.hl7.org/CodeSystem/observation-category"/>
                  <code value="laboratory"/>
               </coding>
            </category>
            <code>
               <coding>
                  <system value="http://loinc.org"/>
                  <code value="13945-1"/>
                  <display value="Erythrocytes [#/area] in Urine sediment by Microscopy high power field"/>
               </coding>
               <text value="Erythrocytes [#/area] in Urine sediment by Microscopy high power field"/>
            </code>
            <subject>
               <reference value="urn:uuid:8050e48f-f910-4bbf-9e62-3af68277883a"/>
               <display value="Lazăr Florea"/>
            </subject>
            <effectiveDateTime value="2020-11-11T07:25:24Z"/>
            <performer>
               <display value="The Central European Lab"/>
            </performer>
            <valueQuantity>
               <value value="1.3"/>
               <unit value="/[HPF]"/>
               <system value="http://unitsofmeasure.org"/>
               <code value="/[HPF]"/>
            </valueQuantity>
            <specimen>
               <reference value="urn:uuid:921a247b-92af-40e0-b4bb-a8a1b57aa548"/>
            </specimen>
            <referenceRange>
               <low>
                  <value value="0"/>
                  <system value="http://unitsofmeasure.org"/>
                  <code value="#/area"/>
               </low>
            </referenceRange>
            <referenceRange>
               <high>
                  <value value="3"/>
                  <system value="http://unitsofmeasure.org"/>
                  <code value="#/area"/>
               </high>
            </referenceRange>
         </Observation>
      </resource>
   </entry>
   <entry>
      <fullUrl value="urn:uuid:0882efd1-d69a-470e-b4d8-84a1d7e76130"/>
      <resource>
         <Observation>
            <id value="0882efd1-d69a-470e-b4d8-84a1d7e76130"/>
            <meta>
               <profile value="http://hl7.eu/fhir/laboratory/StructureDefinition/Observation-resultslab-eu-lab"/>
            </meta>
            <text>
               <status value="generated"/>
               <div xmlns="http://www.w3.org/1999/xhtml">
                  <table class="hl7__eu__lab__report">
                     <tr>
                        <th>Test</th>
                        <th>11-Nov-2020</th>
                        <th>Reference Range</th>
                        <th>Unit</th>
                     </tr>
                     <tr>
                        <td>Epithelial cells [#/area] in Urine sediment by Microscopy high power field</td>
                        <td>3.5</td>
                        <td>0 - 10</td>
                        <td/>
                        <td>/[HPF]</td>
                     </tr>
                  </table>
               </div>
            </text>
            <status value="final"/>
            <category>
               <coding>
                  <system value="http://terminology.hl7.org/CodeSystem/observation-category"/>
                  <code value="laboratory"/>
               </coding>
            </category>
            <code>
               <coding>
                  <system value="http://loinc.org"/>
                  <code value="5787-7"/>
                  <display value="Epithelial cells [#/area] in Urine sediment by Microscopy high power field"/>
               </coding>
               <text value="Epithelial cells [#/area] in Urine sediment by Microscopy high power field"/>
            </code>
            <subject>
               <reference value="urn:uuid:8050e48f-f910-4bbf-9e62-3af68277883a"/>
               <display value="Lazăr Florea"/>
            </subject>
            <effectiveDateTime value="2020-11-11T07:25:24Z"/>
            <performer>
               <display value="The Central European Lab"/>
            </performer>
            <valueQuantity>
               <value value="3.5"/>
               <unit value="/[HPF]"/>
               <system value="http://unitsofmeasure.org"/>
               <code value="/[HPF]"/>
            </valueQuantity>
            <specimen>
               <reference value="urn:uuid:921a247b-92af-40e0-b4bb-a8a1b57aa548"/>
            </specimen>
            <referenceRange>
               <low>
                  <value value="0"/>
                  <system value="http://unitsofmeasure.org"/>
                  <code value="#/area"/>
               </low>
            </referenceRange>
            <referenceRange>
               <high>
                  <value value="10"/>
                  <system value="http://unitsofmeasure.org"/>
                  <code value="#/area"/>
               </high>
            </referenceRange>
         </Observation>
      </resource>
   </entry>
   <entry>
      <fullUrl value="urn:uuid:8922038f-14da-4d74-a6f7-3fa4eebdc244"/>
      <resource>
         <Observation>
            <id value="8922038f-14da-4d74-a6f7-3fa4eebdc244"/>
            <meta>
               <profile value="http://hl7.eu/fhir/laboratory/StructureDefinition/Observation-resultslab-eu-lab"/>
            </meta>
            <text>
               <status value="generated"/>
               <div xmlns="http://www.w3.org/1999/xhtml">
                  <table class="hl7__eu__lab__report">
                     <tr>
                        <th>Test</th>
                        <th>11-Nov-2020</th>
                        <th>Reference Range</th>
                        <th>Unit</th>
                     </tr>
                     <tr>
                        <td>Casts [Presence] in Urine sediment by Light microscopy</td>
                     </tr>
                  </table>
               </div>
            </text>
            <status value="final"/>
            <category>
               <coding>
                  <system value="http://terminology.hl7.org/CodeSystem/observation-category"/>
                  <code value="laboratory"/>
               </coding>
            </category>
            <code>
               <coding>
                  <system value="http://loinc.org"/>
                  <code value="24124-0"/>
                  <display value="Casts [Presence] in Urine sediment by Light microscopy"/>
               </coding>
               <text value="Casts [Presence] in Urine sediment by Light microscopy"/>
            </code>
            <subject>
               <reference value="urn:uuid:8050e48f-f910-4bbf-9e62-3af68277883a"/>
               <display value="Lazăr Florea"/>
            </subject>
            <effectiveDateTime value="2020-11-11T07:25:24Z"/>
            <performer>
               <display value="The Central European Lab"/>
            </performer>
            <specimen>
               <reference value="urn:uuid:921a247b-92af-40e0-b4bb-a8a1b57aa548"/>
            </specimen>
         </Observation>
      </resource>
   </entry>
   <entry>
      <fullUrl value="urn:uuid:07e7043e-8b33-4c27-9dac-4cef3638b96b"/>
      <resource>
         <Observation>
            <id value="07e7043e-8b33-4c27-9dac-4cef3638b96b"/>
            <meta>
               <profile value="http://hl7.eu/fhir/laboratory/StructureDefinition/Observation-resultslab-eu-lab"/>
            </meta>
            <text>
               <status value="generated"/>
               <div xmlns="http://www.w3.org/1999/xhtml">
                  <table class="hl7__eu__lab__report">
                     <tr>
                        <th>Test</th>
                        <th>11-Nov-2020</th>
                        <th>Reference Range</th>
                        <th>Unit</th>
                     </tr>
                     <tr>
                        <td>Mucus [Presence] in Urine sediment by Light microscopy</td>
                     </tr>
                  </table>
               </div>
            </text>
            <status value="final"/>
            <category>
               <coding>
                  <system value="http://terminology.hl7.org/CodeSystem/observation-category"/>
                  <code value="laboratory"/>
               </coding>
            </category>
            <code>
               <coding>
                  <system value="http://loinc.org"/>
                  <code value="8247-9"/>
                  <display value="Mucus [Presence] in Urine sediment by Light microscopy"/>
               </coding>
               <text value="Mucus [Presence] in Urine sediment by Light microscopy"/>
            </code>
            <subject>
               <reference value="urn:uuid:8050e48f-f910-4bbf-9e62-3af68277883a"/>
               <display value="Lazăr Florea"/>
            </subject>
            <effectiveDateTime value="2020-11-11T07:25:24Z"/>
            <performer>
               <display value="The Central European Lab"/>
            </performer>
            <specimen>
               <reference value="urn:uuid:921a247b-92af-40e0-b4bb-a8a1b57aa548"/>
            </specimen>
         </Observation>
      </resource>
   </entry>
   <entry>
      <fullUrl value="urn:uuid:6c4c2efd-a4ed-4cef-bf9d-1eaaa58d92c2"/>
      <resource>
         <Observation>
            <id value="6c4c2efd-a4ed-4cef-bf9d-1eaaa58d92c2"/>
            <meta>
               <profile value="http://hl7.eu/fhir/laboratory/StructureDefinition/Observation-resultslab-eu-lab"/>
            </meta>
            <text>
               <status value="generated"/>
               <div xmlns="http://www.w3.org/1999/xhtml">
                  <table class="hl7__eu__lab__report">
                     <tr>
                        <th>Test</th>
                        <th>11-Nov-2020</th>
                        <th>Reference Range</th>
                        <th>Unit</th>
                     </tr>
                     <tr>
                        <td>Bacteria [#/area] in Urine sediment by Microscopy high power field</td>
                     </tr>
                  </table>
               </div>
            </text>
            <status value="final"/>
            <category>
               <coding>
                  <system value="http://terminology.hl7.org/CodeSystem/observation-category"/>
                  <code value="laboratory"/>
               </coding>
            </category>
            <code>
               <coding>
                  <system value="http://loinc.org"/>
                  <code value="5769-5"/>
                  <display value="Bacteria [#/area] in Urine sediment by Microscopy high power field"/>
               </coding>
               <text value="Bacteria [#/area] in Urine sediment by Microscopy high power field"/>
            </code>
            <subject>
               <reference value="urn:uuid:8050e48f-f910-4bbf-9e62-3af68277883a"/>
               <display value="Lazăr Florea"/>
            </subject>
            <effectiveDateTime value="2020-11-11T07:25:24Z"/>
            <performer>
               <display value="The Central European Lab"/>
            </performer>
            <specimen>
               <reference value="urn:uuid:921a247b-92af-40e0-b4bb-a8a1b57aa548"/>
            </specimen>
         </Observation>
      </resource>
   </entry>
   <entry>
      <fullUrl value="urn:uuid:4c2259a2-4eb3-4279-b1d8-e6249bd955a9"/>
      <resource>
         <Observation>
            <id value="4c2259a2-4eb3-4279-b1d8-e6249bd955a9"/>
            <meta>
               <profile value="http://hl7.eu/fhir/laboratory/StructureDefinition/Observation-resultslab-eu-lab"/>
            </meta>
            <text>
               <status value="generated"/>
               <div xmlns="http://www.w3.org/1999/xhtml">
                  <table class="hl7__eu__lab__report">
                     <tr>
                        <th>Test</th>
                        <th>11-Nov-2020</th>
                        <th>Reference Range</th>
                        <th>Unit</th>
                     </tr>
                     <tr>
                        <td>Bacteria identified in Urine by Culture</td>
                     </tr>
                  </table>
               </div>
            </text>
            <status value="final"/>
            <category>
               <coding>
                  <system value="http://terminology.hl7.org/CodeSystem/observation-category"/>
                  <code value="laboratory"/>
               </coding>
            </category>
            <code>
               <coding>
                  <system value="http://loinc.org"/>
                  <code value="630-4"/>
                  <display value="Bacteria identified in Urine by Culture"/>
               </coding>
               <text value="Bacteria identified in Urine by Culture"/>
            </code>
            <subject>
               <reference value="urn:uuid:8050e48f-f910-4bbf-9e62-3af68277883a"/>
               <display value="Lazăr Florea"/>
            </subject>
            <effectiveDateTime value="2020-11-11T07:25:24Z"/>
            <performer>
               <display value="The Central European Lab"/>
            </performer>
            <specimen>
               <reference value="urn:uuid:eca6f547-16a5-4a3f-ade9-2bde71618a33"/>
            </specimen>
         </Observation>
      </resource>
   </entry>
   <entry>
      <fullUrl value="urn:uuid:83f06a61-cb5e-40be-871b-cbe100d64e8e"/>
      <resource>
         <Device>
            <id value="83f06a61-cb5e-40be-871b-cbe100d64e8e"/>
            <text>
               <status value="generated"/>
               <div xmlns="http://www.w3.org/1999/xhtml">SYNDERAI Synthetic Generator v5.0</div>
            </text>
            <status value="active&#34;"/>
            <distinctIdentifier value="synderai-generator-50"/>
            <manufacturer value="SYNDERAI Project"/>
            <deviceName>
               <name value="SYNDERAI Synthetic Generator"/>
               <type value="manufacturer-name"/>
            </deviceName>
            <version>
               <value value="5.0"/>
            </version>
         </Device>
      </resource>
   </entry>
   <entry>
      <fullUrl value="urn:uuid:696828d8-e84d-43dc-b6a8-a0379aa7b77e"/>
      <resource>
         <Provenance>
            <id value="696828d8-e84d-43dc-b6a8-a0379aa7b77e"/>
            <text>
               <status value="generated"/>
               <div xmlns="http://www.w3.org/1999/xhtml">Provenance for SYNDERAI Synthetic Example Data Resource</div>
            </text>
            <target>
               <reference value="Patient/8050e48f-f910-4bbf-9e62-3af68277883a"/>
            </target>
            <target>
               <reference value="Bundle/f03da6a5-665d-4cfd-902f-89fc887c4529"/>
            </target>
            <target>
               <reference value="Composition/a3568b44-a95c-4624-9c6a-c5b4cfc697d8"/>
            </target>
            <target>
               <reference value="PractitionerRole/7df8b35a-4792-4d2b-ab38-b6d9c97fbcd6"/>
            </target>
            <target>
               <reference value="Practitioner/29b4e2a5-cab4-4746-8119-7579e3b965f0"/>
            </target>
            <target>
               <reference value="PractitionerRole/024f3852-34e6-410c-9a80-8d1b2429575f"/>
            </target>
            <target>
               <reference value="Organization/16384647-faa0-4d6d-81af-abb988d8eac4"/>
            </target>
            <recorded value="2020-11-11T08:25:24Z"/>
            <policy value="https://synderai.net/synderai-synthetic-data-policy"/>
            <reason>
               <text value="Interoperability Testing and Training (non-clinical use)"/>
            </reason>
            <activity>
               <text value="Synthetic Example Data Generation"/>
            </activity>
            <agent>
               <type>
                  <text value="author"/>
               </type>
               <who>
                  <reference value="Device/83f06a61-cb5e-40be-871b-cbe100d64e8e"/>
               </who>
            </agent>
         </Provenance>
      </resource>
   </entry>
   <entry>
      <fullUrl value="urn:uuid:7df8b35a-4792-4d2b-ab38-b6d9c97fbcd6"/>
      <resource>
         <PractitionerRole>
            <id value="7df8b35a-4792-4d2b-ab38-b6d9c97fbcd6"/>
            <meta>
               <profile value="http://hl7.eu/fhir/base/StructureDefinition/practitionerRole-eu"/>
            </meta>
            <text>
               <status value="generated"/>
               <div xmlns="http://www.w3.org/1999/xhtml">Laboratory Role Id: 7df8b35a-4792-4d2b-ab38-b6d9c97fbcd6</div>
            </text>
            <practitioner>
               <reference value="urn:uuid:29b4e2a5-cab4-4746-8119-7579e3b965f0"/>
            </practitioner>
         </PractitionerRole>
      </resource>
   </entry>
   <entry>
      <fullUrl value="urn:uuid:29b4e2a5-cab4-4746-8119-7579e3b965f0"/>
      <resource>
         <Practitioner>
            <id value="29b4e2a5-cab4-4746-8119-7579e3b965f0"/>
            <meta>
               <profile value="http://hl7.eu/fhir/base/StructureDefinition/practitioner-eu"/>
            </meta>
            <text>
               <status value="generated"/>
               <div xmlns="http://www.w3.org/1999/xhtml">Laboratory: Laboratoire Central Européenne, 1000 Brussels, Belgium</div>
            </text>
            <identifier>
               <system value="urn:oid:2.16.840.1.113883.2.51.999"/>
               <value value="a10d41a5-b4af-434f-acb4-e6acf1abb384"/>
               <assigner>
                  <display value="HL7 Europe"/>
               </assigner>
            </identifier>
            <name>
               <family value="Ample"/>
               <given value="Ex"/>
               <prefix value="dr"/>
            </name>
            <address>
               <line value="Laboratoire Central Européenne"/>
               <line value="Boulevard du Jardin Botanique 32"/>
               <city value="Brussels"/>
               <postalCode value="1000"/>
               <country value="Belgium"/>
            </address>
         </Practitioner>
      </resource>
   </entry>
</Bundle>