{
  "resourceType": "Bundle",
  "id": "c5838aa1-00fa-4fb5-824c-c43607297214",
  "meta": {
    "profile": [
      "http://hl7.eu/fhir/laboratory/StructureDefinition/Bundle-eu-lab"
    ]
  },
  "identifier": {
    "assigner": {
      "display": "HL7 Europe"
    },
    "system": "urn:oid:2.16.840.1.113883.2.51.999",
    "value": "8751d191-bb47-4854-a7e5-34f316e78dca"
  },
  "entry": [
    {
      "fullUrl": "urn:uuid:d3c76148-2dcf-4e76-b444-6fb1d0675ffa",
      "resource": {
        "resourceType": "Composition",
        "id": "d3c76148-2dcf-4e76-b444-6fb1d0675ffa",
        "meta": {
          "profile": [
            "http://hl7.eu/fhir/laboratory/StructureDefinition/Composition-eu-lab"
          ]
        },
        "identifier": {
          "assigner": {
            "display": "HL7 Europe"
          },
          "system": "urn:oid:2.16.840.1.113883.2.51.999",
          "value": "09549f05-6d22-4fe3-9806-546546714621"
        },
        "author": [
          {
            "reference": "urn:uuid:3d89dd43-d8a4-4c5a-a12b-c1402f8d9291"
          }
        ],
        "category": [
          {
            "coding": [
              {
                "code": "26436-6",
                "system": "http://loinc.org",
                "display": "Laboratory studies (set)"
              }
            ]
          }
        ],
        "type": {
          "coding": [
            {
              "code": "11502-2",
              "system": "http://loinc.org",
              "display": "Laboratory report"
            }
          ],
          "text": "Laboratory Report"
        },
        "section": [
          {
            "code": {
              "coding": [
                {
                  "code": "26436-6",
                  "system": "http://loinc.org",
                  "display": "Laboratory studies (set)"
                }
              ],
              "text": "Laboratory studies"
            },
            "section": [
              {
                "code": {
                  "coding": [
                    {
                      "code": "$18719-5",
                      "system": "http://loinc.org",
                      "display": "Chemistry studies (set)"
                    }
                  ],
                  "text": "Chemistry"
                },
                "entry": [
                  {
                    "reference": "urn:uuid:ce74f9da-6a6e-473f-a4e9-c1f5478585fd"
                  },
                  {
                    "reference": "urn:uuid:3ac5abc1-d1d0-43c1-976b-89f3b8f8c9ad"
                  },
                  {
                    "reference": "urn:uuid:d7c1f43a-dbe5-4ad7-a6c5-4222765f0511"
                  },
                  {
                    "reference": "urn:uuid:70f43726-a377-46dc-a43e-64f2ba872404"
                  },
                  {
                    "reference": "urn:uuid:8b050c47-1814-4151-8b0a-f5849995e418"
                  },
                  {
                    "reference": "urn:uuid:75ec48a3-08d4-4f3a-b5ed-c1904c2b1b95"
                  },
                  {
                    "reference": "urn:uuid:1a2eb8b8-8dd8-4478-bfa3-e47f5733c15b"
                  },
                  {
                    "reference": "urn:uuid:b0a6a782-b56f-4b8b-a5e5-4be1d77e4608"
                  },
                  {
                    "reference": "urn:uuid:dabc816a-371c-4b4d-ae92-df5cf1bb2556"
                  },
                  {
                    "reference": "urn:uuid:135966ef-d814-45ac-a8a7-d8a75c98ef92"
                  },
                  {
                    "reference": "urn:uuid:6e99d7ce-bd70-4c8a-add5-0bfa40798705"
                  },
                  {
                    "reference": "urn:uuid:52e991b9-82f2-4273-855b-152cbcaf8ccb"
                  },
                  {
                    "reference": "urn:uuid:98d9aadf-b77b-464d-9636-855a345150ad"
                  },
                  {
                    "reference": "urn:uuid:50834dbb-ce4b-4d82-b694-6f9179bb2ba4"
                  },
                  {
                    "reference": "urn:uuid:765df2f4-27ee-40fb-9539-fc0e7633b468"
                  },
                  {
                    "reference": "urn:uuid:f6a8d1a3-c4d5-44f0-abe1-68493efc955b"
                  },
                  {
                    "reference": "urn:uuid:34509dbf-30a9-4870-8248-46804a23a888"
                  },
                  {
                    "reference": "urn:uuid:20c32c5e-4f4c-4c6b-8962-331c3e307b84"
                  },
                  {
                    "reference": "urn:uuid:3b0da420-fbc0-4673-b39b-a3310fc4d61c"
                  }
                ],
                "text": {
                  "status": "generated",
                  "div": "<div xmlns=\"http://www.w3.org/1999/xhtml\"><h3>Chemistry</h3><table class=\"hl7__eu__lab__report\"><thead><tr><th>Test</th><th>11-APR-2025</th><th>Reference&#xA0;Range</th><th>Unit</th></tr></thead><tbody><tr><td>Glucose [Mass/volume] in Blood</td><td>81.2</td><td>70 - 140</td><td>mg/dL</td></tr><tr><td>Urea nitrogen [Mass/volume] in Blood</td><td>10.3</td><td>7 - 25</td><td>mg/dL</td></tr><tr><td>Creatinine [Mass/volume] in Blood</td><td><strong>2.6 H</strong></td><td>0.9 - 1.3</td><td>mg/dL</td></tr><tr><td>Calcium [Mass/volume] in Blood</td><td>9.0</td><td>8.5 - 10.5</td><td>mg/dL</td></tr><tr><td>Sodium [Moles/volume] in Blood</td><td>138.9</td><td>135 - 145</td><td>mmol/L</td></tr><tr><td>Potassium [Moles/volume] in Blood</td><td>4.6</td><td>3.5 - 5.1</td><td>mmol/L</td></tr><tr><td>Chloride [Moles/volume] in Blood</td><td>108.3</td><td>98 - 110</td><td>mmol/L</td></tr><tr><td>Carbon dioxide, total [Moles/volume] in Blood</td><td>23.2</td><td>22 - 29</td><td>mmol/L</td></tr><tr><td>Protein [Mass/volume] in Serum or Plasma</td><td>7.0</td><td>6 - 8.3</td><td>g/dL</td></tr><tr><td>Albumin [Mass/volume] in Serum or Plasma</td><td>3.8</td><td>3.2 - 5.5</td><td>g/dL</td></tr><tr><td>Globulin [Mass/volume] in Serum by calculation</td><td>2.2</td><td>1.5 - 3.5</td><td>g/L</td></tr><tr><td>Bilirubin.total [Mass/volume] in Serum or Plasma</td><td>1.1</td><td>0.3 - 1.2</td><td>mg/dL</td></tr><tr><td>Alkaline phosphatase [Enzymatic activity/volume] in Serum or Plasma</td><td>101.7</td><td>39 - 147</td><td>U/L</td></tr><tr><td>Alanine aminotransferase [Enzymatic activity/volume] in Serum or Plasma</td><td>42.8</td><td>7 - 60</td><td>U/L</td></tr><tr><td>Aspartate aminotransferase [Enzymatic activity/volume] in Serum or Plasma</td><td>29.3</td><td>10 - 40</td><td>U/L</td></tr><tr><td>Cholesterol [Mass/volume] in Serum or Plasma</td><td>197.6</td><td>100 - 200</td><td>mg/dL</td></tr><tr><td>Triglyceride [Mass/volume] in Serum or Plasma</td><td><strong>192.1 H</strong></td><td>45 - 175</td><td>mg/dL</td></tr><tr><td>Cholesterol in LDL [Mass/volume] in Serum or Plasma by Direct assay</td><td>134.4</td><td>0 - 190</td><td>mg/dL</td></tr><tr><td>Cholesterol in HDL [Mass/volume] in Serum or Plasma</td><td>59.4</td><td>40 - 100</td><td>mg/dL</td></tr></tbody></table></div>"
                },
                "title": "Chemistry"
              }
            ],
            "title": "Laboratory Report"
          },
          {
            "text": {
              "status": "generated",
              "div": "<div xmlns=\"http://www.w3.org/1999/xhtml\"><h3>Annotation</h3><table class=\"hl7__eu__lab__report\"><tr><th>Conclusion and Recommendations based on this report and previous findings known to us</th></tr><tr><td>Most parameters are within normal limits. Notable findings include elevated creatinine, suggesting impaired renal function, and mildly elevated triglycerides. Liver enzymes, electrolytes, glucose, and protein levels are normal. Recommend clinical correlation for renal function and consideration of cardiovascular risk management due to hypertriglyceridemia.</td></tr></table></div>"
            },
            "code": {
              "coding": [
                {
                  "system": "http://loinc.org",
                  "code": "48767-8",
                  "display": "Annotation comment"
                }
              ]
            },
            "title": "Annotation comment"
          }
        ],
        "status": "final",
        "subject": {
          "reference": "urn:uuid:98ff37e3-799e-4842-a17e-00710bccbedd",
          "display": "Urbano Cantón"
        },
        "date": "2025-04-11T19:07:13Z",
        "title": "Laboratory Report",
        "confidentiality": "N"
      }
    },
    {
      "fullUrl": "urn:uuid:a0d1a9ae-dc61-4e03-b6a5-f4e7ec68d82e",
      "resource": {
        "resourceType": "DiagnosticReport",
        "id": "a0d1a9ae-dc61-4e03-b6a5-f4e7ec68d82e",
        "meta": {
          "profile": [
            "http://hl7.eu/fhir/laboratory/StructureDefinition/DiagnosticReport-eu-lab"
          ]
        },
        "identifier": [
          {
            "assigner": {
              "display": "HL7 Europe"
            },
            "system": "urn:oid:2.16.840.1.113883.2.51.999",
            "value": "14fdfec6-a9b7-4c42-a0aa-e1670d278703"
          }
        ],
        "extension": [
          {
            "url": "http://hl7.org/fhir/5.0/StructureDefinition/extension-DiagnosticReport.composition",
            "valueReference": {
              "reference": "urn:uuid:09549f05-6d22-4fe3-9806-546546714621"
            }
          }
        ],
        "category": [
          {
            "coding": [
              {
                "code": "26436-6",
                "system": "http://loinc.org",
                "display": "Laboratory studies (set)"
              }
            ]
          }
        ],
        "specimen": [
          {
            "reference": "urn:uuid:9555c534-b883-4d6a-b9a2-7c998360aac7"
          },
          {
            "reference": "urn:uuid:4125e61c-d69a-41cf-b132-49f234f11cb0"
          },
          {
            "reference": "urn:uuid:33478e98-0225-4445-b6bd-95c239b1d666"
          }
        ],
        "result": [
          {
            "reference": "urn:uuid:ce74f9da-6a6e-473f-a4e9-c1f5478585fd"
          },
          {
            "reference": "urn:uuid:3ac5abc1-d1d0-43c1-976b-89f3b8f8c9ad"
          },
          {
            "reference": "urn:uuid:d7c1f43a-dbe5-4ad7-a6c5-4222765f0511"
          },
          {
            "reference": "urn:uuid:70f43726-a377-46dc-a43e-64f2ba872404"
          },
          {
            "reference": "urn:uuid:8b050c47-1814-4151-8b0a-f5849995e418"
          },
          {
            "reference": "urn:uuid:75ec48a3-08d4-4f3a-b5ed-c1904c2b1b95"
          },
          {
            "reference": "urn:uuid:1a2eb8b8-8dd8-4478-bfa3-e47f5733c15b"
          },
          {
            "reference": "urn:uuid:b0a6a782-b56f-4b8b-a5e5-4be1d77e4608"
          },
          {
            "reference": "urn:uuid:dabc816a-371c-4b4d-ae92-df5cf1bb2556"
          },
          {
            "reference": "urn:uuid:135966ef-d814-45ac-a8a7-d8a75c98ef92"
          },
          {
            "reference": "urn:uuid:6e99d7ce-bd70-4c8a-add5-0bfa40798705"
          },
          {
            "reference": "urn:uuid:52e991b9-82f2-4273-855b-152cbcaf8ccb"
          },
          {
            "reference": "urn:uuid:98d9aadf-b77b-464d-9636-855a345150ad"
          },
          {
            "reference": "urn:uuid:50834dbb-ce4b-4d82-b694-6f9179bb2ba4"
          },
          {
            "reference": "urn:uuid:765df2f4-27ee-40fb-9539-fc0e7633b468"
          },
          {
            "reference": "urn:uuid:f6a8d1a3-c4d5-44f0-abe1-68493efc955b"
          },
          {
            "reference": "urn:uuid:34509dbf-30a9-4870-8248-46804a23a888"
          },
          {
            "reference": "urn:uuid:20c32c5e-4f4c-4c6b-8962-331c3e307b84"
          },
          {
            "reference": "urn:uuid:3b0da420-fbc0-4673-b39b-a3310fc4d61c"
          }
        ],
        "status": "registered",
        "code": {
          "coding": [
            {
              "code": "11502-2",
              "system": "http://loinc.org",
              "display": "Laboratory report"
            }
          ]
        },
        "subject": {
          "reference": "urn:uuid:98ff37e3-799e-4842-a17e-00710bccbedd",
          "display": "Urbano Cantón"
        }
      }
    },
    {
      "fullUrl": "urn:uuid:98ff37e3-799e-4842-a17e-00710bccbedd",
      "resource": {
        "resourceType": "Patient",
        "id": "98ff37e3-799e-4842-a17e-00710bccbedd",
        "meta": {
          "security": [
            {
              "system": "http://terminology.hl7.org/CodeSystem/v3-ActReason",
              "code": "HTEST"
            },
            {
              "system": "http://terminology.hl7.org/CodeSystem/v3-ActReason",
              "code": "TRAIN"
            }
          ],
          "tag": [
            {
              "system": "https://synderai.net/fhir/CodeSystem/tags",
              "code": "synthetic",
              "display": "SYNDERAI Synthetic data"
            }
          ],
          "profile": [
            "http://hl7.eu/fhir/base/StructureDefinition/patient-eu-core"
          ]
        },
        "identifier": [
          {
            "type": {
              "coding": [
                {
                  "code": "PT",
                  "system": "http://terminology.hl7.org/CodeSystem/v2-0203"
                }
              ]
            },
            "system": "http://ec.europa.eu/identifier/eci",
            "value": "8854-480268-4"
          },
          {
            "type": {
              "coding": [
                {
                  "code": "MR",
                  "system": "http://terminology.hl7.org/CodeSystem/v2-0203"
                }
              ]
            },
            "system": "http://local.setting.eu/identifier",
            "value": "91128f5c-658f-cfab-4640-b680ec2e24a1"
          }
        ],
        "name": [
          {
            "family": "Cantón"
          },
          {
            "given": [
              "Urbano"
            ]
          },
          {
            "text": "Urbano Cantón"
          }
        ],
        "address": [
          {
            "line": [
              "Vial Vito Trujillo 29 Piso 2 "
            ],
            "use": "home",
            "type": "physical",
            "postalCode": "38001",
            "city": "Santa Cruz de Tenerife",
            "country": "Spain"
          }
        ],
        "telecom": [
          {
            "system": "phone",
            "value": "+34 740 588 857"
          }
        ],
        "extension": [
          {
            "url": "http://hl7.org/fhir/StructureDefinition/patient-nationality",
            "valueCodeableConcept": {
              "coding": [
                {
                  "code": "ES",
                  "system": "http://hl7.org/fhir/ValueSet/country"
                }
              ]
            }
          }
        ],
        "text": {
          "status": "generated",
          "div": "<div xmlns=\"http://www.w3.org/1999/xhtml\"><table class=\"hl7__ips\"><tr><td>Urbano Cantón</td><td>male</td><td>01-Apr-1945</td></tr></table></div>"
        },
        "gender": "male",
        "birthDate": "1945-04-01"
      }
    },
    {
      "fullUrl": "urn:uuid:db63002c-e183-42ed-8439-4c283c4ea942",
      "resource": {
        "resourceType": "ServiceRequest",
        "id": "db63002c-e183-42ed-8439-4c283c4ea942",
        "meta": {
          "profile": [
            "http://hl7.eu/fhir/laboratory/StructureDefinition/ServiceRequest-eu-lab"
          ]
        },
        "identifier": [
          {
            "system": "http://example.org",
            "value": "3cf6ffda-7a67-48dc-9d13-31b8947d37c7"
          }
        ],
        "specimen": [
          {
            "reference": "urn:uuid:9555c534-b883-4d6a-b9a2-7c998360aac7"
          },
          {
            "reference": "urn:uuid:4125e61c-d69a-41cf-b132-49f234f11cb0"
          },
          {
            "reference": "urn:uuid:33478e98-0225-4445-b6bd-95c239b1d666"
          }
        ],
        "reasonCode": [
          {
            "coding": [
              {
                "code": "55822004",
                "system": "http://snomed.info/sct",
                "display": "Hyperlipidemia"
              }
            ]
          },
          {
            "coding": [
              {
                "code": "401314000",
                "system": "http://snomed.info/sct",
                "display": "Acute non-ST segment elevation myocardial infarction"
              }
            ]
          },
          {
            "coding": [
              {
                "code": "6525002",
                "system": "http://snomed.info/sct",
                "display": "Dependent drug abuse"
              }
            ]
          },
          {
            "coding": [
              {
                "code": "124171000119105",
                "system": "http://snomed.info/sct",
                "display": "Chronic intractable migraine without aura"
              }
            ]
          },
          {
            "coding": [
              {
                "code": "414545008",
                "system": "http://snomed.info/sct",
                "display": "Ischemic heart disease"
              }
            ]
          },
          {
            "coding": [
              {
                "code": "368581000119106",
                "system": "http://snomed.info/sct",
                "display": "Neuropathy due to type 2 diabetes mellitus"
              }
            ]
          },
          {
            "coding": [
              {
                "code": "80394007",
                "system": "http://snomed.info/sct",
                "display": "Hyperglycemia"
              }
            ]
          },
          {
            "coding": [
              {
                "code": "237602007",
                "system": "http://snomed.info/sct",
                "display": "Metabolic syndrome X"
              }
            ]
          },
          {
            "coding": [
              {
                "code": "302870006",
                "system": "http://snomed.info/sct",
                "display": "Hypertriglyceridemia"
              }
            ]
          },
          {
            "coding": [
              {
                "code": "44054006",
                "system": "http://snomed.info/sct",
                "display": "Type 2 diabetes mellitus"
              }
            ]
          },
          {
            "coding": [
              {
                "code": "59621000",
                "system": "http://snomed.info/sct",
                "display": "Essential hypertension"
              }
            ]
          },
          {
            "coding": [
              {
                "code": "271737000",
                "system": "http://snomed.info/sct",
                "display": "Anemia"
              }
            ]
          },
          {
            "coding": [
              {
                "code": "40055000",
                "system": "http://snomed.info/sct",
                "display": "Chronic sinusitis"
              }
            ]
          }
        ],
        "status": "active",
        "intent": "order",
        "code": {
          "coding": [
            {
              "code": "108252007",
              "system": "http://snomed.info/sct",
              "display": "Laboratory procedure"
            }
          ]
        },
        "subject": {
          "reference": "urn:uuid:98ff37e3-799e-4842-a17e-00710bccbedd",
          "display": "Urbano Cantón"
        },
        "requester": {
          "reference": "urn:uuid:f33c760d-16f3-45e1-8e74-1912a6f32a75"
        }
      }
    },
    {
      "fullUrl": "urn:uuid:f33c760d-16f3-45e1-8e74-1912a6f32a75",
      "resource": {
        "resourceType": "PractitionerRole",
        "id": "f33c760d-16f3-45e1-8e74-1912a6f32a75",
        "meta": {
          "profile": [
            "http://hl7.eu/fhir/base/StructureDefinition/practitionerRole-eu"
          ]
        },
        "text": {
          "status": "generated",
          "div": "<div xmlns=\"http://www.w3.org/1999/xhtml\">Provider Role Id: f33c760d-16f3-45e1-8e74-1912a6f32a75</div>"
        },
        "organization": {
          "reference": "urn:uuid:7b96052e-720c-4681-aa57-0da63984c4a4"
        }
      }
    },
    {
      "fullUrl": "urn:uuid:7b96052e-720c-4681-aa57-0da63984c4a4",
      "resource": {
        "resourceType": "Organization",
        "id": "7b96052e-720c-4681-aa57-0da63984c4a4",
        "meta": {
          "profile": [
            "http://hl7.eu/fhir/base/StructureDefinition/organization-eu"
          ]
        },
        "identifier": [
          {
            "assigner": {
              "display": "HL7 Europe"
            },
            "system": "urn:oid:2.16.840.1.113883.2.51.999",
            "value": "2eeb20a9-1068-4fee-af89-37daab0ad9eb"
          }
        ],
        "address": [
          {
            "country": "Spain"
          }
        ],
        "text": {
          "status": "generated",
          "div": "<div xmlns=\"http://www.w3.org/1999/xhtml\">Provider Organization: Centro de Salud Ruiz de Padrón</div>"
        },
        "name": "Centro de Salud Ruiz de Padrón"
      }
    },
    {
      "fullUrl": "urn:uuid:9555c534-b883-4d6a-b9a2-7c998360aac7",
      "resource": {
        "resourceType": "Specimen",
        "id": "9555c534-b883-4d6a-b9a2-7c998360aac7",
        "meta": {
          "profile": [
            "http://hl7.eu/fhir/laboratory/StructureDefinition/Specimen-eu-lab"
          ]
        },
        "collection": {
          "collectedDateTime": "2025-04-11"
        },
        "text": {
          "status": "generated",
          "div": "<div xmlns=\"http://www.w3.org/1999/xhtml\"><table class=\"hl7__eu__lab__report\"><tr><th>Specimen</th><th>Collection Date</th></tr><tr><td>Whole blood specimen (specimen)</td><td><span class=\"nb\">11-Apr-2025</span></td></tr></table></div>"
        },
        "type": {
          "coding": [
            {
              "code": "258580003",
              "system": "http://snomed.info/sct",
              "display": "Whole blood specimen (specimen)"
            }
          ]
        }
      }
    },
    {
      "fullUrl": "urn:uuid:4125e61c-d69a-41cf-b132-49f234f11cb0",
      "resource": {
        "resourceType": "Specimen",
        "id": "4125e61c-d69a-41cf-b132-49f234f11cb0",
        "meta": {
          "profile": [
            "http://hl7.eu/fhir/laboratory/StructureDefinition/Specimen-eu-lab"
          ]
        },
        "collection": {
          "collectedDateTime": "2025-04-11"
        },
        "text": {
          "status": "generated",
          "div": "<div xmlns=\"http://www.w3.org/1999/xhtml\"><table class=\"hl7__eu__lab__report\"><tr><th>Specimen</th><th>Collection Date</th></tr><tr><td>Acellular blood (serum or plasma) specimen</td><td><span class=\"nb\">11-Apr-2025</span></td></tr></table></div>"
        },
        "type": {
          "coding": [
            {
              "code": "122592007",
              "system": "http://snomed.info/sct",
              "display": "Acellular blood (serum or plasma) specimen"
            }
          ]
        }
      }
    },
    {
      "fullUrl": "urn:uuid:33478e98-0225-4445-b6bd-95c239b1d666",
      "resource": {
        "resourceType": "Specimen",
        "id": "33478e98-0225-4445-b6bd-95c239b1d666",
        "meta": {
          "profile": [
            "http://hl7.eu/fhir/laboratory/StructureDefinition/Specimen-eu-lab"
          ]
        },
        "collection": {
          "collectedDateTime": "2025-04-11"
        },
        "text": {
          "status": "generated",
          "div": "<div xmlns=\"http://www.w3.org/1999/xhtml\"><table class=\"hl7__eu__lab__report\"><tr><th>Specimen</th><th>Collection Date</th></tr><tr><td>Serum specimen</td><td><span class=\"nb\">11-Apr-2025</span></td></tr></table></div>"
        },
        "type": {
          "coding": [
            {
              "code": "119364003",
              "system": "http://snomed.info/sct",
              "display": "Serum specimen"
            }
          ]
        }
      }
    },
    {
      "fullUrl": "urn:uuid:ce74f9da-6a6e-473f-a4e9-c1f5478585fd",
      "resource": {
        "resourceType": "Observation",
        "id": "ce74f9da-6a6e-473f-a4e9-c1f5478585fd",
        "meta": {
          "profile": [
            "http://hl7.eu/fhir/laboratory/StructureDefinition/Observation-resultslab-eu-lab"
          ]
        },
        "performer": [
          {
            "display": "The Central European Lab"
          }
        ],
        "category": [
          {
            "coding": [
              {
                "system": "http://terminology.hl7.org/CodeSystem/observation-category",
                "code": "laboratory"
              }
            ]
          }
        ],
        "code": {
          "coding": [
            {
              "code": "2339-0",
              "system": "http://loinc.org",
              "display": "Glucose [Mass/volume] in Blood"
            }
          ],
          "text": "Glucose [Mass/volume] in Blood"
        },
        "valueQuantity": {
          "system": "http://unitsofmeasure.org",
          "value": 81.2,
          "unit": "mg/dL",
          "code": "mg/dL"
        },
        "referenceRange": [
          {
            "low": {
              "value": 70,
              "code": "mg/dL",
              "system": "http://unitsofmeasure.org"
            }
          },
          {
            "high": {
              "value": 140,
              "code": "mg/dL",
              "system": "http://unitsofmeasure.org"
            }
          }
        ],
        "text": {
          "status": "generated",
          "div": "<div xmlns=\"http://www.w3.org/1999/xhtml\"><table class=\"hl7__eu__lab__report\"><tr><th>Test</th><th>11-Apr-2025</th><th>Reference&#xA0;Range</th><th>Unit</th></tr><tr><td>Glucose [Mass/volume] in Blood</td><td>81.2</td><td>70 - 140</td><td></td><td>mg/dL</td></tr></table></div>"
        },
        "status": "final",
        "subject": {
          "reference": "urn:uuid:98ff37e3-799e-4842-a17e-00710bccbedd",
          "display": "Urbano Cantón"
        },
        "effectiveDateTime": "2025-04-11T17:07:13Z",
        "specimen": {
          "reference": "urn:uuid:9555c534-b883-4d6a-b9a2-7c998360aac7"
        }
      }
    },
    {
      "fullUrl": "urn:uuid:3ac5abc1-d1d0-43c1-976b-89f3b8f8c9ad",
      "resource": {
        "resourceType": "Observation",
        "id": "3ac5abc1-d1d0-43c1-976b-89f3b8f8c9ad",
        "meta": {
          "profile": [
            "http://hl7.eu/fhir/laboratory/StructureDefinition/Observation-resultslab-eu-lab"
          ]
        },
        "performer": [
          {
            "display": "The Central European Lab"
          }
        ],
        "category": [
          {
            "coding": [
              {
                "system": "http://terminology.hl7.org/CodeSystem/observation-category",
                "code": "laboratory"
              }
            ]
          }
        ],
        "code": {
          "coding": [
            {
              "code": "6299-2",
              "system": "http://loinc.org",
              "display": "Urea nitrogen [Mass/volume] in Blood"
            }
          ],
          "text": "Urea nitrogen [Mass/volume] in Blood"
        },
        "valueQuantity": {
          "system": "http://unitsofmeasure.org",
          "value": 10.3,
          "unit": "mg/dL",
          "code": "mg/dL"
        },
        "referenceRange": [
          {
            "low": {
              "value": 7,
              "code": "mg/dL",
              "system": "http://unitsofmeasure.org"
            }
          },
          {
            "high": {
              "value": 25,
              "code": "mg/dL",
              "system": "http://unitsofmeasure.org"
            }
          }
        ],
        "text": {
          "status": "generated",
          "div": "<div xmlns=\"http://www.w3.org/1999/xhtml\"><table class=\"hl7__eu__lab__report\"><tr><th>Test</th><th>11-Apr-2025</th><th>Reference&#xA0;Range</th><th>Unit</th></tr><tr><td>Urea nitrogen [Mass/volume] in Blood</td><td>10.3</td><td>7 - 25</td><td></td><td>mg/dL</td></tr></table></div>"
        },
        "status": "final",
        "subject": {
          "reference": "urn:uuid:98ff37e3-799e-4842-a17e-00710bccbedd",
          "display": "Urbano Cantón"
        },
        "effectiveDateTime": "2025-04-11T17:07:13Z",
        "specimen": {
          "reference": "urn:uuid:9555c534-b883-4d6a-b9a2-7c998360aac7"
        }
      }
    },
    {
      "fullUrl": "urn:uuid:d7c1f43a-dbe5-4ad7-a6c5-4222765f0511",
      "resource": {
        "resourceType": "Observation",
        "id": "d7c1f43a-dbe5-4ad7-a6c5-4222765f0511",
        "meta": {
          "profile": [
            "http://hl7.eu/fhir/laboratory/StructureDefinition/Observation-resultslab-eu-lab"
          ]
        },
        "performer": [
          {
            "display": "The Central European Lab"
          }
        ],
        "category": [
          {
            "coding": [
              {
                "system": "http://terminology.hl7.org/CodeSystem/observation-category",
                "code": "laboratory"
              }
            ]
          }
        ],
        "code": {
          "coding": [
            {
              "code": "38483-4",
              "system": "http://loinc.org",
              "display": "Creatinine [Mass/volume] in Blood"
            }
          ],
          "text": "Creatinine [Mass/volume] in Blood"
        },
        "valueQuantity": {
          "system": "http://unitsofmeasure.org",
          "value": 2.6,
          "unit": "mg/dL",
          "code": "mg/dL"
        },
        "referenceRange": [
          {
            "low": {
              "value": 0.9,
              "code": "mg/dL",
              "system": "http://unitsofmeasure.org"
            }
          },
          {
            "high": {
              "value": 1.3,
              "code": "mg/dL",
              "system": "http://unitsofmeasure.org"
            }
          }
        ],
        "interpretation": [
          {
            "coding": [
              {
                "code": "H",
                "system": "http://terminology.hl7.org/CodeSystem/v3-ObservationInterpretation",
                "display": "High"
              }
            ]
          }
        ],
        "text": {
          "status": "generated",
          "div": "<div xmlns=\"http://www.w3.org/1999/xhtml\"><table class=\"hl7__eu__lab__report\"><tr><th>Test</th><th>11-Apr-2025</th><th>Reference&#xA0;Range</th><th>Unit</th></tr><tr><td>Creatinine [Mass/volume] in Blood</td><td>2.6</td><td>0.9 - 1.3</td><td>H</td><td>mg/dL</td></tr></table></div>"
        },
        "status": "final",
        "subject": {
          "reference": "urn:uuid:98ff37e3-799e-4842-a17e-00710bccbedd",
          "display": "Urbano Cantón"
        },
        "effectiveDateTime": "2025-04-11T17:07:13Z",
        "specimen": {
          "reference": "urn:uuid:9555c534-b883-4d6a-b9a2-7c998360aac7"
        }
      }
    },
    {
      "fullUrl": "urn:uuid:70f43726-a377-46dc-a43e-64f2ba872404",
      "resource": {
        "resourceType": "Observation",
        "id": "70f43726-a377-46dc-a43e-64f2ba872404",
        "meta": {
          "profile": [
            "http://hl7.eu/fhir/laboratory/StructureDefinition/Observation-resultslab-eu-lab"
          ]
        },
        "performer": [
          {
            "display": "The Central European Lab"
          }
        ],
        "category": [
          {
            "coding": [
              {
                "system": "http://terminology.hl7.org/CodeSystem/observation-category",
                "code": "laboratory"
              }
            ]
          }
        ],
        "code": {
          "coding": [
            {
              "code": "49765-1",
              "system": "http://loinc.org",
              "display": "Calcium [Mass/volume] in Blood"
            }
          ],
          "text": "Calcium [Mass/volume] in Blood"
        },
        "valueQuantity": {
          "system": "http://unitsofmeasure.org",
          "value": 9,
          "unit": "mg/dL",
          "code": "mg/dL"
        },
        "referenceRange": [
          {
            "low": {
              "value": 8.5,
              "code": "mg/dL",
              "system": "http://unitsofmeasure.org"
            }
          },
          {
            "high": {
              "value": 10.5,
              "code": "mg/dL",
              "system": "http://unitsofmeasure.org"
            }
          }
        ],
        "text": {
          "status": "generated",
          "div": "<div xmlns=\"http://www.w3.org/1999/xhtml\"><table class=\"hl7__eu__lab__report\"><tr><th>Test</th><th>11-Apr-2025</th><th>Reference&#xA0;Range</th><th>Unit</th></tr><tr><td>Calcium [Mass/volume] in Blood</td><td>9.0</td><td>8.5 - 10.5</td><td></td><td>mg/dL</td></tr></table></div>"
        },
        "status": "final",
        "subject": {
          "reference": "urn:uuid:98ff37e3-799e-4842-a17e-00710bccbedd",
          "display": "Urbano Cantón"
        },
        "effectiveDateTime": "2025-04-11T17:07:13Z",
        "specimen": {
          "reference": "urn:uuid:9555c534-b883-4d6a-b9a2-7c998360aac7"
        }
      }
    },
    {
      "fullUrl": "urn:uuid:8b050c47-1814-4151-8b0a-f5849995e418",
      "resource": {
        "resourceType": "Observation",
        "id": "8b050c47-1814-4151-8b0a-f5849995e418",
        "meta": {
          "profile": [
            "http://hl7.eu/fhir/laboratory/StructureDefinition/Observation-resultslab-eu-lab"
          ]
        },
        "performer": [
          {
            "display": "The Central European Lab"
          }
        ],
        "category": [
          {
            "coding": [
              {
                "system": "http://terminology.hl7.org/CodeSystem/observation-category",
                "code": "laboratory"
              }
            ]
          }
        ],
        "code": {
          "coding": [
            {
              "code": "2947-0",
              "system": "http://loinc.org",
              "display": "Sodium [Moles/volume] in Blood"
            }
          ],
          "text": "Sodium [Moles/volume] in Blood"
        },
        "valueQuantity": {
          "system": "http://unitsofmeasure.org",
          "value": 138.9,
          "unit": "mmol/L",
          "code": "mmol/L"
        },
        "referenceRange": [
          {
            "low": {
              "value": 135,
              "code": "mmol/L",
              "system": "http://unitsofmeasure.org"
            }
          },
          {
            "high": {
              "value": 145,
              "code": "mmol/L",
              "system": "http://unitsofmeasure.org"
            }
          }
        ],
        "text": {
          "status": "generated",
          "div": "<div xmlns=\"http://www.w3.org/1999/xhtml\"><table class=\"hl7__eu__lab__report\"><tr><th>Test</th><th>11-Apr-2025</th><th>Reference&#xA0;Range</th><th>Unit</th></tr><tr><td>Sodium [Moles/volume] in Blood</td><td>138.9</td><td>135 - 145</td><td></td><td>mmol/L</td></tr></table></div>"
        },
        "status": "final",
        "subject": {
          "reference": "urn:uuid:98ff37e3-799e-4842-a17e-00710bccbedd",
          "display": "Urbano Cantón"
        },
        "effectiveDateTime": "2025-04-11T17:07:13Z",
        "specimen": {
          "reference": "urn:uuid:9555c534-b883-4d6a-b9a2-7c998360aac7"
        }
      }
    },
    {
      "fullUrl": "urn:uuid:75ec48a3-08d4-4f3a-b5ed-c1904c2b1b95",
      "resource": {
        "resourceType": "Observation",
        "id": "75ec48a3-08d4-4f3a-b5ed-c1904c2b1b95",
        "meta": {
          "profile": [
            "http://hl7.eu/fhir/laboratory/StructureDefinition/Observation-resultslab-eu-lab"
          ]
        },
        "performer": [
          {
            "display": "The Central European Lab"
          }
        ],
        "category": [
          {
            "coding": [
              {
                "system": "http://terminology.hl7.org/CodeSystem/observation-category",
                "code": "laboratory"
              }
            ]
          }
        ],
        "code": {
          "coding": [
            {
              "code": "6298-4",
              "system": "http://loinc.org",
              "display": "Potassium [Moles/volume] in Blood"
            }
          ],
          "text": "Potassium [Moles/volume] in Blood"
        },
        "valueQuantity": {
          "system": "http://unitsofmeasure.org",
          "value": 4.6,
          "unit": "mmol/L",
          "code": "mmol/L"
        },
        "referenceRange": [
          {
            "low": {
              "value": 3.5,
              "code": "mmol/L",
              "system": "http://unitsofmeasure.org"
            }
          },
          {
            "high": {
              "value": 5.1,
              "code": "mmol/L",
              "system": "http://unitsofmeasure.org"
            }
          }
        ],
        "text": {
          "status": "generated",
          "div": "<div xmlns=\"http://www.w3.org/1999/xhtml\"><table class=\"hl7__eu__lab__report\"><tr><th>Test</th><th>11-Apr-2025</th><th>Reference&#xA0;Range</th><th>Unit</th></tr><tr><td>Potassium [Moles/volume] in Blood</td><td>4.6</td><td>3.5 - 5.1</td><td></td><td>mmol/L</td></tr></table></div>"
        },
        "status": "final",
        "subject": {
          "reference": "urn:uuid:98ff37e3-799e-4842-a17e-00710bccbedd",
          "display": "Urbano Cantón"
        },
        "effectiveDateTime": "2025-04-11T17:07:13Z",
        "specimen": {
          "reference": "urn:uuid:9555c534-b883-4d6a-b9a2-7c998360aac7"
        }
      }
    },
    {
      "fullUrl": "urn:uuid:1a2eb8b8-8dd8-4478-bfa3-e47f5733c15b",
      "resource": {
        "resourceType": "Observation",
        "id": "1a2eb8b8-8dd8-4478-bfa3-e47f5733c15b",
        "meta": {
          "profile": [
            "http://hl7.eu/fhir/laboratory/StructureDefinition/Observation-resultslab-eu-lab"
          ]
        },
        "performer": [
          {
            "display": "The Central European Lab"
          }
        ],
        "category": [
          {
            "coding": [
              {
                "system": "http://terminology.hl7.org/CodeSystem/observation-category",
                "code": "laboratory"
              }
            ]
          }
        ],
        "code": {
          "coding": [
            {
              "code": "2069-3",
              "system": "http://loinc.org",
              "display": "Chloride [Moles/volume] in Blood"
            }
          ],
          "text": "Chloride [Moles/volume] in Blood"
        },
        "valueQuantity": {
          "system": "http://unitsofmeasure.org",
          "value": 108.3,
          "unit": "mmol/L",
          "code": "mmol/L"
        },
        "referenceRange": [
          {
            "low": {
              "value": 98,
              "code": "mmol/L",
              "system": "http://unitsofmeasure.org"
            }
          },
          {
            "high": {
              "value": 110,
              "code": "mmol/L",
              "system": "http://unitsofmeasure.org"
            }
          }
        ],
        "text": {
          "status": "generated",
          "div": "<div xmlns=\"http://www.w3.org/1999/xhtml\"><table class=\"hl7__eu__lab__report\"><tr><th>Test</th><th>11-Apr-2025</th><th>Reference&#xA0;Range</th><th>Unit</th></tr><tr><td>Chloride [Moles/volume] in Blood</td><td>108.3</td><td>98 - 110</td><td></td><td>mmol/L</td></tr></table></div>"
        },
        "status": "final",
        "subject": {
          "reference": "urn:uuid:98ff37e3-799e-4842-a17e-00710bccbedd",
          "display": "Urbano Cantón"
        },
        "effectiveDateTime": "2025-04-11T17:07:13Z",
        "specimen": {
          "reference": "urn:uuid:9555c534-b883-4d6a-b9a2-7c998360aac7"
        }
      }
    },
    {
      "fullUrl": "urn:uuid:b0a6a782-b56f-4b8b-a5e5-4be1d77e4608",
      "resource": {
        "resourceType": "Observation",
        "id": "b0a6a782-b56f-4b8b-a5e5-4be1d77e4608",
        "meta": {
          "profile": [
            "http://hl7.eu/fhir/laboratory/StructureDefinition/Observation-resultslab-eu-lab"
          ]
        },
        "performer": [
          {
            "display": "The Central European Lab"
          }
        ],
        "category": [
          {
            "coding": [
              {
                "system": "http://terminology.hl7.org/CodeSystem/observation-category",
                "code": "laboratory"
              }
            ]
          }
        ],
        "code": {
          "coding": [
            {
              "code": "20565-8",
              "system": "http://loinc.org",
              "display": "Carbon dioxide, total [Moles/volume] in Blood"
            }
          ],
          "text": "Carbon dioxide, total [Moles/volume] in Blood"
        },
        "valueQuantity": {
          "system": "http://unitsofmeasure.org",
          "value": 23.2,
          "unit": "mmol/L",
          "code": "mmol/L"
        },
        "referenceRange": [
          {
            "low": {
              "value": 22,
              "code": "mmol/L",
              "system": "http://unitsofmeasure.org"
            }
          },
          {
            "high": {
              "value": 29,
              "code": "mmol/L",
              "system": "http://unitsofmeasure.org"
            }
          }
        ],
        "text": {
          "status": "generated",
          "div": "<div xmlns=\"http://www.w3.org/1999/xhtml\"><table class=\"hl7__eu__lab__report\"><tr><th>Test</th><th>11-Apr-2025</th><th>Reference&#xA0;Range</th><th>Unit</th></tr><tr><td>Carbon dioxide, total [Moles/volume] in Blood</td><td>23.2</td><td>22 - 29</td><td></td><td>mmol/L</td></tr></table></div>"
        },
        "status": "final",
        "subject": {
          "reference": "urn:uuid:98ff37e3-799e-4842-a17e-00710bccbedd",
          "display": "Urbano Cantón"
        },
        "effectiveDateTime": "2025-04-11T17:07:13Z",
        "specimen": {
          "reference": "urn:uuid:9555c534-b883-4d6a-b9a2-7c998360aac7"
        }
      }
    },
    {
      "fullUrl": "urn:uuid:dabc816a-371c-4b4d-ae92-df5cf1bb2556",
      "resource": {
        "resourceType": "Observation",
        "id": "dabc816a-371c-4b4d-ae92-df5cf1bb2556",
        "meta": {
          "profile": [
            "http://hl7.eu/fhir/laboratory/StructureDefinition/Observation-resultslab-eu-lab"
          ]
        },
        "performer": [
          {
            "display": "The Central European Lab"
          }
        ],
        "category": [
          {
            "coding": [
              {
                "system": "http://terminology.hl7.org/CodeSystem/observation-category",
                "code": "laboratory"
              }
            ]
          }
        ],
        "code": {
          "coding": [
            {
              "code": "2885-2",
              "system": "http://loinc.org",
              "display": "Protein [Mass/volume] in Serum or Plasma"
            }
          ],
          "text": "Protein [Mass/volume] in Serum or Plasma"
        },
        "valueQuantity": {
          "system": "http://unitsofmeasure.org",
          "value": 7,
          "unit": "g/dL",
          "code": "g/dL"
        },
        "referenceRange": [
          {
            "low": {
              "value": 6,
              "code": "g/dL",
              "system": "http://unitsofmeasure.org"
            }
          },
          {
            "high": {
              "value": 8.3,
              "code": "g/dL",
              "system": "http://unitsofmeasure.org"
            }
          }
        ],
        "text": {
          "status": "generated",
          "div": "<div xmlns=\"http://www.w3.org/1999/xhtml\"><table class=\"hl7__eu__lab__report\"><tr><th>Test</th><th>11-Apr-2025</th><th>Reference&#xA0;Range</th><th>Unit</th></tr><tr><td>Protein [Mass/volume] in Serum or Plasma</td><td>7.0</td><td>6 - 8.3</td><td></td><td>g/dL</td></tr></table></div>"
        },
        "status": "final",
        "subject": {
          "reference": "urn:uuid:98ff37e3-799e-4842-a17e-00710bccbedd",
          "display": "Urbano Cantón"
        },
        "effectiveDateTime": "2025-04-11T17:07:13Z",
        "specimen": {
          "reference": "urn:uuid:4125e61c-d69a-41cf-b132-49f234f11cb0"
        }
      }
    },
    {
      "fullUrl": "urn:uuid:135966ef-d814-45ac-a8a7-d8a75c98ef92",
      "resource": {
        "resourceType": "Observation",
        "id": "135966ef-d814-45ac-a8a7-d8a75c98ef92",
        "meta": {
          "profile": [
            "http://hl7.eu/fhir/laboratory/StructureDefinition/Observation-resultslab-eu-lab"
          ]
        },
        "performer": [
          {
            "display": "The Central European Lab"
          }
        ],
        "category": [
          {
            "coding": [
              {
                "system": "http://terminology.hl7.org/CodeSystem/observation-category",
                "code": "laboratory"
              }
            ]
          }
        ],
        "code": {
          "coding": [
            {
              "code": "1751-7",
              "system": "http://loinc.org",
              "display": "Albumin [Mass/volume] in Serum or Plasma"
            }
          ],
          "text": "Albumin [Mass/volume] in Serum or Plasma"
        },
        "valueQuantity": {
          "system": "http://unitsofmeasure.org",
          "value": 3.8,
          "unit": "g/dL",
          "code": "g/dL"
        },
        "referenceRange": [
          {
            "low": {
              "value": 3.2,
              "code": "g/dL",
              "system": "http://unitsofmeasure.org"
            }
          },
          {
            "high": {
              "value": 5.5,
              "code": "g/dL",
              "system": "http://unitsofmeasure.org"
            }
          }
        ],
        "text": {
          "status": "generated",
          "div": "<div xmlns=\"http://www.w3.org/1999/xhtml\"><table class=\"hl7__eu__lab__report\"><tr><th>Test</th><th>11-Apr-2025</th><th>Reference&#xA0;Range</th><th>Unit</th></tr><tr><td>Albumin [Mass/volume] in Serum or Plasma</td><td>3.8</td><td>3.2 - 5.5</td><td></td><td>g/dL</td></tr></table></div>"
        },
        "status": "final",
        "subject": {
          "reference": "urn:uuid:98ff37e3-799e-4842-a17e-00710bccbedd",
          "display": "Urbano Cantón"
        },
        "effectiveDateTime": "2025-04-11T17:07:13Z",
        "specimen": {
          "reference": "urn:uuid:4125e61c-d69a-41cf-b132-49f234f11cb0"
        }
      }
    },
    {
      "fullUrl": "urn:uuid:6e99d7ce-bd70-4c8a-add5-0bfa40798705",
      "resource": {
        "resourceType": "Observation",
        "id": "6e99d7ce-bd70-4c8a-add5-0bfa40798705",
        "meta": {
          "profile": [
            "http://hl7.eu/fhir/laboratory/StructureDefinition/Observation-resultslab-eu-lab"
          ]
        },
        "performer": [
          {
            "display": "The Central European Lab"
          }
        ],
        "category": [
          {
            "coding": [
              {
                "system": "http://terminology.hl7.org/CodeSystem/observation-category",
                "code": "laboratory"
              }
            ]
          }
        ],
        "code": {
          "coding": [
            {
              "code": "10834-0",
              "system": "http://loinc.org",
              "display": "Globulin [Mass/volume] in Serum by calculation"
            }
          ],
          "text": "Globulin [Mass/volume] in Serum by calculation"
        },
        "valueQuantity": {
          "system": "http://unitsofmeasure.org",
          "value": 2.2,
          "unit": "g/L",
          "code": "g/L"
        },
        "referenceRange": [
          {
            "low": {
              "value": 1.5,
              "code": "g/L",
              "system": "http://unitsofmeasure.org"
            }
          },
          {
            "high": {
              "value": 3.5,
              "code": "g/L",
              "system": "http://unitsofmeasure.org"
            }
          }
        ],
        "text": {
          "status": "generated",
          "div": "<div xmlns=\"http://www.w3.org/1999/xhtml\"><table class=\"hl7__eu__lab__report\"><tr><th>Test</th><th>11-Apr-2025</th><th>Reference&#xA0;Range</th><th>Unit</th></tr><tr><td>Globulin [Mass/volume] in Serum by calculation</td><td>2.2</td><td>1.5 - 3.5</td><td></td><td>g/L</td></tr></table></div>"
        },
        "status": "final",
        "subject": {
          "reference": "urn:uuid:98ff37e3-799e-4842-a17e-00710bccbedd",
          "display": "Urbano Cantón"
        },
        "effectiveDateTime": "2025-04-11T17:07:13Z",
        "specimen": {
          "reference": "urn:uuid:33478e98-0225-4445-b6bd-95c239b1d666"
        }
      }
    },
    {
      "fullUrl": "urn:uuid:52e991b9-82f2-4273-855b-152cbcaf8ccb",
      "resource": {
        "resourceType": "Observation",
        "id": "52e991b9-82f2-4273-855b-152cbcaf8ccb",
        "meta": {
          "profile": [
            "http://hl7.eu/fhir/laboratory/StructureDefinition/Observation-resultslab-eu-lab"
          ]
        },
        "performer": [
          {
            "display": "The Central European Lab"
          }
        ],
        "category": [
          {
            "coding": [
              {
                "system": "http://terminology.hl7.org/CodeSystem/observation-category",
                "code": "laboratory"
              }
            ]
          }
        ],
        "code": {
          "coding": [
            {
              "code": "1975-2",
              "system": "http://loinc.org",
              "display": "Bilirubin.total [Mass/volume] in Serum or Plasma"
            }
          ],
          "text": "Bilirubin.total [Mass/volume] in Serum or Plasma"
        },
        "valueQuantity": {
          "system": "http://unitsofmeasure.org",
          "value": 1.1,
          "unit": "mg/dL",
          "code": "mg/dL"
        },
        "referenceRange": [
          {
            "low": {
              "value": 0.3,
              "code": "mg/dL",
              "system": "http://unitsofmeasure.org"
            }
          },
          {
            "high": {
              "value": 1.2,
              "code": "mg/dL",
              "system": "http://unitsofmeasure.org"
            }
          }
        ],
        "text": {
          "status": "generated",
          "div": "<div xmlns=\"http://www.w3.org/1999/xhtml\"><table class=\"hl7__eu__lab__report\"><tr><th>Test</th><th>11-Apr-2025</th><th>Reference&#xA0;Range</th><th>Unit</th></tr><tr><td>Bilirubin.total [Mass/volume] in Serum or Plasma</td><td>1.1</td><td>0.3 - 1.2</td><td></td><td>mg/dL</td></tr></table></div>"
        },
        "status": "final",
        "subject": {
          "reference": "urn:uuid:98ff37e3-799e-4842-a17e-00710bccbedd",
          "display": "Urbano Cantón"
        },
        "effectiveDateTime": "2025-04-11T17:07:13Z",
        "specimen": {
          "reference": "urn:uuid:4125e61c-d69a-41cf-b132-49f234f11cb0"
        }
      }
    },
    {
      "fullUrl": "urn:uuid:98d9aadf-b77b-464d-9636-855a345150ad",
      "resource": {
        "resourceType": "Observation",
        "id": "98d9aadf-b77b-464d-9636-855a345150ad",
        "meta": {
          "profile": [
            "http://hl7.eu/fhir/laboratory/StructureDefinition/Observation-resultslab-eu-lab"
          ]
        },
        "performer": [
          {
            "display": "The Central European Lab"
          }
        ],
        "category": [
          {
            "coding": [
              {
                "system": "http://terminology.hl7.org/CodeSystem/observation-category",
                "code": "laboratory"
              }
            ]
          }
        ],
        "code": {
          "coding": [
            {
              "code": "6768-6",
              "system": "http://loinc.org",
              "display": "Alkaline phosphatase [Enzymatic activity/volume] in Serum or Plasma"
            }
          ],
          "text": "Alkaline phosphatase [Enzymatic activity/volume] in Serum or Plasma"
        },
        "valueQuantity": {
          "system": "http://unitsofmeasure.org",
          "value": 101.7,
          "unit": "U/L",
          "code": "U/L"
        },
        "referenceRange": [
          {
            "low": {
              "value": 39,
              "code": "U/L",
              "system": "http://unitsofmeasure.org"
            }
          },
          {
            "high": {
              "value": 147,
              "code": "U/L",
              "system": "http://unitsofmeasure.org"
            }
          }
        ],
        "text": {
          "status": "generated",
          "div": "<div xmlns=\"http://www.w3.org/1999/xhtml\"><table class=\"hl7__eu__lab__report\"><tr><th>Test</th><th>11-Apr-2025</th><th>Reference&#xA0;Range</th><th>Unit</th></tr><tr><td>Alkaline phosphatase [Enzymatic activity/volume] in Serum or Plasma</td><td>101.7</td><td>39 - 147</td><td></td><td>U/L</td></tr></table></div>"
        },
        "status": "final",
        "subject": {
          "reference": "urn:uuid:98ff37e3-799e-4842-a17e-00710bccbedd",
          "display": "Urbano Cantón"
        },
        "effectiveDateTime": "2025-04-11T17:07:13Z",
        "specimen": {
          "reference": "urn:uuid:4125e61c-d69a-41cf-b132-49f234f11cb0"
        }
      }
    },
    {
      "fullUrl": "urn:uuid:50834dbb-ce4b-4d82-b694-6f9179bb2ba4",
      "resource": {
        "resourceType": "Observation",
        "id": "50834dbb-ce4b-4d82-b694-6f9179bb2ba4",
        "meta": {
          "profile": [
            "http://hl7.eu/fhir/laboratory/StructureDefinition/Observation-resultslab-eu-lab"
          ]
        },
        "performer": [
          {
            "display": "The Central European Lab"
          }
        ],
        "category": [
          {
            "coding": [
              {
                "system": "http://terminology.hl7.org/CodeSystem/observation-category",
                "code": "laboratory"
              }
            ]
          }
        ],
        "code": {
          "coding": [
            {
              "code": "1742-6",
              "system": "http://loinc.org",
              "display": "Alanine aminotransferase [Enzymatic activity/volume] in Serum or Plasma"
            }
          ],
          "text": "Alanine aminotransferase [Enzymatic activity/volume] in Serum or Plasma"
        },
        "valueQuantity": {
          "system": "http://unitsofmeasure.org",
          "value": 42.8,
          "unit": "U/L",
          "code": "U/L"
        },
        "referenceRange": [
          {
            "low": {
              "value": 7,
              "code": "U/L",
              "system": "http://unitsofmeasure.org"
            }
          },
          {
            "high": {
              "value": 60,
              "code": "U/L",
              "system": "http://unitsofmeasure.org"
            }
          }
        ],
        "text": {
          "status": "generated",
          "div": "<div xmlns=\"http://www.w3.org/1999/xhtml\"><table class=\"hl7__eu__lab__report\"><tr><th>Test</th><th>11-Apr-2025</th><th>Reference&#xA0;Range</th><th>Unit</th></tr><tr><td>Alanine aminotransferase [Enzymatic activity/volume] in Serum or Plasma</td><td>42.8</td><td>7 - 60</td><td></td><td>U/L</td></tr></table></div>"
        },
        "status": "final",
        "subject": {
          "reference": "urn:uuid:98ff37e3-799e-4842-a17e-00710bccbedd",
          "display": "Urbano Cantón"
        },
        "effectiveDateTime": "2025-04-11T17:07:13Z",
        "specimen": {
          "reference": "urn:uuid:4125e61c-d69a-41cf-b132-49f234f11cb0"
        }
      }
    },
    {
      "fullUrl": "urn:uuid:765df2f4-27ee-40fb-9539-fc0e7633b468",
      "resource": {
        "resourceType": "Observation",
        "id": "765df2f4-27ee-40fb-9539-fc0e7633b468",
        "meta": {
          "profile": [
            "http://hl7.eu/fhir/laboratory/StructureDefinition/Observation-resultslab-eu-lab"
          ]
        },
        "performer": [
          {
            "display": "The Central European Lab"
          }
        ],
        "category": [
          {
            "coding": [
              {
                "system": "http://terminology.hl7.org/CodeSystem/observation-category",
                "code": "laboratory"
              }
            ]
          }
        ],
        "code": {
          "coding": [
            {
              "code": "1920-8",
              "system": "http://loinc.org",
              "display": "Aspartate aminotransferase [Enzymatic activity/volume] in Serum or Plasma"
            }
          ],
          "text": "Aspartate aminotransferase [Enzymatic activity/volume] in Serum or Plasma"
        },
        "valueQuantity": {
          "system": "http://unitsofmeasure.org",
          "value": 29.3,
          "unit": "U/L",
          "code": "U/L"
        },
        "referenceRange": [
          {
            "low": {
              "value": 10,
              "code": "U/L",
              "system": "http://unitsofmeasure.org"
            }
          },
          {
            "high": {
              "value": 40,
              "code": "U/L",
              "system": "http://unitsofmeasure.org"
            }
          }
        ],
        "text": {
          "status": "generated",
          "div": "<div xmlns=\"http://www.w3.org/1999/xhtml\"><table class=\"hl7__eu__lab__report\"><tr><th>Test</th><th>11-Apr-2025</th><th>Reference&#xA0;Range</th><th>Unit</th></tr><tr><td>Aspartate aminotransferase [Enzymatic activity/volume] in Serum or Plasma</td><td>29.3</td><td>10 - 40</td><td></td><td>U/L</td></tr></table></div>"
        },
        "status": "final",
        "subject": {
          "reference": "urn:uuid:98ff37e3-799e-4842-a17e-00710bccbedd",
          "display": "Urbano Cantón"
        },
        "effectiveDateTime": "2025-04-11T17:07:13Z",
        "specimen": {
          "reference": "urn:uuid:4125e61c-d69a-41cf-b132-49f234f11cb0"
        }
      }
    },
    {
      "fullUrl": "urn:uuid:f6a8d1a3-c4d5-44f0-abe1-68493efc955b",
      "resource": {
        "resourceType": "Observation",
        "id": "f6a8d1a3-c4d5-44f0-abe1-68493efc955b",
        "meta": {
          "profile": [
            "http://hl7.eu/fhir/laboratory/StructureDefinition/Observation-resultslab-eu-lab"
          ]
        },
        "performer": [
          {
            "display": "The Central European Lab"
          }
        ],
        "category": [
          {
            "coding": [
              {
                "system": "http://terminology.hl7.org/CodeSystem/observation-category",
                "code": "laboratory"
              }
            ]
          }
        ],
        "code": {
          "coding": [
            {
              "code": "2093-3",
              "system": "http://loinc.org",
              "display": "Cholesterol [Mass/volume] in Serum or Plasma"
            }
          ],
          "text": "Cholesterol [Mass/volume] in Serum or Plasma"
        },
        "valueQuantity": {
          "system": "http://unitsofmeasure.org",
          "value": 197.6,
          "unit": "mg/dL",
          "code": "mg/dL"
        },
        "referenceRange": [
          {
            "low": {
              "value": 100,
              "code": "mg/dL",
              "system": "http://unitsofmeasure.org"
            }
          },
          {
            "high": {
              "value": 200,
              "code": "mg/dL",
              "system": "http://unitsofmeasure.org"
            }
          }
        ],
        "text": {
          "status": "generated",
          "div": "<div xmlns=\"http://www.w3.org/1999/xhtml\"><table class=\"hl7__eu__lab__report\"><tr><th>Test</th><th>11-Apr-2025</th><th>Reference&#xA0;Range</th><th>Unit</th></tr><tr><td>Cholesterol [Mass/volume] in Serum or Plasma</td><td>197.6</td><td>100 - 200</td><td></td><td>mg/dL</td></tr></table></div>"
        },
        "status": "final",
        "subject": {
          "reference": "urn:uuid:98ff37e3-799e-4842-a17e-00710bccbedd",
          "display": "Urbano Cantón"
        },
        "effectiveDateTime": "2025-04-11T17:07:13Z",
        "specimen": {
          "reference": "urn:uuid:4125e61c-d69a-41cf-b132-49f234f11cb0"
        }
      }
    },
    {
      "fullUrl": "urn:uuid:34509dbf-30a9-4870-8248-46804a23a888",
      "resource": {
        "resourceType": "Observation",
        "id": "34509dbf-30a9-4870-8248-46804a23a888",
        "meta": {
          "profile": [
            "http://hl7.eu/fhir/laboratory/StructureDefinition/Observation-resultslab-eu-lab"
          ]
        },
        "performer": [
          {
            "display": "The Central European Lab"
          }
        ],
        "category": [
          {
            "coding": [
              {
                "system": "http://terminology.hl7.org/CodeSystem/observation-category",
                "code": "laboratory"
              }
            ]
          }
        ],
        "code": {
          "coding": [
            {
              "code": "2571-8",
              "system": "http://loinc.org",
              "display": "Triglyceride [Mass/volume] in Serum or Plasma"
            }
          ],
          "text": "Triglyceride [Mass/volume] in Serum or Plasma"
        },
        "valueQuantity": {
          "system": "http://unitsofmeasure.org",
          "value": 192.1,
          "unit": "mg/dL",
          "code": "mg/dL"
        },
        "referenceRange": [
          {
            "low": {
              "value": 45,
              "code": "mg/dL",
              "system": "http://unitsofmeasure.org"
            }
          },
          {
            "high": {
              "value": 175,
              "code": "mg/dL",
              "system": "http://unitsofmeasure.org"
            }
          }
        ],
        "interpretation": [
          {
            "coding": [
              {
                "code": "H",
                "system": "http://terminology.hl7.org/CodeSystem/v3-ObservationInterpretation",
                "display": "High"
              }
            ]
          }
        ],
        "text": {
          "status": "generated",
          "div": "<div xmlns=\"http://www.w3.org/1999/xhtml\"><table class=\"hl7__eu__lab__report\"><tr><th>Test</th><th>11-Apr-2025</th><th>Reference&#xA0;Range</th><th>Unit</th></tr><tr><td>Triglyceride [Mass/volume] in Serum or Plasma</td><td>192.1</td><td>45 - 175</td><td>H</td><td>mg/dL</td></tr></table></div>"
        },
        "status": "final",
        "subject": {
          "reference": "urn:uuid:98ff37e3-799e-4842-a17e-00710bccbedd",
          "display": "Urbano Cantón"
        },
        "effectiveDateTime": "2025-04-11T17:07:13Z",
        "specimen": {
          "reference": "urn:uuid:4125e61c-d69a-41cf-b132-49f234f11cb0"
        }
      }
    },
    {
      "fullUrl": "urn:uuid:20c32c5e-4f4c-4c6b-8962-331c3e307b84",
      "resource": {
        "resourceType": "Observation",
        "id": "20c32c5e-4f4c-4c6b-8962-331c3e307b84",
        "meta": {
          "profile": [
            "http://hl7.eu/fhir/laboratory/StructureDefinition/Observation-resultslab-eu-lab"
          ]
        },
        "performer": [
          {
            "display": "The Central European Lab"
          }
        ],
        "category": [
          {
            "coding": [
              {
                "system": "http://terminology.hl7.org/CodeSystem/observation-category",
                "code": "laboratory"
              }
            ]
          }
        ],
        "code": {
          "coding": [
            {
              "code": "18262-6",
              "system": "http://loinc.org",
              "display": "Cholesterol in LDL [Mass/volume] in Serum or Plasma by Direct assay"
            }
          ],
          "text": "Cholesterol in LDL [Mass/volume] in Serum or Plasma by Direct assay"
        },
        "valueQuantity": {
          "system": "http://unitsofmeasure.org",
          "value": 134.4,
          "unit": "mg/dL",
          "code": "mg/dL"
        },
        "referenceRange": [
          {
            "low": {
              "value": 0,
              "code": "mg/dL",
              "system": "http://unitsofmeasure.org"
            }
          },
          {
            "high": {
              "value": 190,
              "code": "mg/dL",
              "system": "http://unitsofmeasure.org"
            }
          }
        ],
        "text": {
          "status": "generated",
          "div": "<div xmlns=\"http://www.w3.org/1999/xhtml\"><table class=\"hl7__eu__lab__report\"><tr><th>Test</th><th>11-Apr-2025</th><th>Reference&#xA0;Range</th><th>Unit</th></tr><tr><td>Cholesterol in LDL [Mass/volume] in Serum or Plasma by Direct assay</td><td>134.4</td><td>0 - 190</td><td></td><td>mg/dL</td></tr></table></div>"
        },
        "status": "final",
        "subject": {
          "reference": "urn:uuid:98ff37e3-799e-4842-a17e-00710bccbedd",
          "display": "Urbano Cantón"
        },
        "effectiveDateTime": "2025-04-11T17:07:13Z",
        "specimen": {
          "reference": "urn:uuid:4125e61c-d69a-41cf-b132-49f234f11cb0"
        }
      }
    },
    {
      "fullUrl": "urn:uuid:3b0da420-fbc0-4673-b39b-a3310fc4d61c",
      "resource": {
        "resourceType": "Observation",
        "id": "3b0da420-fbc0-4673-b39b-a3310fc4d61c",
        "meta": {
          "profile": [
            "http://hl7.eu/fhir/laboratory/StructureDefinition/Observation-resultslab-eu-lab"
          ]
        },
        "performer": [
          {
            "display": "The Central European Lab"
          }
        ],
        "category": [
          {
            "coding": [
              {
                "system": "http://terminology.hl7.org/CodeSystem/observation-category",
                "code": "laboratory"
              }
            ]
          }
        ],
        "code": {
          "coding": [
            {
              "code": "2085-9",
              "system": "http://loinc.org",
              "display": "Cholesterol in HDL [Mass/volume] in Serum or Plasma"
            }
          ],
          "text": "Cholesterol in HDL [Mass/volume] in Serum or Plasma"
        },
        "valueQuantity": {
          "system": "http://unitsofmeasure.org",
          "value": 59.4,
          "unit": "mg/dL",
          "code": "mg/dL"
        },
        "referenceRange": [
          {
            "low": {
              "value": 40,
              "code": "mg/dL",
              "system": "http://unitsofmeasure.org"
            }
          },
          {
            "high": {
              "value": 100,
              "code": "mg/dL",
              "system": "http://unitsofmeasure.org"
            }
          }
        ],
        "text": {
          "status": "generated",
          "div": "<div xmlns=\"http://www.w3.org/1999/xhtml\"><table class=\"hl7__eu__lab__report\"><tr><th>Test</th><th>11-Apr-2025</th><th>Reference&#xA0;Range</th><th>Unit</th></tr><tr><td>Cholesterol in HDL [Mass/volume] in Serum or Plasma</td><td>59.4</td><td>40 - 100</td><td></td><td>mg/dL</td></tr></table></div>"
        },
        "status": "final",
        "subject": {
          "reference": "urn:uuid:98ff37e3-799e-4842-a17e-00710bccbedd",
          "display": "Urbano Cantón"
        },
        "effectiveDateTime": "2025-04-11T17:07:13Z",
        "specimen": {
          "reference": "urn:uuid:4125e61c-d69a-41cf-b132-49f234f11cb0"
        }
      }
    },
    {
      "fullUrl": "urn:uuid:5b8e97e4-f288-471f-9586-24799740c508",
      "resource": {
        "resourceType": "Device",
        "id": "5b8e97e4-f288-471f-9586-24799740c508",
        "deviceName": [
          {
            "name": "SYNDERAI Synthetic Generator",
            "type": "manufacturer-name"
          }
        ],
        "version": [
          {
            "value": "5.0"
          }
        ],
        "text": {
          "status": "generated",
          "div": "<div xmlns=\"http://www.w3.org/1999/xhtml\">SYNDERAI Synthetic Generator v5.0</div>"
        },
        "status": "active\"",
        "distinctIdentifier": "synderai-generator-50",
        "manufacturer": "SYNDERAI Project"
      }
    },
    {
      "fullUrl": "urn:uuid:91127cb3-130e-4602-92c7-ffad35fb7af2",
      "resource": {
        "resourceType": "Provenance",
        "id": "91127cb3-130e-4602-92c7-ffad35fb7af2",
        "target": [
          {
            "reference": "Patient/98ff37e3-799e-4842-a17e-00710bccbedd"
          },
          {
            "reference": "Bundle/c5838aa1-00fa-4fb5-824c-c43607297214"
          },
          {
            "reference": "Composition/d3c76148-2dcf-4e76-b444-6fb1d0675ffa"
          },
          {
            "reference": "PractitionerRole/3d89dd43-d8a4-4c5a-a12b-c1402f8d9291"
          },
          {
            "reference": "Practitioner/6e7e3a6a-ae89-44c5-a16b-94612cca236b"
          },
          {
            "reference": "PractitionerRole/f33c760d-16f3-45e1-8e74-1912a6f32a75"
          },
          {
            "reference": "Organization/7b96052e-720c-4681-aa57-0da63984c4a4"
          }
        ],
        "activity": {
          "text": "Synthetic Example Data Generation"
        },
        "policy": [
          "https://synderai.net/synderai-synthetic-data-policy"
        ],
        "agent": [
          {
            "type": {
              "text": "author"
            },
            "who": {
              "reference": "Device/5b8e97e4-f288-471f-9586-24799740c508"
            }
          }
        ],
        "reason": [
          {
            "text": "Interoperability Testing and Training (non-clinical use)"
          }
        ],
        "text": {
          "status": "generated",
          "div": "<div xmlns=\"http://www.w3.org/1999/xhtml\">Provenance for SYNDERAI Synthetic Example Data Resource</div>"
        },
        "recorded": "2025-04-11T19:07:13Z"
      }
    },
    {
      "fullUrl": "urn:uuid:3d89dd43-d8a4-4c5a-a12b-c1402f8d9291",
      "resource": {
        "resourceType": "PractitionerRole",
        "id": "3d89dd43-d8a4-4c5a-a12b-c1402f8d9291",
        "meta": {
          "profile": [
            "http://hl7.eu/fhir/base/StructureDefinition/practitionerRole-eu"
          ]
        },
        "text": {
          "status": "generated",
          "div": "<div xmlns=\"http://www.w3.org/1999/xhtml\">Laboratory Role Id: 3d89dd43-d8a4-4c5a-a12b-c1402f8d9291</div>"
        },
        "practitioner": {
          "reference": "urn:uuid:6e7e3a6a-ae89-44c5-a16b-94612cca236b"
        }
      }
    },
    {
      "fullUrl": "urn:uuid:6e7e3a6a-ae89-44c5-a16b-94612cca236b",
      "resource": {
        "resourceType": "Practitioner",
        "id": "6e7e3a6a-ae89-44c5-a16b-94612cca236b",
        "meta": {
          "profile": [
            "http://hl7.eu/fhir/base/StructureDefinition/practitioner-eu"
          ]
        },
        "identifier": [
          {
            "assigner": {
              "display": "HL7 Europe"
            },
            "system": "urn:oid:2.16.840.1.113883.2.51.999",
            "value": "b79222d1-32a9-4bbc-a41b-06524627a21e"
          }
        ],
        "name": [
          {
            "prefix": [
              "dr"
            ],
            "given": [
              "Ex"
            ],
            "family": "Ample"
          }
        ],
        "address": [
          {
            "line": [
              "Laboratoire Central Européenne",
              "Boulevard du Jardin Botanique 32"
            ],
            "postalCode": "1000",
            "city": "Brussels",
            "country": "Belgium"
          }
        ],
        "text": {
          "status": "generated",
          "div": "<div xmlns=\"http://www.w3.org/1999/xhtml\">Laboratory: Laboratoire Central Européenne, 1000 Brussels, Belgium</div>"
        }
      }
    }
  ],
  "type": "document",
  "timestamp": "2025-04-11T19:07:13Z"
}
