{
  "resourceType": "Bundle",
  "id": "26ca4456-a36a-40f5-bad6-48680aa2dd9a",
  "meta": {
    "profile": [
      "http://hl7.eu/fhir/laboratory/StructureDefinition/Bundle-eu-lab"
    ]
  },
  "identifier": {
    "assigner": {
      "display": "HL7 Europe"
    },
    "system": "urn:oid:2.16.840.1.113883.2.51.999",
    "value": "8cd58fee-b211-4d42-97ac-bc81428ae5eb"
  },
  "entry": [
    {
      "fullUrl": "urn:uuid:0273a424-29a5-46f5-8ef1-b8c842bca26a",
      "resource": {
        "resourceType": "Composition",
        "id": "0273a424-29a5-46f5-8ef1-b8c842bca26a",
        "meta": {
          "profile": [
            "http://hl7.eu/fhir/laboratory/StructureDefinition/Composition-eu-lab"
          ]
        },
        "identifier": {
          "assigner": {
            "display": "HL7 Europe"
          },
          "system": "urn:oid:2.16.840.1.113883.2.51.999",
          "value": "bf3200c8-71cb-4932-bfa0-ba4d7812e934"
        },
        "author": [
          {
            "reference": "urn:uuid:a39333b4-ae30-4e4f-acbe-cc05763af7c5"
          }
        ],
        "category": [
          {
            "coding": [
              {
                "code": "26436-6",
                "system": "http://loinc.org",
                "display": "Laboratory studies (set)"
              }
            ]
          }
        ],
        "type": {
          "coding": [
            {
              "code": "11502-2",
              "system": "http://loinc.org",
              "display": "Laboratory report"
            }
          ],
          "text": "Laboratory Report"
        },
        "section": [
          {
            "code": {
              "coding": [
                {
                  "code": "26436-6",
                  "system": "http://loinc.org",
                  "display": "Laboratory studies (set)"
                }
              ],
              "text": "Laboratory studies"
            },
            "section": [
              {
                "code": {
                  "coding": [
                    {
                      "code": "$18719-5",
                      "system": "http://loinc.org",
                      "display": "Chemistry studies (set)"
                    }
                  ],
                  "text": "Chemistry"
                },
                "entry": [
                  {
                    "reference": "urn:uuid:c1d9864c-c538-44d2-b3f9-b29d5c6fad2e"
                  },
                  {
                    "reference": "urn:uuid:77282670-e3aa-469c-bce8-64f6071aa035"
                  },
                  {
                    "reference": "urn:uuid:199fbba3-75bf-4c38-b789-d817f626335e"
                  },
                  {
                    "reference": "urn:uuid:99186d06-1366-415c-ab2d-aa15ce619d0b"
                  },
                  {
                    "reference": "urn:uuid:b46cd5a4-3625-4714-8eba-8092ba0b96b5"
                  },
                  {
                    "reference": "urn:uuid:c76ab6f3-086a-4fa5-acc3-312de2ac3536"
                  },
                  {
                    "reference": "urn:uuid:33bc7857-0281-471b-ad7f-d8bc5aa098c7"
                  },
                  {
                    "reference": "urn:uuid:2a3c0600-4bb0-4b9f-a6ba-6e3c5aeb022c"
                  },
                  {
                    "reference": "urn:uuid:2bebf2ea-320a-4ab5-a7be-71f8db9c0b02"
                  }
                ],
                "text": {
                  "status": "generated",
                  "div": "<div xmlns=\"http://www.w3.org/1999/xhtml\"><h3>Chemistry</h3><table class=\"hl7__eu__lab__report\"><thead><tr><th>Test</th><th>31-MAR-2016</th><th>Reference&#xA0;Range</th><th>Unit</th></tr></thead><tbody><tr><td>Glucose [Mass/volume] in Serum or Plasma</td><td>99.3</td><td>70 - 140</td><td>mg/dL</td></tr><tr><td>Urea nitrogen [Mass/volume] in Serum or Plasma</td><td>8.0</td><td>7 - 50</td><td>mg/dL</td></tr><tr><td>Creatinine [Mass/volume] in Serum or Plasma</td><td><strong>1.7 H</strong></td><td>0.6 - 1.1</td><td>mg/dL</td></tr><tr><td>Calcium [Mass/volume] in Serum or Plasma</td><td>9.0</td><td>8.5 - 10.5</td><td>mg/dL</td></tr><tr><td>Sodium [Moles/volume] in Serum or Plasma</td><td>141.4</td><td>135 - 145</td><td>mmol/L</td></tr><tr><td>Potassium [Moles/volume] in Serum or Plasma</td><td>3.9</td><td>3.5 - 5.1</td><td>mmol/L</td></tr><tr><td>Chloride [Moles/volume] in Serum or Plasma</td><td><strong>109.3 H</strong></td><td>98 - 108</td><td>mmol/L</td></tr><tr><td>Carbon dioxide, total [Moles/volume] in Serum or Plasma</td><td>22.6</td><td>22 - 32</td><td>mmol/L</td></tr><tr><td>Ketones [Presence] in Urine by Test strip</td><td>Urine ketone test = trace</td><td></td><td></td></tr></tbody></table></div>"
                },
                "title": "Chemistry"
              },
              {
                "code": {
                  "coding": [
                    {
                      "code": "$18729-4",
                      "system": "http://loinc.org",
                      "display": "Urinalysis studies (set)"
                    }
                  ],
                  "text": "Urinalysis"
                },
                "entry": [
                  {
                    "reference": "urn:uuid:f0f99572-680b-4324-b8f6-5f7b105de1d2"
                  },
                  {
                    "reference": "urn:uuid:e7491cfa-84d8-4caa-b236-0c8389691b95"
                  },
                  {
                    "reference": "urn:uuid:9e1c612a-01ea-40f2-a234-23df8ba9f984"
                  },
                  {
                    "reference": "urn:uuid:6975c230-6019-410b-af44-be1ed7c0f870"
                  },
                  {
                    "reference": "urn:uuid:fa4cba23-ead3-4256-99d6-e558d8360514"
                  },
                  {
                    "reference": "urn:uuid:7e1b45aa-b3ed-4e15-9df7-cf3292e1e7bb"
                  },
                  {
                    "reference": "urn:uuid:15bfb589-fafb-45a3-950b-e6bd27e2d0e4"
                  },
                  {
                    "reference": "urn:uuid:f61fa66d-0aab-4af2-88cc-628841564505"
                  },
                  {
                    "reference": "urn:uuid:43eab1fc-7824-4c9a-b8a0-87e818bccb3c"
                  },
                  {
                    "reference": "urn:uuid:c08ddf2f-7d7d-415f-9051-ef0a02b9fb52"
                  },
                  {
                    "reference": "urn:uuid:4c2d2a73-3c26-4fe1-b757-3395d76cd36a"
                  },
                  {
                    "reference": "urn:uuid:dcc4c428-d1a2-46b7-8654-e704996e53a4"
                  }
                ],
                "text": {
                  "status": "generated",
                  "div": "<div xmlns=\"http://www.w3.org/1999/xhtml\"><h3>Urinalysis</h3><table class=\"hl7__eu__lab__report\"><thead><tr><th>Test</th><th>31-MAR-2016</th><th>Reference&#xA0;Range</th><th>Unit</th></tr></thead><tbody><tr><td>Glucose [Mass/volume] in Urine by Test strip</td><td><strong>1.7 H</strong></td><td>0.8 - 0</td><td>mg/dL</td></tr><tr><td>Glucose [Presence] in Urine by Test strip</td><td>++</td><td></td><td></td></tr><tr><td>Bilirubin.total [Mass/volume] in Urine by Test strip</td><td>0.8</td><td>0 - 1</td><td>mg/dL</td></tr><tr><td>Bilirubin.total [Presence] in Urine by Test strip</td><td>Finding of bilirubin in urine</td><td></td><td></td></tr><tr><td>Ketones [Mass/volume] in Urine by Test strip</td><td>12.0</td><td>0 - 20</td><td>mg/dL</td></tr><tr><td>Specific gravity of Urine by Test strip</td><td><strong>1.0 L</strong></td><td>1.01 - 1.03</td><td>{nominal}</td></tr><tr><td>pH of Urine by Test strip</td><td>5.9</td><td>4.6 - 7</td><td>pH</td></tr><tr><td>Protein [Mass/volume] in Urine by Test strip</td><td><strong>107.7 H</strong></td><td>0 - 15</td><td>mg/dL</td></tr><tr><td>Protein [Presence] in Urine by Test strip</td><td>Urine protein test = +</td><td></td><td></td></tr><tr><td>Nitrite [Presence] in Urine by Test strip</td><td>Urine nitrite negative</td><td></td><td></td></tr><tr><td>Hemoglobin [Presence] in Urine by Test strip</td><td>Urine blood test = negative</td><td></td><td></td></tr><tr><td>Leukocyte esterase [Presence] in Urine by Test strip</td><td>Urine leukocyte test negative</td><td></td><td></td></tr></tbody></table></div>"
                },
                "title": "Urinalysis"
              },
              {
                "code": {
                  "coding": [
                    {
                      "code": "$LP7846-1",
                      "system": "http://loinc.org",
                      "display": "Specimen information"
                    }
                  ],
                  "text": "Specimen information"
                },
                "entry": [
                  {
                    "reference": "urn:uuid:32f3f072-73ef-41b7-be59-d33700ff56bf"
                  },
                  {
                    "reference": "urn:uuid:0df4d6ab-1096-468a-922f-7c7fcc097df0"
                  },
                  {
                    "reference": "urn:uuid:0b3fe735-7e21-4500-864f-f569e31f0f72"
                  },
                  {
                    "reference": "urn:uuid:20c8b863-e46d-4699-bd56-334f3474b45f"
                  }
                ],
                "text": {
                  "status": "generated",
                  "div": "<div xmlns=\"http://www.w3.org/1999/xhtml\"><h3>Specimen information</h3><table class=\"hl7__eu__lab__report\"><thead><tr><th>Test</th><th>31-MAR-2016</th><th>Specimen</th><th></th></tr></thead><tbody><tr><td>Appearance of Urine</td><td>Cloudy urine</td><td>Urine</td><td></td></tr><tr><td>Odor of Urine</td><td>Urine smell ammoniacal</td><td>Urine</td><td></td></tr><tr><td>Clarity of Urine</td><td>Translucent</td><td>Urine</td><td></td></tr><tr><td>Color of Urine</td><td>Brown color</td><td>Urine</td><td></td></tr></tbody></table></div>"
                },
                "title": "Specimen information"
              }
            ],
            "title": "Laboratory Report"
          },
          {
            "text": {
              "status": "generated",
              "div": "<div xmlns=\"http://www.w3.org/1999/xhtml\"><h3>Annotation</h3><table class=\"hl7__eu__lab__report\"><tr><th>Conclusion and Recommendations based on this report and previous findings known to us</th></tr><tr><td>The patient shows elevated serum creatinine, suggesting impaired renal function, and mild hyperchloremia. Urinalysis reveals proteinuria, glucosuria, low specific gravity, and abnormal urine appearance (cloudy, brown, ammoniacal), but no hematuria, nitrites, or leukocytes. These findings are consistent with possible chronic kidney disease and renal tubular dysfunction; urinary tract infection is less likely. Further nephrological evaluation is recommended.</td></tr></table></div>"
            },
            "code": {
              "coding": [
                {
                  "system": "http://loinc.org",
                  "code": "48767-8",
                  "display": "Annotation comment"
                }
              ]
            },
            "title": "Annotation comment"
          }
        ],
        "status": "final",
        "subject": {
          "reference": "urn:uuid:d7402f53-ed33-46c6-a284-ec7edd454cce",
          "display": "Marthe Gallet"
        },
        "date": "2016-03-31T21:05:43Z",
        "title": "Laboratory Report",
        "confidentiality": "N"
      }
    },
    {
      "fullUrl": "urn:uuid:e223e310-80d1-43b7-bdf5-964675ed04aa",
      "resource": {
        "resourceType": "DiagnosticReport",
        "id": "e223e310-80d1-43b7-bdf5-964675ed04aa",
        "meta": {
          "profile": [
            "http://hl7.eu/fhir/laboratory/StructureDefinition/DiagnosticReport-eu-lab"
          ]
        },
        "identifier": [
          {
            "assigner": {
              "display": "HL7 Europe"
            },
            "system": "urn:oid:2.16.840.1.113883.2.51.999",
            "value": "4f616c3e-6b61-4c69-9de7-33d31f43b76d"
          }
        ],
        "extension": [
          {
            "url": "http://hl7.org/fhir/5.0/StructureDefinition/extension-DiagnosticReport.composition",
            "valueReference": {
              "reference": "urn:uuid:bf3200c8-71cb-4932-bfa0-ba4d7812e934"
            }
          }
        ],
        "category": [
          {
            "coding": [
              {
                "code": "26436-6",
                "system": "http://loinc.org",
                "display": "Laboratory studies (set)"
              }
            ]
          }
        ],
        "specimen": [
          {
            "reference": "urn:uuid:5d0f0fc0-3fbc-4c79-ba50-a095d599d782"
          },
          {
            "reference": "urn:uuid:bfa9be82-a5cc-48b0-bd27-f9e416c6dcab"
          }
        ],
        "result": [
          {
            "reference": "urn:uuid:c1d9864c-c538-44d2-b3f9-b29d5c6fad2e"
          },
          {
            "reference": "urn:uuid:77282670-e3aa-469c-bce8-64f6071aa035"
          },
          {
            "reference": "urn:uuid:199fbba3-75bf-4c38-b789-d817f626335e"
          },
          {
            "reference": "urn:uuid:99186d06-1366-415c-ab2d-aa15ce619d0b"
          },
          {
            "reference": "urn:uuid:b46cd5a4-3625-4714-8eba-8092ba0b96b5"
          },
          {
            "reference": "urn:uuid:c76ab6f3-086a-4fa5-acc3-312de2ac3536"
          },
          {
            "reference": "urn:uuid:33bc7857-0281-471b-ad7f-d8bc5aa098c7"
          },
          {
            "reference": "urn:uuid:2a3c0600-4bb0-4b9f-a6ba-6e3c5aeb022c"
          },
          {
            "reference": "urn:uuid:32f3f072-73ef-41b7-be59-d33700ff56bf"
          },
          {
            "reference": "urn:uuid:0df4d6ab-1096-468a-922f-7c7fcc097df0"
          },
          {
            "reference": "urn:uuid:0b3fe735-7e21-4500-864f-f569e31f0f72"
          },
          {
            "reference": "urn:uuid:20c8b863-e46d-4699-bd56-334f3474b45f"
          },
          {
            "reference": "urn:uuid:f0f99572-680b-4324-b8f6-5f7b105de1d2"
          },
          {
            "reference": "urn:uuid:e7491cfa-84d8-4caa-b236-0c8389691b95"
          },
          {
            "reference": "urn:uuid:9e1c612a-01ea-40f2-a234-23df8ba9f984"
          },
          {
            "reference": "urn:uuid:6975c230-6019-410b-af44-be1ed7c0f870"
          },
          {
            "reference": "urn:uuid:fa4cba23-ead3-4256-99d6-e558d8360514"
          },
          {
            "reference": "urn:uuid:2bebf2ea-320a-4ab5-a7be-71f8db9c0b02"
          },
          {
            "reference": "urn:uuid:7e1b45aa-b3ed-4e15-9df7-cf3292e1e7bb"
          },
          {
            "reference": "urn:uuid:15bfb589-fafb-45a3-950b-e6bd27e2d0e4"
          },
          {
            "reference": "urn:uuid:f61fa66d-0aab-4af2-88cc-628841564505"
          },
          {
            "reference": "urn:uuid:43eab1fc-7824-4c9a-b8a0-87e818bccb3c"
          },
          {
            "reference": "urn:uuid:c08ddf2f-7d7d-415f-9051-ef0a02b9fb52"
          },
          {
            "reference": "urn:uuid:4c2d2a73-3c26-4fe1-b757-3395d76cd36a"
          },
          {
            "reference": "urn:uuid:dcc4c428-d1a2-46b7-8654-e704996e53a4"
          }
        ],
        "status": "registered",
        "code": {
          "coding": [
            {
              "code": "11502-2",
              "system": "http://loinc.org",
              "display": "Laboratory report"
            }
          ]
        },
        "subject": {
          "reference": "urn:uuid:d7402f53-ed33-46c6-a284-ec7edd454cce",
          "display": "Marthe Gallet"
        }
      }
    },
    {
      "fullUrl": "urn:uuid:d7402f53-ed33-46c6-a284-ec7edd454cce",
      "resource": {
        "resourceType": "Patient",
        "id": "d7402f53-ed33-46c6-a284-ec7edd454cce",
        "meta": {
          "security": [
            {
              "system": "http://terminology.hl7.org/CodeSystem/v3-ActReason",
              "code": "HTEST"
            },
            {
              "system": "http://terminology.hl7.org/CodeSystem/v3-ActReason",
              "code": "TRAIN"
            }
          ],
          "tag": [
            {
              "system": "https://synderai.net/fhir/CodeSystem/tags",
              "code": "synthetic",
              "display": "SYNDERAI Synthetic data"
            }
          ],
          "profile": [
            "http://hl7.eu/fhir/base/StructureDefinition/patient-eu-core"
          ]
        },
        "identifier": [
          {
            "type": {
              "coding": [
                {
                  "code": "PT",
                  "system": "http://terminology.hl7.org/CodeSystem/v2-0203"
                }
              ]
            },
            "system": "http://ec.europa.eu/identifier/eci",
            "value": "9444-947487-6"
          },
          {
            "type": {
              "coding": [
                {
                  "code": "MR",
                  "system": "http://terminology.hl7.org/CodeSystem/v2-0203"
                }
              ]
            },
            "system": "http://local.setting.eu/identifier",
            "value": "854228d5-a476-2d9c-a1d7-c3202375a617"
          }
        ],
        "name": [
          {
            "family": "Gallet"
          },
          {
            "given": [
              "Marthe"
            ]
          },
          {
            "text": "Marthe Gallet"
          }
        ],
        "address": [
          {
            "line": [
              "3, rue Emmanuel Goncalves"
            ],
            "use": "home",
            "type": "physical",
            "postalCode": "49490",
            "city": "Briand",
            "country": "France"
          }
        ],
        "telecom": [
          {
            "system": "phone",
            "value": "+33 1 70 99 82 74"
          }
        ],
        "extension": [
          {
            "url": "http://hl7.org/fhir/StructureDefinition/patient-nationality",
            "valueCodeableConcept": {
              "coding": [
                {
                  "code": "FR",
                  "system": "http://hl7.org/fhir/ValueSet/country"
                }
              ]
            }
          }
        ],
        "text": {
          "status": "generated",
          "div": "<div xmlns=\"http://www.w3.org/1999/xhtml\"><table class=\"hl7__ips\"><tr><td>Marthe Gallet</td><td>female</td><td>29-Oct-1950</td></tr></table></div>"
        },
        "gender": "female",
        "birthDate": "1950-10-29"
      }
    },
    {
      "fullUrl": "urn:uuid:f53dda02-19b5-4cc8-b215-1d88e2abe2ea",
      "resource": {
        "resourceType": "ServiceRequest",
        "id": "f53dda02-19b5-4cc8-b215-1d88e2abe2ea",
        "meta": {
          "profile": [
            "http://hl7.eu/fhir/laboratory/StructureDefinition/ServiceRequest-eu-lab"
          ]
        },
        "identifier": [
          {
            "system": "http://example.org",
            "value": "2a5b9a2e-ec44-4480-bbd4-84e80b18b89f"
          }
        ],
        "specimen": [
          {
            "reference": "urn:uuid:5d0f0fc0-3fbc-4c79-ba50-a095d599d782"
          },
          {
            "reference": "urn:uuid:bfa9be82-a5cc-48b0-bd27-f9e416c6dcab"
          }
        ],
        "reasonCode": [
          {
            "coding": [
              {
                "code": "431856006",
                "system": "http://snomed.info/sct",
                "display": "Chronic kidney disease stage 2"
              }
            ]
          },
          {
            "coding": [
              {
                "code": "90781000119102",
                "system": "http://snomed.info/sct",
                "display": "Microalbuminuria due to type 2 diabetes mellitus"
              }
            ]
          },
          {
            "coding": [
              {
                "code": "127013003",
                "system": "http://snomed.info/sct",
                "display": "Disorder of kidney due to diabetes mellitus"
              }
            ]
          },
          {
            "coding": [
              {
                "code": "431855005",
                "system": "http://snomed.info/sct",
                "display": "Chronic kidney disease stage 1"
              }
            ]
          },
          {
            "coding": [
              {
                "code": "55822004",
                "system": "http://snomed.info/sct",
                "display": "Hyperlipidemia"
              }
            ]
          },
          {
            "coding": [
              {
                "code": "59621000",
                "system": "http://snomed.info/sct",
                "display": "Essential hypertension"
              }
            ]
          }
        ],
        "status": "active",
        "intent": "order",
        "code": {
          "coding": [
            {
              "code": "108252007",
              "system": "http://snomed.info/sct",
              "display": "Laboratory procedure"
            }
          ]
        },
        "subject": {
          "reference": "urn:uuid:d7402f53-ed33-46c6-a284-ec7edd454cce",
          "display": "Marthe Gallet"
        },
        "requester": {
          "reference": "urn:uuid:12f60d27-e443-4e04-bbcb-76da35773714"
        }
      }
    },
    {
      "fullUrl": "urn:uuid:12f60d27-e443-4e04-bbcb-76da35773714",
      "resource": {
        "resourceType": "PractitionerRole",
        "id": "12f60d27-e443-4e04-bbcb-76da35773714",
        "meta": {
          "profile": [
            "http://hl7.eu/fhir/base/StructureDefinition/practitionerRole-eu"
          ]
        },
        "text": {
          "status": "generated",
          "div": "<div xmlns=\"http://www.w3.org/1999/xhtml\">Provider Role Id: 12f60d27-e443-4e04-bbcb-76da35773714</div>"
        },
        "organization": {
          "reference": "urn:uuid:bb1d69b8-47cd-40cf-bb31-7d80ac0313d5"
        }
      }
    },
    {
      "fullUrl": "urn:uuid:bb1d69b8-47cd-40cf-bb31-7d80ac0313d5",
      "resource": {
        "resourceType": "Organization",
        "id": "bb1d69b8-47cd-40cf-bb31-7d80ac0313d5",
        "meta": {
          "profile": [
            "http://hl7.eu/fhir/base/StructureDefinition/organization-eu"
          ]
        },
        "identifier": [
          {
            "assigner": {
              "display": "HL7 Europe"
            },
            "system": "urn:oid:2.16.840.1.113883.2.51.999",
            "value": "892c8d4f-1642-454a-b82a-874e9e13217b"
          }
        ],
        "address": [
          {
            "line": [
              "Rue Larrey nan"
            ],
            "city": "Angers",
            "postalCode": "49100",
            "country": "France"
          }
        ],
        "text": {
          "status": "generated",
          "div": "<div xmlns=\"http://www.w3.org/1999/xhtml\">Provider Organization: CHU d&#039;Angers</div>"
        },
        "name": "CHU d&#039;Angers"
      }
    },
    {
      "fullUrl": "urn:uuid:5d0f0fc0-3fbc-4c79-ba50-a095d599d782",
      "resource": {
        "resourceType": "Specimen",
        "id": "5d0f0fc0-3fbc-4c79-ba50-a095d599d782",
        "meta": {
          "profile": [
            "http://hl7.eu/fhir/laboratory/StructureDefinition/Specimen-eu-lab"
          ]
        },
        "collection": {
          "collectedDateTime": "2016-03-31"
        },
        "text": {
          "status": "generated",
          "div": "<div xmlns=\"http://www.w3.org/1999/xhtml\"><table class=\"hl7__eu__lab__report\"><tr><th>Specimen</th><th>Collection Date</th></tr><tr><td>Acellular blood (serum or plasma) specimen</td><td><span class=\"nb\">31-Mar-2016</span></td></tr></table></div>"
        },
        "type": {
          "coding": [
            {
              "code": "122592007",
              "system": "http://snomed.info/sct",
              "display": "Acellular blood (serum or plasma) specimen"
            }
          ]
        }
      }
    },
    {
      "fullUrl": "urn:uuid:bfa9be82-a5cc-48b0-bd27-f9e416c6dcab",
      "resource": {
        "resourceType": "Specimen",
        "id": "bfa9be82-a5cc-48b0-bd27-f9e416c6dcab",
        "meta": {
          "profile": [
            "http://hl7.eu/fhir/laboratory/StructureDefinition/Specimen-eu-lab"
          ]
        },
        "collection": {
          "collectedDateTime": "2016-03-31"
        },
        "text": {
          "status": "generated",
          "div": "<div xmlns=\"http://www.w3.org/1999/xhtml\"><table class=\"hl7__eu__lab__report\"><tr><th>Specimen</th><th>Collection Date</th></tr><tr><td>Urine specimen</td><td><span class=\"nb\">31-Mar-2016</span></td></tr></table></div>"
        },
        "type": {
          "coding": [
            {
              "code": "122575003",
              "system": "http://snomed.info/sct",
              "display": "Urine specimen"
            }
          ]
        }
      }
    },
    {
      "fullUrl": "urn:uuid:c1d9864c-c538-44d2-b3f9-b29d5c6fad2e",
      "resource": {
        "resourceType": "Observation",
        "id": "c1d9864c-c538-44d2-b3f9-b29d5c6fad2e",
        "meta": {
          "profile": [
            "http://hl7.eu/fhir/laboratory/StructureDefinition/Observation-resultslab-eu-lab"
          ]
        },
        "performer": [
          {
            "display": "The Central European Lab"
          }
        ],
        "category": [
          {
            "coding": [
              {
                "system": "http://terminology.hl7.org/CodeSystem/observation-category",
                "code": "laboratory"
              }
            ]
          }
        ],
        "code": {
          "coding": [
            {
              "code": "2345-7",
              "system": "http://loinc.org",
              "display": "Glucose [Mass/volume] in Serum or Plasma"
            }
          ],
          "text": "Glucose [Mass/volume] in Serum or Plasma"
        },
        "valueQuantity": {
          "system": "http://unitsofmeasure.org",
          "value": 99.3,
          "unit": "mg/dL",
          "code": "mg/dL"
        },
        "referenceRange": [
          {
            "low": {
              "value": 70,
              "code": "mg/dL",
              "system": "http://unitsofmeasure.org"
            }
          },
          {
            "high": {
              "value": 140,
              "code": "mg/dL",
              "system": "http://unitsofmeasure.org"
            }
          }
        ],
        "text": {
          "status": "generated",
          "div": "<div xmlns=\"http://www.w3.org/1999/xhtml\"><table class=\"hl7__eu__lab__report\"><tr><th>Test</th><th>31-Mar-2016</th><th>Reference&#xA0;Range</th><th>Unit</th></tr><tr><td>Glucose [Mass/volume] in Serum or Plasma</td><td>99.3</td><td>70 - 140</td><td></td><td>mg/dL</td></tr></table></div>"
        },
        "status": "final",
        "subject": {
          "reference": "urn:uuid:d7402f53-ed33-46c6-a284-ec7edd454cce",
          "display": "Marthe Gallet"
        },
        "effectiveDateTime": "2016-03-31T19:05:43Z",
        "specimen": {
          "reference": "urn:uuid:5d0f0fc0-3fbc-4c79-ba50-a095d599d782"
        }
      }
    },
    {
      "fullUrl": "urn:uuid:77282670-e3aa-469c-bce8-64f6071aa035",
      "resource": {
        "resourceType": "Observation",
        "id": "77282670-e3aa-469c-bce8-64f6071aa035",
        "meta": {
          "profile": [
            "http://hl7.eu/fhir/laboratory/StructureDefinition/Observation-resultslab-eu-lab"
          ]
        },
        "performer": [
          {
            "display": "The Central European Lab"
          }
        ],
        "category": [
          {
            "coding": [
              {
                "system": "http://terminology.hl7.org/CodeSystem/observation-category",
                "code": "laboratory"
              }
            ]
          }
        ],
        "code": {
          "coding": [
            {
              "code": "3094-0",
              "system": "http://loinc.org",
              "display": "Urea nitrogen [Mass/volume] in Serum or Plasma"
            }
          ],
          "text": "Urea nitrogen [Mass/volume] in Serum or Plasma"
        },
        "valueQuantity": {
          "system": "http://unitsofmeasure.org",
          "value": 8,
          "unit": "mg/dL",
          "code": "mg/dL"
        },
        "referenceRange": [
          {
            "low": {
              "value": 7,
              "code": "mg/dL",
              "system": "http://unitsofmeasure.org"
            }
          },
          {
            "high": {
              "value": 50,
              "code": "mg/dL",
              "system": "http://unitsofmeasure.org"
            }
          }
        ],
        "text": {
          "status": "generated",
          "div": "<div xmlns=\"http://www.w3.org/1999/xhtml\"><table class=\"hl7__eu__lab__report\"><tr><th>Test</th><th>31-Mar-2016</th><th>Reference&#xA0;Range</th><th>Unit</th></tr><tr><td>Urea nitrogen [Mass/volume] in Serum or Plasma</td><td>8.0</td><td>7 - 50</td><td></td><td>mg/dL</td></tr></table></div>"
        },
        "status": "final",
        "subject": {
          "reference": "urn:uuid:d7402f53-ed33-46c6-a284-ec7edd454cce",
          "display": "Marthe Gallet"
        },
        "effectiveDateTime": "2016-03-31T19:05:43Z",
        "specimen": {
          "reference": "urn:uuid:5d0f0fc0-3fbc-4c79-ba50-a095d599d782"
        }
      }
    },
    {
      "fullUrl": "urn:uuid:199fbba3-75bf-4c38-b789-d817f626335e",
      "resource": {
        "resourceType": "Observation",
        "id": "199fbba3-75bf-4c38-b789-d817f626335e",
        "meta": {
          "profile": [
            "http://hl7.eu/fhir/laboratory/StructureDefinition/Observation-resultslab-eu-lab"
          ]
        },
        "performer": [
          {
            "display": "The Central European Lab"
          }
        ],
        "category": [
          {
            "coding": [
              {
                "system": "http://terminology.hl7.org/CodeSystem/observation-category",
                "code": "laboratory"
              }
            ]
          }
        ],
        "code": {
          "coding": [
            {
              "code": "2160-0",
              "system": "http://loinc.org",
              "display": "Creatinine [Mass/volume] in Serum or Plasma"
            }
          ],
          "text": "Creatinine [Mass/volume] in Serum or Plasma"
        },
        "valueQuantity": {
          "system": "http://unitsofmeasure.org",
          "value": 1.7,
          "unit": "mg/dL",
          "code": "mg/dL"
        },
        "referenceRange": [
          {
            "low": {
              "value": 0.6,
              "code": "mg/dL",
              "system": "http://unitsofmeasure.org"
            }
          },
          {
            "high": {
              "value": 1.1,
              "code": "mg/dL",
              "system": "http://unitsofmeasure.org"
            }
          }
        ],
        "interpretation": [
          {
            "coding": [
              {
                "code": "H",
                "system": "http://terminology.hl7.org/CodeSystem/v3-ObservationInterpretation",
                "display": "High"
              }
            ]
          }
        ],
        "text": {
          "status": "generated",
          "div": "<div xmlns=\"http://www.w3.org/1999/xhtml\"><table class=\"hl7__eu__lab__report\"><tr><th>Test</th><th>31-Mar-2016</th><th>Reference&#xA0;Range</th><th>Unit</th></tr><tr><td>Creatinine [Mass/volume] in Serum or Plasma</td><td>1.7</td><td>0.6 - 1.1</td><td>H</td><td>mg/dL</td></tr></table></div>"
        },
        "status": "final",
        "subject": {
          "reference": "urn:uuid:d7402f53-ed33-46c6-a284-ec7edd454cce",
          "display": "Marthe Gallet"
        },
        "effectiveDateTime": "2016-03-31T19:05:43Z",
        "specimen": {
          "reference": "urn:uuid:5d0f0fc0-3fbc-4c79-ba50-a095d599d782"
        }
      }
    },
    {
      "fullUrl": "urn:uuid:99186d06-1366-415c-ab2d-aa15ce619d0b",
      "resource": {
        "resourceType": "Observation",
        "id": "99186d06-1366-415c-ab2d-aa15ce619d0b",
        "meta": {
          "profile": [
            "http://hl7.eu/fhir/laboratory/StructureDefinition/Observation-resultslab-eu-lab"
          ]
        },
        "performer": [
          {
            "display": "The Central European Lab"
          }
        ],
        "category": [
          {
            "coding": [
              {
                "system": "http://terminology.hl7.org/CodeSystem/observation-category",
                "code": "laboratory"
              }
            ]
          }
        ],
        "code": {
          "coding": [
            {
              "code": "17861-6",
              "system": "http://loinc.org",
              "display": "Calcium [Mass/volume] in Serum or Plasma"
            }
          ],
          "text": "Calcium [Mass/volume] in Serum or Plasma"
        },
        "valueQuantity": {
          "system": "http://unitsofmeasure.org",
          "value": 9,
          "unit": "mg/dL",
          "code": "mg/dL"
        },
        "referenceRange": [
          {
            "low": {
              "value": 8.5,
              "code": "mg/dL",
              "system": "http://unitsofmeasure.org"
            }
          },
          {
            "high": {
              "value": 10.5,
              "code": "mg/dL",
              "system": "http://unitsofmeasure.org"
            }
          }
        ],
        "text": {
          "status": "generated",
          "div": "<div xmlns=\"http://www.w3.org/1999/xhtml\"><table class=\"hl7__eu__lab__report\"><tr><th>Test</th><th>31-Mar-2016</th><th>Reference&#xA0;Range</th><th>Unit</th></tr><tr><td>Calcium [Mass/volume] in Serum or Plasma</td><td>9.0</td><td>8.5 - 10.5</td><td></td><td>mg/dL</td></tr></table></div>"
        },
        "status": "final",
        "subject": {
          "reference": "urn:uuid:d7402f53-ed33-46c6-a284-ec7edd454cce",
          "display": "Marthe Gallet"
        },
        "effectiveDateTime": "2016-03-31T19:05:43Z",
        "specimen": {
          "reference": "urn:uuid:5d0f0fc0-3fbc-4c79-ba50-a095d599d782"
        }
      }
    },
    {
      "fullUrl": "urn:uuid:b46cd5a4-3625-4714-8eba-8092ba0b96b5",
      "resource": {
        "resourceType": "Observation",
        "id": "b46cd5a4-3625-4714-8eba-8092ba0b96b5",
        "meta": {
          "profile": [
            "http://hl7.eu/fhir/laboratory/StructureDefinition/Observation-resultslab-eu-lab"
          ]
        },
        "performer": [
          {
            "display": "The Central European Lab"
          }
        ],
        "category": [
          {
            "coding": [
              {
                "system": "http://terminology.hl7.org/CodeSystem/observation-category",
                "code": "laboratory"
              }
            ]
          }
        ],
        "code": {
          "coding": [
            {
              "code": "2951-2",
              "system": "http://loinc.org",
              "display": "Sodium [Moles/volume] in Serum or Plasma"
            }
          ],
          "text": "Sodium [Moles/volume] in Serum or Plasma"
        },
        "valueQuantity": {
          "system": "http://unitsofmeasure.org",
          "value": 141.4,
          "unit": "mmol/L",
          "code": "mmol/L"
        },
        "referenceRange": [
          {
            "low": {
              "value": 135,
              "code": "mmol/L",
              "system": "http://unitsofmeasure.org"
            }
          },
          {
            "high": {
              "value": 145,
              "code": "mmol/L",
              "system": "http://unitsofmeasure.org"
            }
          }
        ],
        "text": {
          "status": "generated",
          "div": "<div xmlns=\"http://www.w3.org/1999/xhtml\"><table class=\"hl7__eu__lab__report\"><tr><th>Test</th><th>31-Mar-2016</th><th>Reference&#xA0;Range</th><th>Unit</th></tr><tr><td>Sodium [Moles/volume] in Serum or Plasma</td><td>141.4</td><td>135 - 145</td><td></td><td>mmol/L</td></tr></table></div>"
        },
        "status": "final",
        "subject": {
          "reference": "urn:uuid:d7402f53-ed33-46c6-a284-ec7edd454cce",
          "display": "Marthe Gallet"
        },
        "effectiveDateTime": "2016-03-31T19:05:43Z",
        "specimen": {
          "reference": "urn:uuid:5d0f0fc0-3fbc-4c79-ba50-a095d599d782"
        }
      }
    },
    {
      "fullUrl": "urn:uuid:c76ab6f3-086a-4fa5-acc3-312de2ac3536",
      "resource": {
        "resourceType": "Observation",
        "id": "c76ab6f3-086a-4fa5-acc3-312de2ac3536",
        "meta": {
          "profile": [
            "http://hl7.eu/fhir/laboratory/StructureDefinition/Observation-resultslab-eu-lab"
          ]
        },
        "performer": [
          {
            "display": "The Central European Lab"
          }
        ],
        "category": [
          {
            "coding": [
              {
                "system": "http://terminology.hl7.org/CodeSystem/observation-category",
                "code": "laboratory"
              }
            ]
          }
        ],
        "code": {
          "coding": [
            {
              "code": "2823-3",
              "system": "http://loinc.org",
              "display": "Potassium [Moles/volume] in Serum or Plasma"
            }
          ],
          "text": "Potassium [Moles/volume] in Serum or Plasma"
        },
        "valueQuantity": {
          "system": "http://unitsofmeasure.org",
          "value": 3.9,
          "unit": "mmol/L",
          "code": "mmol/L"
        },
        "referenceRange": [
          {
            "low": {
              "value": 3.5,
              "code": "mmol/L",
              "system": "http://unitsofmeasure.org"
            }
          },
          {
            "high": {
              "value": 5.1,
              "code": "mmol/L",
              "system": "http://unitsofmeasure.org"
            }
          }
        ],
        "text": {
          "status": "generated",
          "div": "<div xmlns=\"http://www.w3.org/1999/xhtml\"><table class=\"hl7__eu__lab__report\"><tr><th>Test</th><th>31-Mar-2016</th><th>Reference&#xA0;Range</th><th>Unit</th></tr><tr><td>Potassium [Moles/volume] in Serum or Plasma</td><td>3.9</td><td>3.5 - 5.1</td><td></td><td>mmol/L</td></tr></table></div>"
        },
        "status": "final",
        "subject": {
          "reference": "urn:uuid:d7402f53-ed33-46c6-a284-ec7edd454cce",
          "display": "Marthe Gallet"
        },
        "effectiveDateTime": "2016-03-31T19:05:43Z",
        "specimen": {
          "reference": "urn:uuid:5d0f0fc0-3fbc-4c79-ba50-a095d599d782"
        }
      }
    },
    {
      "fullUrl": "urn:uuid:33bc7857-0281-471b-ad7f-d8bc5aa098c7",
      "resource": {
        "resourceType": "Observation",
        "id": "33bc7857-0281-471b-ad7f-d8bc5aa098c7",
        "meta": {
          "profile": [
            "http://hl7.eu/fhir/laboratory/StructureDefinition/Observation-resultslab-eu-lab"
          ]
        },
        "performer": [
          {
            "display": "The Central European Lab"
          }
        ],
        "category": [
          {
            "coding": [
              {
                "system": "http://terminology.hl7.org/CodeSystem/observation-category",
                "code": "laboratory"
              }
            ]
          }
        ],
        "code": {
          "coding": [
            {
              "code": "2075-0",
              "system": "http://loinc.org",
              "display": "Chloride [Moles/volume] in Serum or Plasma"
            }
          ],
          "text": "Chloride [Moles/volume] in Serum or Plasma"
        },
        "valueQuantity": {
          "system": "http://unitsofmeasure.org",
          "value": 109.3,
          "unit": "mmol/L",
          "code": "mmol/L"
        },
        "referenceRange": [
          {
            "low": {
              "value": 98,
              "code": "mmol/L",
              "system": "http://unitsofmeasure.org"
            }
          },
          {
            "high": {
              "value": 108,
              "code": "mmol/L",
              "system": "http://unitsofmeasure.org"
            }
          }
        ],
        "interpretation": [
          {
            "coding": [
              {
                "code": "H",
                "system": "http://terminology.hl7.org/CodeSystem/v3-ObservationInterpretation",
                "display": "High"
              }
            ]
          }
        ],
        "text": {
          "status": "generated",
          "div": "<div xmlns=\"http://www.w3.org/1999/xhtml\"><table class=\"hl7__eu__lab__report\"><tr><th>Test</th><th>31-Mar-2016</th><th>Reference&#xA0;Range</th><th>Unit</th></tr><tr><td>Chloride [Moles/volume] in Serum or Plasma</td><td>109.3</td><td>98 - 108</td><td>H</td><td>mmol/L</td></tr></table></div>"
        },
        "status": "final",
        "subject": {
          "reference": "urn:uuid:d7402f53-ed33-46c6-a284-ec7edd454cce",
          "display": "Marthe Gallet"
        },
        "effectiveDateTime": "2016-03-31T19:05:43Z",
        "specimen": {
          "reference": "urn:uuid:5d0f0fc0-3fbc-4c79-ba50-a095d599d782"
        }
      }
    },
    {
      "fullUrl": "urn:uuid:2a3c0600-4bb0-4b9f-a6ba-6e3c5aeb022c",
      "resource": {
        "resourceType": "Observation",
        "id": "2a3c0600-4bb0-4b9f-a6ba-6e3c5aeb022c",
        "meta": {
          "profile": [
            "http://hl7.eu/fhir/laboratory/StructureDefinition/Observation-resultslab-eu-lab"
          ]
        },
        "performer": [
          {
            "display": "The Central European Lab"
          }
        ],
        "category": [
          {
            "coding": [
              {
                "system": "http://terminology.hl7.org/CodeSystem/observation-category",
                "code": "laboratory"
              }
            ]
          }
        ],
        "code": {
          "coding": [
            {
              "code": "2028-9",
              "system": "http://loinc.org",
              "display": "Carbon dioxide, total [Moles/volume] in Serum or Plasma"
            }
          ],
          "text": "Carbon dioxide, total [Moles/volume] in Serum or Plasma"
        },
        "valueQuantity": {
          "system": "http://unitsofmeasure.org",
          "value": 22.6,
          "unit": "mmol/L",
          "code": "mmol/L"
        },
        "referenceRange": [
          {
            "low": {
              "value": 22,
              "code": "mmol/L",
              "system": "http://unitsofmeasure.org"
            }
          },
          {
            "high": {
              "value": 32,
              "code": "mmol/L",
              "system": "http://unitsofmeasure.org"
            }
          }
        ],
        "text": {
          "status": "generated",
          "div": "<div xmlns=\"http://www.w3.org/1999/xhtml\"><table class=\"hl7__eu__lab__report\"><tr><th>Test</th><th>31-Mar-2016</th><th>Reference&#xA0;Range</th><th>Unit</th></tr><tr><td>Carbon dioxide, total [Moles/volume] in Serum or Plasma</td><td>22.6</td><td>22 - 32</td><td></td><td>mmol/L</td></tr></table></div>"
        },
        "status": "final",
        "subject": {
          "reference": "urn:uuid:d7402f53-ed33-46c6-a284-ec7edd454cce",
          "display": "Marthe Gallet"
        },
        "effectiveDateTime": "2016-03-31T19:05:43Z",
        "specimen": {
          "reference": "urn:uuid:5d0f0fc0-3fbc-4c79-ba50-a095d599d782"
        }
      }
    },
    {
      "fullUrl": "urn:uuid:32f3f072-73ef-41b7-be59-d33700ff56bf",
      "resource": {
        "resourceType": "Observation",
        "id": "32f3f072-73ef-41b7-be59-d33700ff56bf",
        "meta": {
          "profile": [
            "http://hl7.eu/fhir/laboratory/StructureDefinition/Observation-resultslab-eu-lab"
          ]
        },
        "performer": [
          {
            "display": "The Central European Lab"
          }
        ],
        "category": [
          {
            "coding": [
              {
                "system": "http://terminology.hl7.org/CodeSystem/observation-category",
                "code": "laboratory"
              }
            ]
          }
        ],
        "code": {
          "coding": [
            {
              "code": "5767-9",
              "system": "http://loinc.org",
              "display": "Appearance of Urine"
            }
          ],
          "text": "Appearance of Urine"
        },
        "text": {
          "status": "generated",
          "div": "<div xmlns=\"http://www.w3.org/1999/xhtml\"><table class=\"hl7__eu__lab__report\"><tr><th>Test</th><th>31-Mar-2016</th><th>Reference&#xA0;Range</th><th>Unit</th></tr><tr><td>Appearance of Urine</td></tr></table></div>"
        },
        "status": "final",
        "subject": {
          "reference": "urn:uuid:d7402f53-ed33-46c6-a284-ec7edd454cce",
          "display": "Marthe Gallet"
        },
        "effectiveDateTime": "2016-03-31T19:05:43Z",
        "specimen": {
          "reference": "urn:uuid:bfa9be82-a5cc-48b0-bd27-f9e416c6dcab"
        }
      }
    },
    {
      "fullUrl": "urn:uuid:0df4d6ab-1096-468a-922f-7c7fcc097df0",
      "resource": {
        "resourceType": "Observation",
        "id": "0df4d6ab-1096-468a-922f-7c7fcc097df0",
        "meta": {
          "profile": [
            "http://hl7.eu/fhir/laboratory/StructureDefinition/Observation-resultslab-eu-lab"
          ]
        },
        "performer": [
          {
            "display": "The Central European Lab"
          }
        ],
        "category": [
          {
            "coding": [
              {
                "system": "http://terminology.hl7.org/CodeSystem/observation-category",
                "code": "laboratory"
              }
            ]
          }
        ],
        "code": {
          "coding": [
            {
              "code": "34533-0",
              "system": "http://loinc.org",
              "display": "Odor of Urine"
            }
          ],
          "text": "Odor of Urine"
        },
        "text": {
          "status": "generated",
          "div": "<div xmlns=\"http://www.w3.org/1999/xhtml\"><table class=\"hl7__eu__lab__report\"><tr><th>Test</th><th>31-Mar-2016</th><th>Reference&#xA0;Range</th><th>Unit</th></tr><tr><td>Odor of Urine</td></tr></table></div>"
        },
        "status": "final",
        "subject": {
          "reference": "urn:uuid:d7402f53-ed33-46c6-a284-ec7edd454cce",
          "display": "Marthe Gallet"
        },
        "effectiveDateTime": "2016-03-31T19:05:43Z",
        "specimen": {
          "reference": "urn:uuid:bfa9be82-a5cc-48b0-bd27-f9e416c6dcab"
        }
      }
    },
    {
      "fullUrl": "urn:uuid:0b3fe735-7e21-4500-864f-f569e31f0f72",
      "resource": {
        "resourceType": "Observation",
        "id": "0b3fe735-7e21-4500-864f-f569e31f0f72",
        "meta": {
          "profile": [
            "http://hl7.eu/fhir/laboratory/StructureDefinition/Observation-resultslab-eu-lab"
          ]
        },
        "performer": [
          {
            "display": "The Central European Lab"
          }
        ],
        "category": [
          {
            "coding": [
              {
                "system": "http://terminology.hl7.org/CodeSystem/observation-category",
                "code": "laboratory"
              }
            ]
          }
        ],
        "code": {
          "coding": [
            {
              "code": "32167-9",
              "system": "http://loinc.org",
              "display": "Clarity of Urine"
            }
          ],
          "text": "Clarity of Urine"
        },
        "text": {
          "status": "generated",
          "div": "<div xmlns=\"http://www.w3.org/1999/xhtml\"><table class=\"hl7__eu__lab__report\"><tr><th>Test</th><th>31-Mar-2016</th><th>Reference&#xA0;Range</th><th>Unit</th></tr><tr><td>Clarity of Urine</td></tr></table></div>"
        },
        "status": "final",
        "subject": {
          "reference": "urn:uuid:d7402f53-ed33-46c6-a284-ec7edd454cce",
          "display": "Marthe Gallet"
        },
        "effectiveDateTime": "2016-03-31T19:05:43Z",
        "specimen": {
          "reference": "urn:uuid:bfa9be82-a5cc-48b0-bd27-f9e416c6dcab"
        }
      }
    },
    {
      "fullUrl": "urn:uuid:20c8b863-e46d-4699-bd56-334f3474b45f",
      "resource": {
        "resourceType": "Observation",
        "id": "20c8b863-e46d-4699-bd56-334f3474b45f",
        "meta": {
          "profile": [
            "http://hl7.eu/fhir/laboratory/StructureDefinition/Observation-resultslab-eu-lab"
          ]
        },
        "performer": [
          {
            "display": "The Central European Lab"
          }
        ],
        "category": [
          {
            "coding": [
              {
                "system": "http://terminology.hl7.org/CodeSystem/observation-category",
                "code": "laboratory"
              }
            ]
          }
        ],
        "code": {
          "coding": [
            {
              "code": "5778-6",
              "system": "http://loinc.org",
              "display": "Color of Urine"
            }
          ],
          "text": "Color of Urine"
        },
        "text": {
          "status": "generated",
          "div": "<div xmlns=\"http://www.w3.org/1999/xhtml\"><table class=\"hl7__eu__lab__report\"><tr><th>Test</th><th>31-Mar-2016</th><th>Reference&#xA0;Range</th><th>Unit</th></tr><tr><td>Color of Urine</td></tr></table></div>"
        },
        "status": "final",
        "subject": {
          "reference": "urn:uuid:d7402f53-ed33-46c6-a284-ec7edd454cce",
          "display": "Marthe Gallet"
        },
        "effectiveDateTime": "2016-03-31T19:05:43Z",
        "specimen": {
          "reference": "urn:uuid:bfa9be82-a5cc-48b0-bd27-f9e416c6dcab"
        }
      }
    },
    {
      "fullUrl": "urn:uuid:f0f99572-680b-4324-b8f6-5f7b105de1d2",
      "resource": {
        "resourceType": "Observation",
        "id": "f0f99572-680b-4324-b8f6-5f7b105de1d2",
        "meta": {
          "profile": [
            "http://hl7.eu/fhir/laboratory/StructureDefinition/Observation-resultslab-eu-lab"
          ]
        },
        "performer": [
          {
            "display": "The Central European Lab"
          }
        ],
        "category": [
          {
            "coding": [
              {
                "system": "http://terminology.hl7.org/CodeSystem/observation-category",
                "code": "laboratory"
              }
            ]
          }
        ],
        "code": {
          "coding": [
            {
              "code": "5792-7",
              "system": "http://loinc.org",
              "display": "Glucose [Mass/volume] in Urine by Test strip"
            }
          ],
          "text": "Glucose [Mass/volume] in Urine by Test strip"
        },
        "valueQuantity": {
          "system": "http://unitsofmeasure.org",
          "value": 1.7,
          "unit": "mg/dL",
          "code": "mg/dL"
        },
        "referenceRange": [
          {
            "low": {
              "value": 0.8,
              "code": "mg/dL",
              "system": "http://unitsofmeasure.org"
            }
          },
          {
            "high": {
              "value": 0,
              "code": "mg/dL",
              "system": "http://unitsofmeasure.org"
            }
          }
        ],
        "interpretation": [
          {
            "coding": [
              {
                "code": "H",
                "system": "http://terminology.hl7.org/CodeSystem/v3-ObservationInterpretation",
                "display": "High"
              }
            ]
          }
        ],
        "text": {
          "status": "generated",
          "div": "<div xmlns=\"http://www.w3.org/1999/xhtml\"><table class=\"hl7__eu__lab__report\"><tr><th>Test</th><th>31-Mar-2016</th><th>Reference&#xA0;Range</th><th>Unit</th></tr><tr><td>Glucose [Mass/volume] in Urine by Test strip</td><td>1.7</td><td>0.8 - 0</td><td>H</td><td>mg/dL</td></tr></table></div>"
        },
        "status": "final",
        "subject": {
          "reference": "urn:uuid:d7402f53-ed33-46c6-a284-ec7edd454cce",
          "display": "Marthe Gallet"
        },
        "effectiveDateTime": "2016-03-31T19:05:43Z",
        "specimen": {
          "reference": "urn:uuid:bfa9be82-a5cc-48b0-bd27-f9e416c6dcab"
        }
      }
    },
    {
      "fullUrl": "urn:uuid:e7491cfa-84d8-4caa-b236-0c8389691b95",
      "resource": {
        "resourceType": "Observation",
        "id": "e7491cfa-84d8-4caa-b236-0c8389691b95",
        "meta": {
          "profile": [
            "http://hl7.eu/fhir/laboratory/StructureDefinition/Observation-resultslab-eu-lab"
          ]
        },
        "performer": [
          {
            "display": "The Central European Lab"
          }
        ],
        "category": [
          {
            "coding": [
              {
                "system": "http://terminology.hl7.org/CodeSystem/observation-category",
                "code": "laboratory"
              }
            ]
          }
        ],
        "code": {
          "coding": [
            {
              "code": "25428-4",
              "system": "http://loinc.org",
              "display": "Glucose [Presence] in Urine by Test strip"
            }
          ],
          "text": "Glucose [Presence] in Urine by Test strip"
        },
        "text": {
          "status": "generated",
          "div": "<div xmlns=\"http://www.w3.org/1999/xhtml\"><table class=\"hl7__eu__lab__report\"><tr><th>Test</th><th>31-Mar-2016</th><th>Reference&#xA0;Range</th><th>Unit</th></tr><tr><td>Glucose [Presence] in Urine by Test strip</td></tr></table></div>"
        },
        "status": "final",
        "subject": {
          "reference": "urn:uuid:d7402f53-ed33-46c6-a284-ec7edd454cce",
          "display": "Marthe Gallet"
        },
        "effectiveDateTime": "2016-03-31T19:05:43Z",
        "specimen": {
          "reference": "urn:uuid:bfa9be82-a5cc-48b0-bd27-f9e416c6dcab"
        }
      }
    },
    {
      "fullUrl": "urn:uuid:9e1c612a-01ea-40f2-a234-23df8ba9f984",
      "resource": {
        "resourceType": "Observation",
        "id": "9e1c612a-01ea-40f2-a234-23df8ba9f984",
        "meta": {
          "profile": [
            "http://hl7.eu/fhir/laboratory/StructureDefinition/Observation-resultslab-eu-lab"
          ]
        },
        "performer": [
          {
            "display": "The Central European Lab"
          }
        ],
        "category": [
          {
            "coding": [
              {
                "system": "http://terminology.hl7.org/CodeSystem/observation-category",
                "code": "laboratory"
              }
            ]
          }
        ],
        "code": {
          "coding": [
            {
              "code": "20505-4",
              "system": "http://loinc.org",
              "display": "Bilirubin.total [Mass/volume] in Urine by Test strip"
            }
          ],
          "text": "Bilirubin.total [Mass/volume] in Urine by Test strip"
        },
        "valueQuantity": {
          "system": "http://unitsofmeasure.org",
          "value": 0.8,
          "unit": "mg/dL",
          "code": "mg/dL"
        },
        "referenceRange": [
          {
            "low": {
              "value": 0,
              "code": "mg/dL",
              "system": "http://unitsofmeasure.org"
            }
          },
          {
            "high": {
              "value": 1,
              "code": "mg/dL",
              "system": "http://unitsofmeasure.org"
            }
          }
        ],
        "text": {
          "status": "generated",
          "div": "<div xmlns=\"http://www.w3.org/1999/xhtml\"><table class=\"hl7__eu__lab__report\"><tr><th>Test</th><th>31-Mar-2016</th><th>Reference&#xA0;Range</th><th>Unit</th></tr><tr><td>Bilirubin.total [Mass/volume] in Urine by Test strip</td><td>0.8</td><td>0 - 1</td><td></td><td>mg/dL</td></tr></table></div>"
        },
        "status": "final",
        "subject": {
          "reference": "urn:uuid:d7402f53-ed33-46c6-a284-ec7edd454cce",
          "display": "Marthe Gallet"
        },
        "effectiveDateTime": "2016-03-31T19:05:43Z",
        "specimen": {
          "reference": "urn:uuid:bfa9be82-a5cc-48b0-bd27-f9e416c6dcab"
        }
      }
    },
    {
      "fullUrl": "urn:uuid:6975c230-6019-410b-af44-be1ed7c0f870",
      "resource": {
        "resourceType": "Observation",
        "id": "6975c230-6019-410b-af44-be1ed7c0f870",
        "meta": {
          "profile": [
            "http://hl7.eu/fhir/laboratory/StructureDefinition/Observation-resultslab-eu-lab"
          ]
        },
        "performer": [
          {
            "display": "The Central European Lab"
          }
        ],
        "category": [
          {
            "coding": [
              {
                "system": "http://terminology.hl7.org/CodeSystem/observation-category",
                "code": "laboratory"
              }
            ]
          }
        ],
        "code": {
          "coding": [
            {
              "code": "5770-3",
              "system": "http://loinc.org",
              "display": "Bilirubin.total [Presence] in Urine by Test strip"
            }
          ],
          "text": "Bilirubin.total [Presence] in Urine by Test strip"
        },
        "text": {
          "status": "generated",
          "div": "<div xmlns=\"http://www.w3.org/1999/xhtml\"><table class=\"hl7__eu__lab__report\"><tr><th>Test</th><th>31-Mar-2016</th><th>Reference&#xA0;Range</th><th>Unit</th></tr><tr><td>Bilirubin.total [Presence] in Urine by Test strip</td></tr></table></div>"
        },
        "status": "final",
        "subject": {
          "reference": "urn:uuid:d7402f53-ed33-46c6-a284-ec7edd454cce",
          "display": "Marthe Gallet"
        },
        "effectiveDateTime": "2016-03-31T19:05:43Z",
        "specimen": {
          "reference": "urn:uuid:bfa9be82-a5cc-48b0-bd27-f9e416c6dcab"
        }
      }
    },
    {
      "fullUrl": "urn:uuid:fa4cba23-ead3-4256-99d6-e558d8360514",
      "resource": {
        "resourceType": "Observation",
        "id": "fa4cba23-ead3-4256-99d6-e558d8360514",
        "meta": {
          "profile": [
            "http://hl7.eu/fhir/laboratory/StructureDefinition/Observation-resultslab-eu-lab"
          ]
        },
        "performer": [
          {
            "display": "The Central European Lab"
          }
        ],
        "category": [
          {
            "coding": [
              {
                "system": "http://terminology.hl7.org/CodeSystem/observation-category",
                "code": "laboratory"
              }
            ]
          }
        ],
        "code": {
          "coding": [
            {
              "code": "5797-6",
              "system": "http://loinc.org",
              "display": "Ketones [Mass/volume] in Urine by Test strip"
            }
          ],
          "text": "Ketones [Mass/volume] in Urine by Test strip"
        },
        "valueQuantity": {
          "system": "http://unitsofmeasure.org",
          "value": 12,
          "unit": "mg/dL",
          "code": "mg/dL"
        },
        "referenceRange": [
          {
            "low": {
              "value": 0,
              "code": "mg/dL",
              "system": "http://unitsofmeasure.org"
            }
          },
          {
            "high": {
              "value": 20,
              "code": "mg/dL",
              "system": "http://unitsofmeasure.org"
            }
          }
        ],
        "text": {
          "status": "generated",
          "div": "<div xmlns=\"http://www.w3.org/1999/xhtml\"><table class=\"hl7__eu__lab__report\"><tr><th>Test</th><th>31-Mar-2016</th><th>Reference&#xA0;Range</th><th>Unit</th></tr><tr><td>Ketones [Mass/volume] in Urine by Test strip</td><td>12.0</td><td>0 - 20</td><td></td><td>mg/dL</td></tr></table></div>"
        },
        "status": "final",
        "subject": {
          "reference": "urn:uuid:d7402f53-ed33-46c6-a284-ec7edd454cce",
          "display": "Marthe Gallet"
        },
        "effectiveDateTime": "2016-03-31T19:05:43Z",
        "specimen": {
          "reference": "urn:uuid:bfa9be82-a5cc-48b0-bd27-f9e416c6dcab"
        }
      }
    },
    {
      "fullUrl": "urn:uuid:2bebf2ea-320a-4ab5-a7be-71f8db9c0b02",
      "resource": {
        "resourceType": "Observation",
        "id": "2bebf2ea-320a-4ab5-a7be-71f8db9c0b02",
        "meta": {
          "profile": [
            "http://hl7.eu/fhir/laboratory/StructureDefinition/Observation-resultslab-eu-lab"
          ]
        },
        "performer": [
          {
            "display": "The Central European Lab"
          }
        ],
        "category": [
          {
            "coding": [
              {
                "system": "http://terminology.hl7.org/CodeSystem/observation-category",
                "code": "laboratory"
              }
            ]
          }
        ],
        "code": {
          "coding": [
            {
              "code": "2514-8",
              "system": "http://loinc.org",
              "display": "Ketones [Presence] in Urine by Test strip"
            }
          ],
          "text": "Ketones [Presence] in Urine by Test strip"
        },
        "text": {
          "status": "generated",
          "div": "<div xmlns=\"http://www.w3.org/1999/xhtml\"><table class=\"hl7__eu__lab__report\"><tr><th>Test</th><th>31-Mar-2016</th><th>Reference&#xA0;Range</th><th>Unit</th></tr><tr><td>Ketones [Presence] in Urine by Test strip</td></tr></table></div>"
        },
        "status": "final",
        "subject": {
          "reference": "urn:uuid:d7402f53-ed33-46c6-a284-ec7edd454cce",
          "display": "Marthe Gallet"
        },
        "effectiveDateTime": "2016-03-31T19:05:43Z",
        "specimen": {
          "reference": "urn:uuid:bfa9be82-a5cc-48b0-bd27-f9e416c6dcab"
        }
      }
    },
    {
      "fullUrl": "urn:uuid:7e1b45aa-b3ed-4e15-9df7-cf3292e1e7bb",
      "resource": {
        "resourceType": "Observation",
        "id": "7e1b45aa-b3ed-4e15-9df7-cf3292e1e7bb",
        "meta": {
          "profile": [
            "http://hl7.eu/fhir/laboratory/StructureDefinition/Observation-resultslab-eu-lab"
          ]
        },
        "performer": [
          {
            "display": "The Central European Lab"
          }
        ],
        "category": [
          {
            "coding": [
              {
                "system": "http://terminology.hl7.org/CodeSystem/observation-category",
                "code": "laboratory"
              }
            ]
          }
        ],
        "code": {
          "coding": [
            {
              "code": "5811-5",
              "system": "http://loinc.org",
              "display": "Specific gravity of Urine by Test strip"
            }
          ],
          "text": "Specific gravity of Urine by Test strip"
        },
        "valueQuantity": {
          "system": "http://unitsofmeasure.org",
          "value": 1,
          "unit": "{nominal}",
          "code": "{nominal}"
        },
        "referenceRange": [
          {
            "low": {
              "value": 1.01,
              "code": "g/mL",
              "system": "http://unitsofmeasure.org"
            }
          },
          {
            "high": {
              "value": 1.03,
              "code": "g/mL",
              "system": "http://unitsofmeasure.org"
            }
          }
        ],
        "interpretation": [
          {
            "coding": [
              {
                "code": "L",
                "system": "http://terminology.hl7.org/CodeSystem/v3-ObservationInterpretation",
                "display": "Low"
              }
            ]
          }
        ],
        "text": {
          "status": "generated",
          "div": "<div xmlns=\"http://www.w3.org/1999/xhtml\"><table class=\"hl7__eu__lab__report\"><tr><th>Test</th><th>31-Mar-2016</th><th>Reference&#xA0;Range</th><th>Unit</th></tr><tr><td>Specific gravity of Urine by Test strip</td><td>1.0</td><td>1.01 - 1.03</td><td>L</td><td>{nominal}</td></tr></table></div>"
        },
        "status": "final",
        "subject": {
          "reference": "urn:uuid:d7402f53-ed33-46c6-a284-ec7edd454cce",
          "display": "Marthe Gallet"
        },
        "effectiveDateTime": "2016-03-31T19:05:43Z",
        "specimen": {
          "reference": "urn:uuid:bfa9be82-a5cc-48b0-bd27-f9e416c6dcab"
        }
      }
    },
    {
      "fullUrl": "urn:uuid:15bfb589-fafb-45a3-950b-e6bd27e2d0e4",
      "resource": {
        "resourceType": "Observation",
        "id": "15bfb589-fafb-45a3-950b-e6bd27e2d0e4",
        "meta": {
          "profile": [
            "http://hl7.eu/fhir/laboratory/StructureDefinition/Observation-resultslab-eu-lab"
          ]
        },
        "performer": [
          {
            "display": "The Central European Lab"
          }
        ],
        "category": [
          {
            "coding": [
              {
                "system": "http://terminology.hl7.org/CodeSystem/observation-category",
                "code": "laboratory"
              }
            ]
          }
        ],
        "code": {
          "coding": [
            {
              "code": "5803-2",
              "system": "http://loinc.org",
              "display": "pH of Urine by Test strip"
            }
          ],
          "text": "pH of Urine by Test strip"
        },
        "valueQuantity": {
          "system": "http://unitsofmeasure.org",
          "value": 5.9,
          "unit": "pH",
          "code": "pH"
        },
        "referenceRange": [
          {
            "low": {
              "value": 4.6,
              "code": "pH",
              "system": "http://unitsofmeasure.org"
            }
          },
          {
            "high": {
              "value": 7,
              "code": "pH",
              "system": "http://unitsofmeasure.org"
            }
          }
        ],
        "text": {
          "status": "generated",
          "div": "<div xmlns=\"http://www.w3.org/1999/xhtml\"><table class=\"hl7__eu__lab__report\"><tr><th>Test</th><th>31-Mar-2016</th><th>Reference&#xA0;Range</th><th>Unit</th></tr><tr><td>pH of Urine by Test strip</td><td>5.9</td><td>4.6 - 7</td><td></td><td>pH</td></tr></table></div>"
        },
        "status": "final",
        "subject": {
          "reference": "urn:uuid:d7402f53-ed33-46c6-a284-ec7edd454cce",
          "display": "Marthe Gallet"
        },
        "effectiveDateTime": "2016-03-31T19:05:43Z",
        "specimen": {
          "reference": "urn:uuid:bfa9be82-a5cc-48b0-bd27-f9e416c6dcab"
        }
      }
    },
    {
      "fullUrl": "urn:uuid:f61fa66d-0aab-4af2-88cc-628841564505",
      "resource": {
        "resourceType": "Observation",
        "id": "f61fa66d-0aab-4af2-88cc-628841564505",
        "meta": {
          "profile": [
            "http://hl7.eu/fhir/laboratory/StructureDefinition/Observation-resultslab-eu-lab"
          ]
        },
        "performer": [
          {
            "display": "The Central European Lab"
          }
        ],
        "category": [
          {
            "coding": [
              {
                "system": "http://terminology.hl7.org/CodeSystem/observation-category",
                "code": "laboratory"
              }
            ]
          }
        ],
        "code": {
          "coding": [
            {
              "code": "5804-0",
              "system": "http://loinc.org",
              "display": "Protein [Mass/volume] in Urine by Test strip"
            }
          ],
          "text": "Protein [Mass/volume] in Urine by Test strip"
        },
        "valueQuantity": {
          "system": "http://unitsofmeasure.org",
          "value": 107.7,
          "unit": "mg/dL",
          "code": "mg/dL"
        },
        "referenceRange": [
          {
            "low": {
              "value": 0,
              "code": "mg/dL",
              "system": "http://unitsofmeasure.org"
            }
          },
          {
            "high": {
              "value": 15,
              "code": "mg/dL",
              "system": "http://unitsofmeasure.org"
            }
          }
        ],
        "interpretation": [
          {
            "coding": [
              {
                "code": "H",
                "system": "http://terminology.hl7.org/CodeSystem/v3-ObservationInterpretation",
                "display": "High"
              }
            ]
          }
        ],
        "text": {
          "status": "generated",
          "div": "<div xmlns=\"http://www.w3.org/1999/xhtml\"><table class=\"hl7__eu__lab__report\"><tr><th>Test</th><th>31-Mar-2016</th><th>Reference&#xA0;Range</th><th>Unit</th></tr><tr><td>Protein [Mass/volume] in Urine by Test strip</td><td>107.7</td><td>0 - 15</td><td>H</td><td>mg/dL</td></tr></table></div>"
        },
        "status": "final",
        "subject": {
          "reference": "urn:uuid:d7402f53-ed33-46c6-a284-ec7edd454cce",
          "display": "Marthe Gallet"
        },
        "effectiveDateTime": "2016-03-31T19:05:43Z",
        "specimen": {
          "reference": "urn:uuid:bfa9be82-a5cc-48b0-bd27-f9e416c6dcab"
        }
      }
    },
    {
      "fullUrl": "urn:uuid:43eab1fc-7824-4c9a-b8a0-87e818bccb3c",
      "resource": {
        "resourceType": "Observation",
        "id": "43eab1fc-7824-4c9a-b8a0-87e818bccb3c",
        "meta": {
          "profile": [
            "http://hl7.eu/fhir/laboratory/StructureDefinition/Observation-resultslab-eu-lab"
          ]
        },
        "performer": [
          {
            "display": "The Central European Lab"
          }
        ],
        "category": [
          {
            "coding": [
              {
                "system": "http://terminology.hl7.org/CodeSystem/observation-category",
                "code": "laboratory"
              }
            ]
          }
        ],
        "code": {
          "coding": [
            {
              "code": "20454-5",
              "system": "http://loinc.org",
              "display": "Protein [Presence] in Urine by Test strip"
            }
          ],
          "text": "Protein [Presence] in Urine by Test strip"
        },
        "text": {
          "status": "generated",
          "div": "<div xmlns=\"http://www.w3.org/1999/xhtml\"><table class=\"hl7__eu__lab__report\"><tr><th>Test</th><th>31-Mar-2016</th><th>Reference&#xA0;Range</th><th>Unit</th></tr><tr><td>Protein [Presence] in Urine by Test strip</td></tr></table></div>"
        },
        "status": "final",
        "subject": {
          "reference": "urn:uuid:d7402f53-ed33-46c6-a284-ec7edd454cce",
          "display": "Marthe Gallet"
        },
        "effectiveDateTime": "2016-03-31T19:05:43Z",
        "specimen": {
          "reference": "urn:uuid:bfa9be82-a5cc-48b0-bd27-f9e416c6dcab"
        }
      }
    },
    {
      "fullUrl": "urn:uuid:c08ddf2f-7d7d-415f-9051-ef0a02b9fb52",
      "resource": {
        "resourceType": "Observation",
        "id": "c08ddf2f-7d7d-415f-9051-ef0a02b9fb52",
        "meta": {
          "profile": [
            "http://hl7.eu/fhir/laboratory/StructureDefinition/Observation-resultslab-eu-lab"
          ]
        },
        "performer": [
          {
            "display": "The Central European Lab"
          }
        ],
        "category": [
          {
            "coding": [
              {
                "system": "http://terminology.hl7.org/CodeSystem/observation-category",
                "code": "laboratory"
              }
            ]
          }
        ],
        "code": {
          "coding": [
            {
              "code": "5802-4",
              "system": "http://loinc.org",
              "display": "Nitrite [Presence] in Urine by Test strip"
            }
          ],
          "text": "Nitrite [Presence] in Urine by Test strip"
        },
        "text": {
          "status": "generated",
          "div": "<div xmlns=\"http://www.w3.org/1999/xhtml\"><table class=\"hl7__eu__lab__report\"><tr><th>Test</th><th>31-Mar-2016</th><th>Reference&#xA0;Range</th><th>Unit</th></tr><tr><td>Nitrite [Presence] in Urine by Test strip</td></tr></table></div>"
        },
        "status": "final",
        "subject": {
          "reference": "urn:uuid:d7402f53-ed33-46c6-a284-ec7edd454cce",
          "display": "Marthe Gallet"
        },
        "effectiveDateTime": "2016-03-31T19:05:43Z",
        "specimen": {
          "reference": "urn:uuid:bfa9be82-a5cc-48b0-bd27-f9e416c6dcab"
        }
      }
    },
    {
      "fullUrl": "urn:uuid:4c2d2a73-3c26-4fe1-b757-3395d76cd36a",
      "resource": {
        "resourceType": "Observation",
        "id": "4c2d2a73-3c26-4fe1-b757-3395d76cd36a",
        "meta": {
          "profile": [
            "http://hl7.eu/fhir/laboratory/StructureDefinition/Observation-resultslab-eu-lab"
          ]
        },
        "performer": [
          {
            "display": "The Central European Lab"
          }
        ],
        "category": [
          {
            "coding": [
              {
                "system": "http://terminology.hl7.org/CodeSystem/observation-category",
                "code": "laboratory"
              }
            ]
          }
        ],
        "code": {
          "coding": [
            {
              "code": "5794-3",
              "system": "http://loinc.org",
              "display": "Hemoglobin [Presence] in Urine by Test strip"
            }
          ],
          "text": "Hemoglobin [Presence] in Urine by Test strip"
        },
        "text": {
          "status": "generated",
          "div": "<div xmlns=\"http://www.w3.org/1999/xhtml\"><table class=\"hl7__eu__lab__report\"><tr><th>Test</th><th>31-Mar-2016</th><th>Reference&#xA0;Range</th><th>Unit</th></tr><tr><td>Hemoglobin [Presence] in Urine by Test strip</td></tr></table></div>"
        },
        "status": "final",
        "subject": {
          "reference": "urn:uuid:d7402f53-ed33-46c6-a284-ec7edd454cce",
          "display": "Marthe Gallet"
        },
        "effectiveDateTime": "2016-03-31T19:05:43Z",
        "specimen": {
          "reference": "urn:uuid:bfa9be82-a5cc-48b0-bd27-f9e416c6dcab"
        }
      }
    },
    {
      "fullUrl": "urn:uuid:dcc4c428-d1a2-46b7-8654-e704996e53a4",
      "resource": {
        "resourceType": "Observation",
        "id": "dcc4c428-d1a2-46b7-8654-e704996e53a4",
        "meta": {
          "profile": [
            "http://hl7.eu/fhir/laboratory/StructureDefinition/Observation-resultslab-eu-lab"
          ]
        },
        "performer": [
          {
            "display": "The Central European Lab"
          }
        ],
        "category": [
          {
            "coding": [
              {
                "system": "http://terminology.hl7.org/CodeSystem/observation-category",
                "code": "laboratory"
              }
            ]
          }
        ],
        "code": {
          "coding": [
            {
              "code": "5799-2",
              "system": "http://loinc.org",
              "display": "Leukocyte esterase [Presence] in Urine by Test strip"
            }
          ],
          "text": "Leukocyte esterase [Presence] in Urine by Test strip"
        },
        "text": {
          "status": "generated",
          "div": "<div xmlns=\"http://www.w3.org/1999/xhtml\"><table class=\"hl7__eu__lab__report\"><tr><th>Test</th><th>31-Mar-2016</th><th>Reference&#xA0;Range</th><th>Unit</th></tr><tr><td>Leukocyte esterase [Presence] in Urine by Test strip</td></tr></table></div>"
        },
        "status": "final",
        "subject": {
          "reference": "urn:uuid:d7402f53-ed33-46c6-a284-ec7edd454cce",
          "display": "Marthe Gallet"
        },
        "effectiveDateTime": "2016-03-31T19:05:43Z",
        "specimen": {
          "reference": "urn:uuid:bfa9be82-a5cc-48b0-bd27-f9e416c6dcab"
        }
      }
    },
    {
      "fullUrl": "urn:uuid:c3c7c833-3da0-454f-9492-c6c121ec71ab",
      "resource": {
        "resourceType": "Device",
        "id": "c3c7c833-3da0-454f-9492-c6c121ec71ab",
        "deviceName": [
          {
            "name": "SYNDERAI Synthetic Generator",
            "type": "manufacturer-name"
          }
        ],
        "version": [
          {
            "value": "5.0"
          }
        ],
        "text": {
          "status": "generated",
          "div": "<div xmlns=\"http://www.w3.org/1999/xhtml\">SYNDERAI Synthetic Generator v5.0</div>"
        },
        "status": "active\"",
        "distinctIdentifier": "synderai-generator-50",
        "manufacturer": "SYNDERAI Project"
      }
    },
    {
      "fullUrl": "urn:uuid:da3cd0f3-ef5e-4405-af22-30a02637327f",
      "resource": {
        "resourceType": "Provenance",
        "id": "da3cd0f3-ef5e-4405-af22-30a02637327f",
        "target": [
          {
            "reference": "Patient/d7402f53-ed33-46c6-a284-ec7edd454cce"
          },
          {
            "reference": "Bundle/26ca4456-a36a-40f5-bad6-48680aa2dd9a"
          },
          {
            "reference": "Composition/0273a424-29a5-46f5-8ef1-b8c842bca26a"
          },
          {
            "reference": "PractitionerRole/a39333b4-ae30-4e4f-acbe-cc05763af7c5"
          },
          {
            "reference": "Practitioner/f262c09d-386a-4bcf-a7f3-6737f5547694"
          },
          {
            "reference": "PractitionerRole/12f60d27-e443-4e04-bbcb-76da35773714"
          },
          {
            "reference": "Organization/bb1d69b8-47cd-40cf-bb31-7d80ac0313d5"
          }
        ],
        "activity": {
          "text": "Synthetic Example Data Generation"
        },
        "policy": [
          "https://synderai.net/synderai-synthetic-data-policy"
        ],
        "agent": [
          {
            "type": {
              "text": "author"
            },
            "who": {
              "reference": "Device/c3c7c833-3da0-454f-9492-c6c121ec71ab"
            }
          }
        ],
        "reason": [
          {
            "text": "Interoperability Testing and Training (non-clinical use)"
          }
        ],
        "text": {
          "status": "generated",
          "div": "<div xmlns=\"http://www.w3.org/1999/xhtml\">Provenance for SYNDERAI Synthetic Example Data Resource</div>"
        },
        "recorded": "2016-03-31T21:05:43Z"
      }
    },
    {
      "fullUrl": "urn:uuid:a39333b4-ae30-4e4f-acbe-cc05763af7c5",
      "resource": {
        "resourceType": "PractitionerRole",
        "id": "a39333b4-ae30-4e4f-acbe-cc05763af7c5",
        "meta": {
          "profile": [
            "http://hl7.eu/fhir/base/StructureDefinition/practitionerRole-eu"
          ]
        },
        "text": {
          "status": "generated",
          "div": "<div xmlns=\"http://www.w3.org/1999/xhtml\">Laboratory Role Id: a39333b4-ae30-4e4f-acbe-cc05763af7c5</div>"
        },
        "practitioner": {
          "reference": "urn:uuid:f262c09d-386a-4bcf-a7f3-6737f5547694"
        }
      }
    },
    {
      "fullUrl": "urn:uuid:f262c09d-386a-4bcf-a7f3-6737f5547694",
      "resource": {
        "resourceType": "Practitioner",
        "id": "f262c09d-386a-4bcf-a7f3-6737f5547694",
        "meta": {
          "profile": [
            "http://hl7.eu/fhir/base/StructureDefinition/practitioner-eu"
          ]
        },
        "identifier": [
          {
            "assigner": {
              "display": "HL7 Europe"
            },
            "system": "urn:oid:2.16.840.1.113883.2.51.999",
            "value": "bc535a12-6bae-4a5e-b102-adf19eda1c75"
          }
        ],
        "name": [
          {
            "prefix": [
              "dr"
            ],
            "given": [
              "Ex"
            ],
            "family": "Ample"
          }
        ],
        "address": [
          {
            "line": [
              "Laboratoire Central Europenne",
              "Boulevard du Jardin Botanique 32"
            ],
            "postalCode": "1000",
            "city": "Brussels",
            "country": "Belgium"
          }
        ],
        "text": {
          "status": "generated",
          "div": "<div xmlns=\"http://www.w3.org/1999/xhtml\">Laboratory: Laboratoire Central Europenne, 1000 Brussels, Belgium</div>"
        }
      }
    }
  ],
  "type": "document",
  "timestamp": "2016-03-31T21:05:43Z"
}
