{
  "resourceType": "Bundle",
  "id": "90d11aef-9250-4d99-b8d2-aa011f893c88",
  "meta": {
    "profile": [
      "http://hl7.eu/fhir/laboratory/StructureDefinition/Bundle-eu-lab"
    ]
  },
  "identifier": {
    "assigner": {
      "display": "HL7 Europe"
    },
    "system": "urn:oid:2.16.840.1.113883.2.51.999",
    "value": "cc40d41d-8e6b-4d72-b0ee-8785d9aaee16"
  },
  "entry": [
    {
      "fullUrl": "urn:uuid:955613e8-a94a-46f6-995e-c4ca117a4f9c",
      "resource": {
        "resourceType": "Composition",
        "id": "955613e8-a94a-46f6-995e-c4ca117a4f9c",
        "meta": {
          "profile": [
            "http://hl7.eu/fhir/laboratory/StructureDefinition/Composition-eu-lab"
          ]
        },
        "identifier": {
          "assigner": {
            "display": "HL7 Europe"
          },
          "system": "urn:oid:2.16.840.1.113883.2.51.999",
          "value": "f2136ae0-c9a5-4907-b696-68d3bdd0241d"
        },
        "author": [
          {
            "reference": "urn:uuid:c3ec407d-e6d9-4f53-b2cf-c679d88385bf"
          }
        ],
        "category": [
          {
            "coding": [
              {
                "code": "26436-6",
                "system": "http://loinc.org",
                "display": "Laboratory studies (set)"
              }
            ]
          }
        ],
        "type": {
          "coding": [
            {
              "code": "11502-2",
              "system": "http://loinc.org",
              "display": "Laboratory report"
            }
          ],
          "text": "Laboratory Report"
        },
        "section": [
          {
            "code": {
              "coding": [
                {
                  "code": "26436-6",
                  "system": "http://loinc.org",
                  "display": "Laboratory studies (set)"
                }
              ],
              "text": "Laboratory studies"
            },
            "section": [
              {
                "code": {
                  "coding": [
                    {
                      "code": "$18719-5",
                      "system": "http://loinc.org",
                      "display": "Chemistry studies (set)"
                    }
                  ],
                  "text": "Chemistry"
                },
                "entry": [
                  {
                    "reference": "urn:uuid:abef7b03-b723-47b5-987a-c28db30b0c83"
                  },
                  {
                    "reference": "urn:uuid:bfd230ec-dffb-4e78-9c54-07c32c86b37a"
                  },
                  {
                    "reference": "urn:uuid:c1d0b81f-6aca-460d-9f82-34ff4efda23e"
                  },
                  {
                    "reference": "urn:uuid:5b6e8212-ab04-49d3-a6c9-12fd63f45a7e"
                  },
                  {
                    "reference": "urn:uuid:8e413ec4-9aaa-4a47-a707-9e4f3e48cb40"
                  },
                  {
                    "reference": "urn:uuid:01bf66dd-ad1d-4c07-88fa-a95770d80cd1"
                  },
                  {
                    "reference": "urn:uuid:39b464fd-0a60-4e40-9109-8e238502f9e7"
                  },
                  {
                    "reference": "urn:uuid:5d4d5341-f69d-40cb-b691-e5abebf704d6"
                  },
                  {
                    "reference": "urn:uuid:99461313-8cd0-486c-9dab-dfe2e84f76b7"
                  },
                  {
                    "reference": "urn:uuid:7072ff98-5dd4-4c15-b9c1-39a5cbe31791"
                  },
                  {
                    "reference": "urn:uuid:afd1ec39-e843-4692-9e5e-7b869866560e"
                  },
                  {
                    "reference": "urn:uuid:f4a35be1-1bb3-4b08-adc6-4441c9e1c78e"
                  },
                  {
                    "reference": "urn:uuid:1cf0b4fc-9368-4d1c-9361-f69e0e2abf1d"
                  },
                  {
                    "reference": "urn:uuid:05535b12-5300-4a62-90bc-57df75174e63"
                  },
                  {
                    "reference": "urn:uuid:11f11812-13c5-4d4f-bd98-5b92378b4b34"
                  },
                  {
                    "reference": "urn:uuid:6940d516-da39-4157-8554-3cf04b8dd5bb"
                  },
                  {
                    "reference": "urn:uuid:0bbca857-a587-46f4-b670-bf374c1982f0"
                  },
                  {
                    "reference": "urn:uuid:a66719ae-7551-4b35-9ec0-897ce13347c7"
                  }
                ],
                "text": {
                  "status": "generated",
                  "div": "<div xmlns=\"http://www.w3.org/1999/xhtml\"><h3>Chemistry</h3><table class=\"hl7__eu__lab__report\"><thead><tr><th>Test</th><th>05-APR-2017</th><th>Reference&#xA0;Range</th><th>Unit</th></tr></thead><tbody><tr><td>Glucose [Mass/volume] in Serum or Plasma</td><td>78.2</td><td>70 - 140</td><td>mg/dL</td></tr><tr><td>Urea nitrogen [Mass/volume] in Serum or Plasma</td><td>7.8</td><td>7 - 20</td><td>mg/dL</td></tr><tr><td>Creatinine [Mass/volume] in Serum or Plasma</td><td><strong>2.3 H</strong></td><td>0.6 - 1.3</td><td>mg/dL</td></tr><tr><td>Calcium [Mass/volume] in Serum or Plasma</td><td>10.0</td><td>8.6 - 10.4</td><td>mg/dL</td></tr><tr><td>Sodium [Moles/volume] in Serum or Plasma</td><td>138.0</td><td>135 - 145</td><td>mmol/L</td></tr><tr><td>Potassium [Moles/volume] in Serum or Plasma</td><td>4.0</td><td>3.5 - 5.1</td><td>mmol/L</td></tr><tr><td>Chloride [Moles/volume] in Serum or Plasma</td><td>101.8</td><td>98 - 108</td><td>mmol/L</td></tr><tr><td>Carbon dioxide, total [Moles/volume] in Serum or Plasma</td><td><strong>21.6 L</strong></td><td>22 - 32</td><td>mmol/L</td></tr><tr><td>Ketones [Presence] in Urine by Test strip</td><td>Urine ketone test = +++</td><td></td><td></td></tr><tr><td>Hemoglobin A1c/Hemoglobin.total in Blood</td><td><strong>2.8 L</strong></td><td>4.5 - 6.4</td><td>%</td></tr><tr><td>Glucose [Mass/volume] in Blood</td><td>78.2</td><td>70 - 140</td><td>mg/dL</td></tr><tr><td>Urea nitrogen [Mass/volume] in Blood</td><td>7.8</td><td>7 - 30</td><td>mg/dL</td></tr><tr><td>Creatinine [Mass/volume] in Blood</td><td><strong>4.7 H</strong></td><td>0.5 - 1.3</td><td>mg/dL</td></tr><tr><td>Calcium [Mass/volume] in Blood</td><td>10.0</td><td>8.6 - 10.2</td><td>mg/dL</td></tr><tr><td>Sodium [Moles/volume] in Blood</td><td>138.0</td><td>135 - 145</td><td>mmol/L</td></tr><tr><td>Potassium [Moles/volume] in Blood</td><td>4.0</td><td>3.5 - 5.1</td><td>mmol/L</td></tr><tr><td>Chloride [Moles/volume] in Blood</td><td>101.8</td><td>98 - 114</td><td>mmol/L</td></tr><tr><td>Carbon dioxide, total [Moles/volume] in Blood</td><td><strong>21.6 L</strong></td><td>22 - 32</td><td>mmol/L</td></tr></tbody></table></div>"
                },
                "title": "Chemistry"
              },
              {
                "code": {
                  "coding": [
                    {
                      "code": "$18729-4",
                      "system": "http://loinc.org",
                      "display": "Urinalysis studies (set)"
                    }
                  ],
                  "text": "Urinalysis"
                },
                "entry": [
                  {
                    "reference": "urn:uuid:6a57ef08-825b-428f-91cc-9482c791b044"
                  },
                  {
                    "reference": "urn:uuid:8e410ca1-785a-4b8d-b853-5439395e3e80"
                  },
                  {
                    "reference": "urn:uuid:d12e9295-73be-481c-af8c-1abe5ea52186"
                  },
                  {
                    "reference": "urn:uuid:eee67d58-abd7-4137-b990-176c0dcf45e1"
                  },
                  {
                    "reference": "urn:uuid:b43ce608-0871-4d94-9519-5cf60bf915d4"
                  },
                  {
                    "reference": "urn:uuid:e71f5467-12e1-40b5-9406-c3385189390a"
                  },
                  {
                    "reference": "urn:uuid:23d963fd-5eed-43f7-a798-42cfdff31881"
                  },
                  {
                    "reference": "urn:uuid:ad818676-850c-4ef2-aa40-fea586486c03"
                  },
                  {
                    "reference": "urn:uuid:db14157a-b7d9-4f61-80f9-72e8733bcdf6"
                  },
                  {
                    "reference": "urn:uuid:b71a57ca-81c0-4672-847c-3ca1cd31134a"
                  },
                  {
                    "reference": "urn:uuid:a435423f-611c-42a9-8227-d2b94082d282"
                  },
                  {
                    "reference": "urn:uuid:9e0590c3-e5dc-48a6-be85-4696c1ce3df5"
                  }
                ],
                "text": {
                  "status": "generated",
                  "div": "<div xmlns=\"http://www.w3.org/1999/xhtml\"><h3>Urinalysis</h3><table class=\"hl7__eu__lab__report\"><thead><tr><th>Test</th><th>05-APR-2017</th><th>Reference&#xA0;Range</th><th>Unit</th></tr></thead><tbody><tr><td>Glucose [Mass/volume] in Urine by Test strip</td><td><strong>0.7 L</strong></td><td>0.8 - 0</td><td>mg/dL</td></tr><tr><td>Glucose [Presence] in Urine by Test strip</td><td>++</td><td></td><td></td></tr><tr><td>Bilirubin.total [Mass/volume] in Urine by Test strip</td><td>1.3</td><td>0 - 1.5</td><td>mg/dL</td></tr><tr><td>Bilirubin.total [Presence] in Urine by Test strip</td><td>Finding of bilirubin in urine</td><td></td><td></td></tr><tr><td>Ketones [Mass/volume] in Urine by Test strip</td><td><strong>17.2 H</strong></td><td>0 - 8</td><td>mg/dL</td></tr><tr><td>Specific gravity of Urine by Test strip</td><td><strong>1.0 L</strong></td><td>1.01 - 1.03</td><td>{nominal}</td></tr><tr><td>pH of Urine by Test strip</td><td>6.4</td><td>4.6 - 7.5</td><td>pH</td></tr><tr><td>Protein [Mass/volume] in Urine by Test strip</td><td><strong>441.2 H</strong></td><td>0 - 14</td><td>mg/dL</td></tr><tr><td>Protein [Presence] in Urine by Test strip</td><td>Urine protein test = +++</td><td></td><td></td></tr><tr><td>Nitrite [Presence] in Urine by Test strip</td><td>Urine nitrite negative</td><td></td><td></td></tr><tr><td>Hemoglobin [Presence] in Urine by Test strip</td><td>Urine blood test = negative</td><td></td><td></td></tr><tr><td>Leukocyte esterase [Presence] in Urine by Test strip</td><td>Urine leukocyte test negative</td><td></td><td></td></tr></tbody></table></div>"
                },
                "title": "Urinalysis"
              },
              {
                "code": {
                  "coding": [
                    {
                      "code": "$LP7846-1",
                      "system": "http://loinc.org",
                      "display": "Specimen information"
                    }
                  ],
                  "text": "Specimen information"
                },
                "entry": [
                  {
                    "reference": "urn:uuid:f9fb226d-a5e9-4fe0-9c49-0ca831214c0c"
                  },
                  {
                    "reference": "urn:uuid:978beb27-7b23-4376-a93b-e0d1c30e8274"
                  },
                  {
                    "reference": "urn:uuid:6ce1c685-1597-4827-852d-11bd99fb1a62"
                  },
                  {
                    "reference": "urn:uuid:6e309d0a-2394-4840-b143-cb0aaab3814f"
                  }
                ],
                "text": {
                  "status": "generated",
                  "div": "<div xmlns=\"http://www.w3.org/1999/xhtml\"><h3>Specimen information</h3><table class=\"hl7__eu__lab__report\"><thead><tr><th>Test</th><th>05-APR-2017</th><th>Specimen</th><th></th></tr></thead><tbody><tr><td>Appearance of Urine</td><td>Cloudy urine</td><td>Urine</td><td></td></tr><tr><td>Odor of Urine</td><td>Urine smell ammoniacal</td><td>Urine</td><td></td></tr><tr><td>Clarity of Urine</td><td>Translucent</td><td>Urine</td><td></td></tr><tr><td>Color of Urine</td><td>Brown color</td><td>Urine</td><td></td></tr></tbody></table></div>"
                },
                "title": "Specimen information"
              }
            ],
            "title": "Laboratory Report"
          },
          {
            "text": {
              "status": "generated",
              "div": "<div xmlns=\"http://www.w3.org/1999/xhtml\"><h3>Annotation</h3><table class=\"hl7__eu__lab__report\"><tr><th>Conclusion and Recommendations based on this report and previous findings known to us</th></tr><tr><td>The patient shows markedly elevated creatinine, proteinuria, and ketonuria, suggesting significant renal impairment with possible nephrotic-range proteinuria and metabolic derangement. Low total CO₂ may indicate metabolic acidosis. Urine findings (cloudy, brown, ammoniacal) suggest possible urinary tract pathology. Low HbA1c and normoglycemia argue against chronic hyperglycemia. Prompt clinical evaluation for acute or chronic kidney disease and possible urinary tract infection is recommended.</td></tr></table></div>"
            },
            "code": {
              "coding": [
                {
                  "system": "http://loinc.org",
                  "code": "48767-8",
                  "display": "Annotation comment"
                }
              ]
            },
            "title": "Annotation comment"
          }
        ],
        "status": "final",
        "subject": {
          "reference": "urn:uuid:245e47f9-4462-4806-a1de-fc0bc2e1d980",
          "display": "Maria Nohlmans"
        },
        "date": "2017-04-05T13:02:39Z",
        "title": "Laboratory Report",
        "confidentiality": "N"
      }
    },
    {
      "fullUrl": "urn:uuid:343bc259-0955-4bbe-81ab-efc1e915c4f0",
      "resource": {
        "resourceType": "DiagnosticReport",
        "id": "343bc259-0955-4bbe-81ab-efc1e915c4f0",
        "meta": {
          "profile": [
            "http://hl7.eu/fhir/laboratory/StructureDefinition/DiagnosticReport-eu-lab"
          ]
        },
        "identifier": [
          {
            "assigner": {
              "display": "HL7 Europe"
            },
            "system": "urn:oid:2.16.840.1.113883.2.51.999",
            "value": "19429489-a21d-477e-8a83-a4b658178249"
          }
        ],
        "extension": [
          {
            "url": "http://hl7.org/fhir/5.0/StructureDefinition/extension-DiagnosticReport.composition",
            "valueReference": {
              "reference": "urn:uuid:f2136ae0-c9a5-4907-b696-68d3bdd0241d"
            }
          }
        ],
        "category": [
          {
            "coding": [
              {
                "code": "26436-6",
                "system": "http://loinc.org",
                "display": "Laboratory studies (set)"
              }
            ]
          }
        ],
        "specimen": [
          {
            "reference": "urn:uuid:74c0254c-a94c-4453-8895-b2b241b5fb78"
          },
          {
            "reference": "urn:uuid:4f950fae-b756-47ac-8533-b85bff5f5927"
          },
          {
            "reference": "urn:uuid:10efc0fd-a0e7-4195-b1de-713570edf212"
          }
        ],
        "result": [
          {
            "reference": "urn:uuid:abef7b03-b723-47b5-987a-c28db30b0c83"
          },
          {
            "reference": "urn:uuid:bfd230ec-dffb-4e78-9c54-07c32c86b37a"
          },
          {
            "reference": "urn:uuid:c1d0b81f-6aca-460d-9f82-34ff4efda23e"
          },
          {
            "reference": "urn:uuid:5b6e8212-ab04-49d3-a6c9-12fd63f45a7e"
          },
          {
            "reference": "urn:uuid:8e413ec4-9aaa-4a47-a707-9e4f3e48cb40"
          },
          {
            "reference": "urn:uuid:01bf66dd-ad1d-4c07-88fa-a95770d80cd1"
          },
          {
            "reference": "urn:uuid:39b464fd-0a60-4e40-9109-8e238502f9e7"
          },
          {
            "reference": "urn:uuid:5d4d5341-f69d-40cb-b691-e5abebf704d6"
          },
          {
            "reference": "urn:uuid:f9fb226d-a5e9-4fe0-9c49-0ca831214c0c"
          },
          {
            "reference": "urn:uuid:978beb27-7b23-4376-a93b-e0d1c30e8274"
          },
          {
            "reference": "urn:uuid:6ce1c685-1597-4827-852d-11bd99fb1a62"
          },
          {
            "reference": "urn:uuid:6e309d0a-2394-4840-b143-cb0aaab3814f"
          },
          {
            "reference": "urn:uuid:6a57ef08-825b-428f-91cc-9482c791b044"
          },
          {
            "reference": "urn:uuid:8e410ca1-785a-4b8d-b853-5439395e3e80"
          },
          {
            "reference": "urn:uuid:d12e9295-73be-481c-af8c-1abe5ea52186"
          },
          {
            "reference": "urn:uuid:eee67d58-abd7-4137-b990-176c0dcf45e1"
          },
          {
            "reference": "urn:uuid:b43ce608-0871-4d94-9519-5cf60bf915d4"
          },
          {
            "reference": "urn:uuid:99461313-8cd0-486c-9dab-dfe2e84f76b7"
          },
          {
            "reference": "urn:uuid:e71f5467-12e1-40b5-9406-c3385189390a"
          },
          {
            "reference": "urn:uuid:23d963fd-5eed-43f7-a798-42cfdff31881"
          },
          {
            "reference": "urn:uuid:ad818676-850c-4ef2-aa40-fea586486c03"
          },
          {
            "reference": "urn:uuid:db14157a-b7d9-4f61-80f9-72e8733bcdf6"
          },
          {
            "reference": "urn:uuid:b71a57ca-81c0-4672-847c-3ca1cd31134a"
          },
          {
            "reference": "urn:uuid:a435423f-611c-42a9-8227-d2b94082d282"
          },
          {
            "reference": "urn:uuid:9e0590c3-e5dc-48a6-be85-4696c1ce3df5"
          },
          {
            "reference": "urn:uuid:7072ff98-5dd4-4c15-b9c1-39a5cbe31791"
          },
          {
            "reference": "urn:uuid:afd1ec39-e843-4692-9e5e-7b869866560e"
          },
          {
            "reference": "urn:uuid:f4a35be1-1bb3-4b08-adc6-4441c9e1c78e"
          },
          {
            "reference": "urn:uuid:1cf0b4fc-9368-4d1c-9361-f69e0e2abf1d"
          },
          {
            "reference": "urn:uuid:05535b12-5300-4a62-90bc-57df75174e63"
          },
          {
            "reference": "urn:uuid:11f11812-13c5-4d4f-bd98-5b92378b4b34"
          },
          {
            "reference": "urn:uuid:6940d516-da39-4157-8554-3cf04b8dd5bb"
          },
          {
            "reference": "urn:uuid:0bbca857-a587-46f4-b670-bf374c1982f0"
          },
          {
            "reference": "urn:uuid:a66719ae-7551-4b35-9ec0-897ce13347c7"
          }
        ],
        "status": "registered",
        "code": {
          "coding": [
            {
              "code": "11502-2",
              "system": "http://loinc.org",
              "display": "Laboratory report"
            }
          ]
        },
        "subject": {
          "reference": "urn:uuid:245e47f9-4462-4806-a1de-fc0bc2e1d980",
          "display": "Maria Nohlmans"
        }
      }
    },
    {
      "fullUrl": "urn:uuid:245e47f9-4462-4806-a1de-fc0bc2e1d980",
      "resource": {
        "resourceType": "Patient",
        "id": "245e47f9-4462-4806-a1de-fc0bc2e1d980",
        "meta": {
          "security": [
            {
              "system": "http://terminology.hl7.org/CodeSystem/v3-ActReason",
              "code": "HTEST"
            },
            {
              "system": "http://terminology.hl7.org/CodeSystem/v3-ActReason",
              "code": "TRAIN"
            }
          ],
          "tag": [
            {
              "system": "https://synderai.net/fhir/CodeSystem/tags",
              "code": "synthetic",
              "display": "SYNDERAI Synthetic data"
            }
          ],
          "profile": [
            "http://hl7.eu/fhir/base/StructureDefinition/patient-eu-core"
          ]
        },
        "identifier": [
          {
            "type": {
              "coding": [
                {
                  "code": "PT",
                  "system": "http://terminology.hl7.org/CodeSystem/v2-0203"
                }
              ]
            },
            "system": "http://ec.europa.eu/identifier/eci",
            "value": "6886-506417-1"
          },
          {
            "type": {
              "coding": [
                {
                  "code": "MR",
                  "system": "http://terminology.hl7.org/CodeSystem/v2-0203"
                }
              ]
            },
            "system": "http://local.setting.eu/identifier",
            "value": "2cb21ed6-b617-b1f3-2290-589a710de5ee"
          }
        ],
        "name": [
          {
            "family": "Nohlmans"
          },
          {
            "given": [
              "Maria"
            ]
          },
          {
            "text": "Maria Nohlmans"
          }
        ],
        "address": [
          {
            "line": [
              "Alfons-Wulff-Weg 1"
            ],
            "use": "home",
            "type": "physical",
            "postalCode": "25813",
            "city": "Husum",
            "country": "Germany"
          }
        ],
        "telecom": [
          {
            "system": "phone",
            "value": "+49(0)1911 105501"
          }
        ],
        "extension": [
          {
            "url": "http://hl7.org/fhir/StructureDefinition/patient-nationality",
            "valueCodeableConcept": {
              "coding": [
                {
                  "code": "DE",
                  "system": "http://hl7.org/fhir/ValueSet/country"
                }
              ]
            }
          }
        ],
        "text": {
          "status": "generated",
          "div": "<div xmlns=\"http://www.w3.org/1999/xhtml\"><table class=\"hl7__ips\"><tr><td>Maria Nohlmans</td><td>female</td><td>11-Jun-1947</td></tr></table></div>"
        },
        "gender": "female",
        "birthDate": "1947-06-11"
      }
    },
    {
      "fullUrl": "urn:uuid:4df83865-582c-42f4-86cd-90d93084740c",
      "resource": {
        "resourceType": "ServiceRequest",
        "id": "4df83865-582c-42f4-86cd-90d93084740c",
        "meta": {
          "profile": [
            "http://hl7.eu/fhir/laboratory/StructureDefinition/ServiceRequest-eu-lab"
          ]
        },
        "identifier": [
          {
            "system": "http://example.org",
            "value": "660c7dc4-8b4c-46bb-97e1-97e81c8c7b55"
          }
        ],
        "specimen": [
          {
            "reference": "urn:uuid:74c0254c-a94c-4453-8895-b2b241b5fb78"
          },
          {
            "reference": "urn:uuid:4f950fae-b756-47ac-8533-b85bff5f5927"
          },
          {
            "reference": "urn:uuid:10efc0fd-a0e7-4195-b1de-713570edf212"
          }
        ],
        "reasonCode": [
          {
            "coding": [
              {
                "code": "401314000",
                "system": "http://snomed.info/sct",
                "display": "Acute non-ST segment elevation myocardial infarction"
              }
            ]
          },
          {
            "coding": [
              {
                "code": "157141000119108",
                "system": "http://snomed.info/sct",
                "display": "Proteinuria due to type 2 diabetes mellitus"
              }
            ]
          },
          {
            "coding": [
              {
                "code": "237602007",
                "system": "http://snomed.info/sct",
                "display": "Metabolic syndrome X"
              }
            ]
          },
          {
            "coding": [
              {
                "code": "90781000119102",
                "system": "http://snomed.info/sct",
                "display": "Microalbuminuria due to type 2 diabetes mellitus"
              }
            ]
          },
          {
            "coding": [
              {
                "code": "127013003",
                "system": "http://snomed.info/sct",
                "display": "Disorder of kidney due to diabetes mellitus"
              }
            ]
          },
          {
            "coding": [
              {
                "code": "59621000",
                "system": "http://snomed.info/sct",
                "display": "Essential hypertension"
              }
            ]
          },
          {
            "coding": [
              {
                "code": "271737000",
                "system": "http://snomed.info/sct",
                "display": "Anemia"
              }
            ]
          },
          {
            "coding": [
              {
                "code": "15777000",
                "system": "http://snomed.info/sct",
                "display": "Prediabetes"
              }
            ]
          }
        ],
        "status": "active",
        "intent": "order",
        "code": {
          "coding": [
            {
              "code": "108252007",
              "system": "http://snomed.info/sct",
              "display": "Laboratory procedure"
            }
          ]
        },
        "subject": {
          "reference": "urn:uuid:245e47f9-4462-4806-a1de-fc0bc2e1d980",
          "display": "Maria Nohlmans"
        },
        "requester": {
          "reference": "urn:uuid:050ce533-e3b6-4afb-bf9c-6a2803098181"
        }
      }
    },
    {
      "fullUrl": "urn:uuid:050ce533-e3b6-4afb-bf9c-6a2803098181",
      "resource": {
        "resourceType": "PractitionerRole",
        "id": "050ce533-e3b6-4afb-bf9c-6a2803098181",
        "meta": {
          "profile": [
            "http://hl7.eu/fhir/base/StructureDefinition/practitionerRole-eu"
          ]
        },
        "text": {
          "status": "generated",
          "div": "<div xmlns=\"http://www.w3.org/1999/xhtml\">Provider Role Id: 050ce533-e3b6-4afb-bf9c-6a2803098181</div>"
        },
        "organization": {
          "reference": "urn:uuid:4e84444f-20f4-473c-9e78-d379b6199c6c"
        }
      }
    },
    {
      "fullUrl": "urn:uuid:4e84444f-20f4-473c-9e78-d379b6199c6c",
      "resource": {
        "resourceType": "Organization",
        "id": "4e84444f-20f4-473c-9e78-d379b6199c6c",
        "meta": {
          "profile": [
            "http://hl7.eu/fhir/base/StructureDefinition/organization-eu"
          ]
        },
        "identifier": [
          {
            "assigner": {
              "display": "HL7 Europe"
            },
            "system": "urn:oid:2.16.840.1.113883.2.51.999",
            "value": "bc53c024-8bab-4410-8552-3151ea685a39"
          }
        ],
        "address": [
          {
            "line": [
              "Brinckmannstraße 35"
            ],
            "city": "Husum",
            "postalCode": "25813",
            "country": "Germany"
          }
        ],
        "text": {
          "status": "generated",
          "div": "<div xmlns=\"http://www.w3.org/1999/xhtml\">Provider Organization: Dr. Wolfram Hussels Kieferorthopäde</div>"
        },
        "name": "Dr. Wolfram Hussels Kieferorthopäde"
      }
    },
    {
      "fullUrl": "urn:uuid:74c0254c-a94c-4453-8895-b2b241b5fb78",
      "resource": {
        "resourceType": "Specimen",
        "id": "74c0254c-a94c-4453-8895-b2b241b5fb78",
        "meta": {
          "profile": [
            "http://hl7.eu/fhir/laboratory/StructureDefinition/Specimen-eu-lab"
          ]
        },
        "collection": {
          "collectedDateTime": "2017-04-05"
        },
        "text": {
          "status": "generated",
          "div": "<div xmlns=\"http://www.w3.org/1999/xhtml\"><table class=\"hl7__eu__lab__report\"><tr><th>Specimen</th><th>Collection Date</th></tr><tr><td>Acellular blood (serum or plasma) specimen</td><td><span class=\"nb\">05-Apr-2017</span></td></tr></table></div>"
        },
        "type": {
          "coding": [
            {
              "code": "122592007",
              "system": "http://snomed.info/sct",
              "display": "Acellular blood (serum or plasma) specimen"
            }
          ]
        }
      }
    },
    {
      "fullUrl": "urn:uuid:4f950fae-b756-47ac-8533-b85bff5f5927",
      "resource": {
        "resourceType": "Specimen",
        "id": "4f950fae-b756-47ac-8533-b85bff5f5927",
        "meta": {
          "profile": [
            "http://hl7.eu/fhir/laboratory/StructureDefinition/Specimen-eu-lab"
          ]
        },
        "collection": {
          "collectedDateTime": "2017-04-05"
        },
        "text": {
          "status": "generated",
          "div": "<div xmlns=\"http://www.w3.org/1999/xhtml\"><table class=\"hl7__eu__lab__report\"><tr><th>Specimen</th><th>Collection Date</th></tr><tr><td>Urine specimen</td><td><span class=\"nb\">05-Apr-2017</span></td></tr></table></div>"
        },
        "type": {
          "coding": [
            {
              "code": "122575003",
              "system": "http://snomed.info/sct",
              "display": "Urine specimen"
            }
          ]
        }
      }
    },
    {
      "fullUrl": "urn:uuid:10efc0fd-a0e7-4195-b1de-713570edf212",
      "resource": {
        "resourceType": "Specimen",
        "id": "10efc0fd-a0e7-4195-b1de-713570edf212",
        "meta": {
          "profile": [
            "http://hl7.eu/fhir/laboratory/StructureDefinition/Specimen-eu-lab"
          ]
        },
        "collection": {
          "collectedDateTime": "2017-04-05"
        },
        "text": {
          "status": "generated",
          "div": "<div xmlns=\"http://www.w3.org/1999/xhtml\"><table class=\"hl7__eu__lab__report\"><tr><th>Specimen</th><th>Collection Date</th></tr><tr><td>Whole blood specimen (specimen)</td><td><span class=\"nb\">05-Apr-2017</span></td></tr></table></div>"
        },
        "type": {
          "coding": [
            {
              "code": "258580003",
              "system": "http://snomed.info/sct",
              "display": "Whole blood specimen (specimen)"
            }
          ]
        }
      }
    },
    {
      "fullUrl": "urn:uuid:abef7b03-b723-47b5-987a-c28db30b0c83",
      "resource": {
        "resourceType": "Observation",
        "id": "abef7b03-b723-47b5-987a-c28db30b0c83",
        "meta": {
          "profile": [
            "http://hl7.eu/fhir/laboratory/StructureDefinition/Observation-resultslab-eu-lab"
          ]
        },
        "performer": [
          {
            "display": "The Central European Lab"
          }
        ],
        "category": [
          {
            "coding": [
              {
                "system": "http://terminology.hl7.org/CodeSystem/observation-category",
                "code": "laboratory"
              }
            ]
          }
        ],
        "code": {
          "coding": [
            {
              "code": "2345-7",
              "system": "http://loinc.org",
              "display": "Glucose [Mass/volume] in Serum or Plasma"
            }
          ],
          "text": "Glucose [Mass/volume] in Serum or Plasma"
        },
        "valueQuantity": {
          "system": "http://unitsofmeasure.org",
          "value": 78.2,
          "unit": "mg/dL",
          "code": "mg/dL"
        },
        "referenceRange": [
          {
            "low": {
              "value": 70,
              "code": "mg/dL",
              "system": "http://unitsofmeasure.org"
            }
          },
          {
            "high": {
              "value": 140,
              "code": "mg/dL",
              "system": "http://unitsofmeasure.org"
            }
          }
        ],
        "text": {
          "status": "generated",
          "div": "<div xmlns=\"http://www.w3.org/1999/xhtml\"><table class=\"hl7__eu__lab__report\"><tr><th>Test</th><th>05-Apr-2017</th><th>Reference&#xA0;Range</th><th>Unit</th></tr><tr><td>Glucose [Mass/volume] in Serum or Plasma</td><td>78.2</td><td>70 - 140</td><td></td><td>mg/dL</td></tr></table></div>"
        },
        "status": "final",
        "subject": {
          "reference": "urn:uuid:245e47f9-4462-4806-a1de-fc0bc2e1d980",
          "display": "Maria Nohlmans"
        },
        "effectiveDateTime": "2017-04-05T11:02:39Z",
        "specimen": {
          "reference": "urn:uuid:74c0254c-a94c-4453-8895-b2b241b5fb78"
        }
      }
    },
    {
      "fullUrl": "urn:uuid:bfd230ec-dffb-4e78-9c54-07c32c86b37a",
      "resource": {
        "resourceType": "Observation",
        "id": "bfd230ec-dffb-4e78-9c54-07c32c86b37a",
        "meta": {
          "profile": [
            "http://hl7.eu/fhir/laboratory/StructureDefinition/Observation-resultslab-eu-lab"
          ]
        },
        "performer": [
          {
            "display": "The Central European Lab"
          }
        ],
        "category": [
          {
            "coding": [
              {
                "system": "http://terminology.hl7.org/CodeSystem/observation-category",
                "code": "laboratory"
              }
            ]
          }
        ],
        "code": {
          "coding": [
            {
              "code": "3094-0",
              "system": "http://loinc.org",
              "display": "Urea nitrogen [Mass/volume] in Serum or Plasma"
            }
          ],
          "text": "Urea nitrogen [Mass/volume] in Serum or Plasma"
        },
        "valueQuantity": {
          "system": "http://unitsofmeasure.org",
          "value": 7.8,
          "unit": "mg/dL",
          "code": "mg/dL"
        },
        "referenceRange": [
          {
            "low": {
              "value": 7,
              "code": "mg/dL",
              "system": "http://unitsofmeasure.org"
            }
          },
          {
            "high": {
              "value": 20,
              "code": "mg/dL",
              "system": "http://unitsofmeasure.org"
            }
          }
        ],
        "text": {
          "status": "generated",
          "div": "<div xmlns=\"http://www.w3.org/1999/xhtml\"><table class=\"hl7__eu__lab__report\"><tr><th>Test</th><th>05-Apr-2017</th><th>Reference&#xA0;Range</th><th>Unit</th></tr><tr><td>Urea nitrogen [Mass/volume] in Serum or Plasma</td><td>7.8</td><td>7 - 20</td><td></td><td>mg/dL</td></tr></table></div>"
        },
        "status": "final",
        "subject": {
          "reference": "urn:uuid:245e47f9-4462-4806-a1de-fc0bc2e1d980",
          "display": "Maria Nohlmans"
        },
        "effectiveDateTime": "2017-04-05T11:02:39Z",
        "specimen": {
          "reference": "urn:uuid:74c0254c-a94c-4453-8895-b2b241b5fb78"
        }
      }
    },
    {
      "fullUrl": "urn:uuid:c1d0b81f-6aca-460d-9f82-34ff4efda23e",
      "resource": {
        "resourceType": "Observation",
        "id": "c1d0b81f-6aca-460d-9f82-34ff4efda23e",
        "meta": {
          "profile": [
            "http://hl7.eu/fhir/laboratory/StructureDefinition/Observation-resultslab-eu-lab"
          ]
        },
        "performer": [
          {
            "display": "The Central European Lab"
          }
        ],
        "category": [
          {
            "coding": [
              {
                "system": "http://terminology.hl7.org/CodeSystem/observation-category",
                "code": "laboratory"
              }
            ]
          }
        ],
        "code": {
          "coding": [
            {
              "code": "2160-0",
              "system": "http://loinc.org",
              "display": "Creatinine [Mass/volume] in Serum or Plasma"
            }
          ],
          "text": "Creatinine [Mass/volume] in Serum or Plasma"
        },
        "valueQuantity": {
          "system": "http://unitsofmeasure.org",
          "value": 2.3,
          "unit": "mg/dL",
          "code": "mg/dL"
        },
        "referenceRange": [
          {
            "low": {
              "value": 0.6,
              "code": "mg/dL",
              "system": "http://unitsofmeasure.org"
            }
          },
          {
            "high": {
              "value": 1.3,
              "code": "mg/dL",
              "system": "http://unitsofmeasure.org"
            }
          }
        ],
        "interpretation": [
          {
            "coding": [
              {
                "code": "H",
                "system": "http://terminology.hl7.org/CodeSystem/v3-ObservationInterpretation",
                "display": "High"
              }
            ]
          }
        ],
        "text": {
          "status": "generated",
          "div": "<div xmlns=\"http://www.w3.org/1999/xhtml\"><table class=\"hl7__eu__lab__report\"><tr><th>Test</th><th>05-Apr-2017</th><th>Reference&#xA0;Range</th><th>Unit</th></tr><tr><td>Creatinine [Mass/volume] in Serum or Plasma</td><td>2.3</td><td>0.6 - 1.3</td><td>H</td><td>mg/dL</td></tr></table></div>"
        },
        "status": "final",
        "subject": {
          "reference": "urn:uuid:245e47f9-4462-4806-a1de-fc0bc2e1d980",
          "display": "Maria Nohlmans"
        },
        "effectiveDateTime": "2017-04-05T11:02:39Z",
        "specimen": {
          "reference": "urn:uuid:74c0254c-a94c-4453-8895-b2b241b5fb78"
        }
      }
    },
    {
      "fullUrl": "urn:uuid:5b6e8212-ab04-49d3-a6c9-12fd63f45a7e",
      "resource": {
        "resourceType": "Observation",
        "id": "5b6e8212-ab04-49d3-a6c9-12fd63f45a7e",
        "meta": {
          "profile": [
            "http://hl7.eu/fhir/laboratory/StructureDefinition/Observation-resultslab-eu-lab"
          ]
        },
        "performer": [
          {
            "display": "The Central European Lab"
          }
        ],
        "category": [
          {
            "coding": [
              {
                "system": "http://terminology.hl7.org/CodeSystem/observation-category",
                "code": "laboratory"
              }
            ]
          }
        ],
        "code": {
          "coding": [
            {
              "code": "17861-6",
              "system": "http://loinc.org",
              "display": "Calcium [Mass/volume] in Serum or Plasma"
            }
          ],
          "text": "Calcium [Mass/volume] in Serum or Plasma"
        },
        "valueQuantity": {
          "system": "http://unitsofmeasure.org",
          "value": 10,
          "unit": "mg/dL",
          "code": "mg/dL"
        },
        "referenceRange": [
          {
            "low": {
              "value": 8.6,
              "code": "mg/dL",
              "system": "http://unitsofmeasure.org"
            }
          },
          {
            "high": {
              "value": 10.4,
              "code": "mg/dL",
              "system": "http://unitsofmeasure.org"
            }
          }
        ],
        "text": {
          "status": "generated",
          "div": "<div xmlns=\"http://www.w3.org/1999/xhtml\"><table class=\"hl7__eu__lab__report\"><tr><th>Test</th><th>05-Apr-2017</th><th>Reference&#xA0;Range</th><th>Unit</th></tr><tr><td>Calcium [Mass/volume] in Serum or Plasma</td><td>10.0</td><td>8.6 - 10.4</td><td></td><td>mg/dL</td></tr></table></div>"
        },
        "status": "final",
        "subject": {
          "reference": "urn:uuid:245e47f9-4462-4806-a1de-fc0bc2e1d980",
          "display": "Maria Nohlmans"
        },
        "effectiveDateTime": "2017-04-05T11:02:39Z",
        "specimen": {
          "reference": "urn:uuid:74c0254c-a94c-4453-8895-b2b241b5fb78"
        }
      }
    },
    {
      "fullUrl": "urn:uuid:8e413ec4-9aaa-4a47-a707-9e4f3e48cb40",
      "resource": {
        "resourceType": "Observation",
        "id": "8e413ec4-9aaa-4a47-a707-9e4f3e48cb40",
        "meta": {
          "profile": [
            "http://hl7.eu/fhir/laboratory/StructureDefinition/Observation-resultslab-eu-lab"
          ]
        },
        "performer": [
          {
            "display": "The Central European Lab"
          }
        ],
        "category": [
          {
            "coding": [
              {
                "system": "http://terminology.hl7.org/CodeSystem/observation-category",
                "code": "laboratory"
              }
            ]
          }
        ],
        "code": {
          "coding": [
            {
              "code": "2951-2",
              "system": "http://loinc.org",
              "display": "Sodium [Moles/volume] in Serum or Plasma"
            }
          ],
          "text": "Sodium [Moles/volume] in Serum or Plasma"
        },
        "valueQuantity": {
          "system": "http://unitsofmeasure.org",
          "value": 138,
          "unit": "mmol/L",
          "code": "mmol/L"
        },
        "referenceRange": [
          {
            "low": {
              "value": 135,
              "code": "mmol/L",
              "system": "http://unitsofmeasure.org"
            }
          },
          {
            "high": {
              "value": 145,
              "code": "mmol/L",
              "system": "http://unitsofmeasure.org"
            }
          }
        ],
        "text": {
          "status": "generated",
          "div": "<div xmlns=\"http://www.w3.org/1999/xhtml\"><table class=\"hl7__eu__lab__report\"><tr><th>Test</th><th>05-Apr-2017</th><th>Reference&#xA0;Range</th><th>Unit</th></tr><tr><td>Sodium [Moles/volume] in Serum or Plasma</td><td>138.0</td><td>135 - 145</td><td></td><td>mmol/L</td></tr></table></div>"
        },
        "status": "final",
        "subject": {
          "reference": "urn:uuid:245e47f9-4462-4806-a1de-fc0bc2e1d980",
          "display": "Maria Nohlmans"
        },
        "effectiveDateTime": "2017-04-05T11:02:39Z",
        "specimen": {
          "reference": "urn:uuid:74c0254c-a94c-4453-8895-b2b241b5fb78"
        }
      }
    },
    {
      "fullUrl": "urn:uuid:01bf66dd-ad1d-4c07-88fa-a95770d80cd1",
      "resource": {
        "resourceType": "Observation",
        "id": "01bf66dd-ad1d-4c07-88fa-a95770d80cd1",
        "meta": {
          "profile": [
            "http://hl7.eu/fhir/laboratory/StructureDefinition/Observation-resultslab-eu-lab"
          ]
        },
        "performer": [
          {
            "display": "The Central European Lab"
          }
        ],
        "category": [
          {
            "coding": [
              {
                "system": "http://terminology.hl7.org/CodeSystem/observation-category",
                "code": "laboratory"
              }
            ]
          }
        ],
        "code": {
          "coding": [
            {
              "code": "2823-3",
              "system": "http://loinc.org",
              "display": "Potassium [Moles/volume] in Serum or Plasma"
            }
          ],
          "text": "Potassium [Moles/volume] in Serum or Plasma"
        },
        "valueQuantity": {
          "system": "http://unitsofmeasure.org",
          "value": 4,
          "unit": "mmol/L",
          "code": "mmol/L"
        },
        "referenceRange": [
          {
            "low": {
              "value": 3.5,
              "code": "mmol/L",
              "system": "http://unitsofmeasure.org"
            }
          },
          {
            "high": {
              "value": 5.1,
              "code": "mmol/L",
              "system": "http://unitsofmeasure.org"
            }
          }
        ],
        "text": {
          "status": "generated",
          "div": "<div xmlns=\"http://www.w3.org/1999/xhtml\"><table class=\"hl7__eu__lab__report\"><tr><th>Test</th><th>05-Apr-2017</th><th>Reference&#xA0;Range</th><th>Unit</th></tr><tr><td>Potassium [Moles/volume] in Serum or Plasma</td><td>4.0</td><td>3.5 - 5.1</td><td></td><td>mmol/L</td></tr></table></div>"
        },
        "status": "final",
        "subject": {
          "reference": "urn:uuid:245e47f9-4462-4806-a1de-fc0bc2e1d980",
          "display": "Maria Nohlmans"
        },
        "effectiveDateTime": "2017-04-05T11:02:39Z",
        "specimen": {
          "reference": "urn:uuid:74c0254c-a94c-4453-8895-b2b241b5fb78"
        }
      }
    },
    {
      "fullUrl": "urn:uuid:39b464fd-0a60-4e40-9109-8e238502f9e7",
      "resource": {
        "resourceType": "Observation",
        "id": "39b464fd-0a60-4e40-9109-8e238502f9e7",
        "meta": {
          "profile": [
            "http://hl7.eu/fhir/laboratory/StructureDefinition/Observation-resultslab-eu-lab"
          ]
        },
        "performer": [
          {
            "display": "The Central European Lab"
          }
        ],
        "category": [
          {
            "coding": [
              {
                "system": "http://terminology.hl7.org/CodeSystem/observation-category",
                "code": "laboratory"
              }
            ]
          }
        ],
        "code": {
          "coding": [
            {
              "code": "2075-0",
              "system": "http://loinc.org",
              "display": "Chloride [Moles/volume] in Serum or Plasma"
            }
          ],
          "text": "Chloride [Moles/volume] in Serum or Plasma"
        },
        "valueQuantity": {
          "system": "http://unitsofmeasure.org",
          "value": 101.8,
          "unit": "mmol/L",
          "code": "mmol/L"
        },
        "referenceRange": [
          {
            "low": {
              "value": 98,
              "code": "mmol/L",
              "system": "http://unitsofmeasure.org"
            }
          },
          {
            "high": {
              "value": 108,
              "code": "mmol/L",
              "system": "http://unitsofmeasure.org"
            }
          }
        ],
        "text": {
          "status": "generated",
          "div": "<div xmlns=\"http://www.w3.org/1999/xhtml\"><table class=\"hl7__eu__lab__report\"><tr><th>Test</th><th>05-Apr-2017</th><th>Reference&#xA0;Range</th><th>Unit</th></tr><tr><td>Chloride [Moles/volume] in Serum or Plasma</td><td>101.8</td><td>98 - 108</td><td></td><td>mmol/L</td></tr></table></div>"
        },
        "status": "final",
        "subject": {
          "reference": "urn:uuid:245e47f9-4462-4806-a1de-fc0bc2e1d980",
          "display": "Maria Nohlmans"
        },
        "effectiveDateTime": "2017-04-05T11:02:39Z",
        "specimen": {
          "reference": "urn:uuid:74c0254c-a94c-4453-8895-b2b241b5fb78"
        }
      }
    },
    {
      "fullUrl": "urn:uuid:5d4d5341-f69d-40cb-b691-e5abebf704d6",
      "resource": {
        "resourceType": "Observation",
        "id": "5d4d5341-f69d-40cb-b691-e5abebf704d6",
        "meta": {
          "profile": [
            "http://hl7.eu/fhir/laboratory/StructureDefinition/Observation-resultslab-eu-lab"
          ]
        },
        "performer": [
          {
            "display": "The Central European Lab"
          }
        ],
        "category": [
          {
            "coding": [
              {
                "system": "http://terminology.hl7.org/CodeSystem/observation-category",
                "code": "laboratory"
              }
            ]
          }
        ],
        "code": {
          "coding": [
            {
              "code": "2028-9",
              "system": "http://loinc.org",
              "display": "Carbon dioxide, total [Moles/volume] in Serum or Plasma"
            }
          ],
          "text": "Carbon dioxide, total [Moles/volume] in Serum or Plasma"
        },
        "valueQuantity": {
          "system": "http://unitsofmeasure.org",
          "value": 21.6,
          "unit": "mmol/L",
          "code": "mmol/L"
        },
        "referenceRange": [
          {
            "low": {
              "value": 22,
              "code": "mmol/L",
              "system": "http://unitsofmeasure.org"
            }
          },
          {
            "high": {
              "value": 32,
              "code": "mmol/L",
              "system": "http://unitsofmeasure.org"
            }
          }
        ],
        "interpretation": [
          {
            "coding": [
              {
                "code": "L",
                "system": "http://terminology.hl7.org/CodeSystem/v3-ObservationInterpretation",
                "display": "Low"
              }
            ]
          }
        ],
        "text": {
          "status": "generated",
          "div": "<div xmlns=\"http://www.w3.org/1999/xhtml\"><table class=\"hl7__eu__lab__report\"><tr><th>Test</th><th>05-Apr-2017</th><th>Reference&#xA0;Range</th><th>Unit</th></tr><tr><td>Carbon dioxide, total [Moles/volume] in Serum or Plasma</td><td>21.6</td><td>22 - 32</td><td>L</td><td>mmol/L</td></tr></table></div>"
        },
        "status": "final",
        "subject": {
          "reference": "urn:uuid:245e47f9-4462-4806-a1de-fc0bc2e1d980",
          "display": "Maria Nohlmans"
        },
        "effectiveDateTime": "2017-04-05T11:02:39Z",
        "specimen": {
          "reference": "urn:uuid:74c0254c-a94c-4453-8895-b2b241b5fb78"
        }
      }
    },
    {
      "fullUrl": "urn:uuid:f9fb226d-a5e9-4fe0-9c49-0ca831214c0c",
      "resource": {
        "resourceType": "Observation",
        "id": "f9fb226d-a5e9-4fe0-9c49-0ca831214c0c",
        "meta": {
          "profile": [
            "http://hl7.eu/fhir/laboratory/StructureDefinition/Observation-resultslab-eu-lab"
          ]
        },
        "performer": [
          {
            "display": "The Central European Lab"
          }
        ],
        "category": [
          {
            "coding": [
              {
                "system": "http://terminology.hl7.org/CodeSystem/observation-category",
                "code": "laboratory"
              }
            ]
          }
        ],
        "code": {
          "coding": [
            {
              "code": "5767-9",
              "system": "http://loinc.org",
              "display": "Appearance of Urine"
            }
          ],
          "text": "Appearance of Urine"
        },
        "text": {
          "status": "generated",
          "div": "<div xmlns=\"http://www.w3.org/1999/xhtml\"><table class=\"hl7__eu__lab__report\"><tr><th>Test</th><th>05-Apr-2017</th><th>Reference&#xA0;Range</th><th>Unit</th></tr><tr><td>Appearance of Urine</td></tr></table></div>"
        },
        "status": "final",
        "subject": {
          "reference": "urn:uuid:245e47f9-4462-4806-a1de-fc0bc2e1d980",
          "display": "Maria Nohlmans"
        },
        "effectiveDateTime": "2017-04-05T11:02:39Z",
        "specimen": {
          "reference": "urn:uuid:4f950fae-b756-47ac-8533-b85bff5f5927"
        }
      }
    },
    {
      "fullUrl": "urn:uuid:978beb27-7b23-4376-a93b-e0d1c30e8274",
      "resource": {
        "resourceType": "Observation",
        "id": "978beb27-7b23-4376-a93b-e0d1c30e8274",
        "meta": {
          "profile": [
            "http://hl7.eu/fhir/laboratory/StructureDefinition/Observation-resultslab-eu-lab"
          ]
        },
        "performer": [
          {
            "display": "The Central European Lab"
          }
        ],
        "category": [
          {
            "coding": [
              {
                "system": "http://terminology.hl7.org/CodeSystem/observation-category",
                "code": "laboratory"
              }
            ]
          }
        ],
        "code": {
          "coding": [
            {
              "code": "34533-0",
              "system": "http://loinc.org",
              "display": "Odor of Urine"
            }
          ],
          "text": "Odor of Urine"
        },
        "text": {
          "status": "generated",
          "div": "<div xmlns=\"http://www.w3.org/1999/xhtml\"><table class=\"hl7__eu__lab__report\"><tr><th>Test</th><th>05-Apr-2017</th><th>Reference&#xA0;Range</th><th>Unit</th></tr><tr><td>Odor of Urine</td></tr></table></div>"
        },
        "status": "final",
        "subject": {
          "reference": "urn:uuid:245e47f9-4462-4806-a1de-fc0bc2e1d980",
          "display": "Maria Nohlmans"
        },
        "effectiveDateTime": "2017-04-05T11:02:39Z",
        "specimen": {
          "reference": "urn:uuid:4f950fae-b756-47ac-8533-b85bff5f5927"
        }
      }
    },
    {
      "fullUrl": "urn:uuid:6ce1c685-1597-4827-852d-11bd99fb1a62",
      "resource": {
        "resourceType": "Observation",
        "id": "6ce1c685-1597-4827-852d-11bd99fb1a62",
        "meta": {
          "profile": [
            "http://hl7.eu/fhir/laboratory/StructureDefinition/Observation-resultslab-eu-lab"
          ]
        },
        "performer": [
          {
            "display": "The Central European Lab"
          }
        ],
        "category": [
          {
            "coding": [
              {
                "system": "http://terminology.hl7.org/CodeSystem/observation-category",
                "code": "laboratory"
              }
            ]
          }
        ],
        "code": {
          "coding": [
            {
              "code": "32167-9",
              "system": "http://loinc.org",
              "display": "Clarity of Urine"
            }
          ],
          "text": "Clarity of Urine"
        },
        "text": {
          "status": "generated",
          "div": "<div xmlns=\"http://www.w3.org/1999/xhtml\"><table class=\"hl7__eu__lab__report\"><tr><th>Test</th><th>05-Apr-2017</th><th>Reference&#xA0;Range</th><th>Unit</th></tr><tr><td>Clarity of Urine</td></tr></table></div>"
        },
        "status": "final",
        "subject": {
          "reference": "urn:uuid:245e47f9-4462-4806-a1de-fc0bc2e1d980",
          "display": "Maria Nohlmans"
        },
        "effectiveDateTime": "2017-04-05T11:02:39Z",
        "specimen": {
          "reference": "urn:uuid:4f950fae-b756-47ac-8533-b85bff5f5927"
        }
      }
    },
    {
      "fullUrl": "urn:uuid:6e309d0a-2394-4840-b143-cb0aaab3814f",
      "resource": {
        "resourceType": "Observation",
        "id": "6e309d0a-2394-4840-b143-cb0aaab3814f",
        "meta": {
          "profile": [
            "http://hl7.eu/fhir/laboratory/StructureDefinition/Observation-resultslab-eu-lab"
          ]
        },
        "performer": [
          {
            "display": "The Central European Lab"
          }
        ],
        "category": [
          {
            "coding": [
              {
                "system": "http://terminology.hl7.org/CodeSystem/observation-category",
                "code": "laboratory"
              }
            ]
          }
        ],
        "code": {
          "coding": [
            {
              "code": "5778-6",
              "system": "http://loinc.org",
              "display": "Color of Urine"
            }
          ],
          "text": "Color of Urine"
        },
        "text": {
          "status": "generated",
          "div": "<div xmlns=\"http://www.w3.org/1999/xhtml\"><table class=\"hl7__eu__lab__report\"><tr><th>Test</th><th>05-Apr-2017</th><th>Reference&#xA0;Range</th><th>Unit</th></tr><tr><td>Color of Urine</td></tr></table></div>"
        },
        "status": "final",
        "subject": {
          "reference": "urn:uuid:245e47f9-4462-4806-a1de-fc0bc2e1d980",
          "display": "Maria Nohlmans"
        },
        "effectiveDateTime": "2017-04-05T11:02:39Z",
        "specimen": {
          "reference": "urn:uuid:4f950fae-b756-47ac-8533-b85bff5f5927"
        }
      }
    },
    {
      "fullUrl": "urn:uuid:6a57ef08-825b-428f-91cc-9482c791b044",
      "resource": {
        "resourceType": "Observation",
        "id": "6a57ef08-825b-428f-91cc-9482c791b044",
        "meta": {
          "profile": [
            "http://hl7.eu/fhir/laboratory/StructureDefinition/Observation-resultslab-eu-lab"
          ]
        },
        "performer": [
          {
            "display": "The Central European Lab"
          }
        ],
        "category": [
          {
            "coding": [
              {
                "system": "http://terminology.hl7.org/CodeSystem/observation-category",
                "code": "laboratory"
              }
            ]
          }
        ],
        "code": {
          "coding": [
            {
              "code": "5792-7",
              "system": "http://loinc.org",
              "display": "Glucose [Mass/volume] in Urine by Test strip"
            }
          ],
          "text": "Glucose [Mass/volume] in Urine by Test strip"
        },
        "valueQuantity": {
          "system": "http://unitsofmeasure.org",
          "value": 0.7,
          "unit": "mg/dL",
          "code": "mg/dL"
        },
        "referenceRange": [
          {
            "low": {
              "value": 0.8,
              "code": "mg/dL",
              "system": "http://unitsofmeasure.org"
            }
          },
          {
            "high": {
              "value": 0,
              "code": "mg/dL",
              "system": "http://unitsofmeasure.org"
            }
          }
        ],
        "interpretation": [
          {
            "coding": [
              {
                "code": "L",
                "system": "http://terminology.hl7.org/CodeSystem/v3-ObservationInterpretation",
                "display": "Low"
              }
            ]
          }
        ],
        "text": {
          "status": "generated",
          "div": "<div xmlns=\"http://www.w3.org/1999/xhtml\"><table class=\"hl7__eu__lab__report\"><tr><th>Test</th><th>05-Apr-2017</th><th>Reference&#xA0;Range</th><th>Unit</th></tr><tr><td>Glucose [Mass/volume] in Urine by Test strip</td><td>0.7</td><td>0.8 - 0</td><td>L</td><td>mg/dL</td></tr></table></div>"
        },
        "status": "final",
        "subject": {
          "reference": "urn:uuid:245e47f9-4462-4806-a1de-fc0bc2e1d980",
          "display": "Maria Nohlmans"
        },
        "effectiveDateTime": "2017-04-05T11:02:39Z",
        "specimen": {
          "reference": "urn:uuid:4f950fae-b756-47ac-8533-b85bff5f5927"
        }
      }
    },
    {
      "fullUrl": "urn:uuid:8e410ca1-785a-4b8d-b853-5439395e3e80",
      "resource": {
        "resourceType": "Observation",
        "id": "8e410ca1-785a-4b8d-b853-5439395e3e80",
        "meta": {
          "profile": [
            "http://hl7.eu/fhir/laboratory/StructureDefinition/Observation-resultslab-eu-lab"
          ]
        },
        "performer": [
          {
            "display": "The Central European Lab"
          }
        ],
        "category": [
          {
            "coding": [
              {
                "system": "http://terminology.hl7.org/CodeSystem/observation-category",
                "code": "laboratory"
              }
            ]
          }
        ],
        "code": {
          "coding": [
            {
              "code": "25428-4",
              "system": "http://loinc.org",
              "display": "Glucose [Presence] in Urine by Test strip"
            }
          ],
          "text": "Glucose [Presence] in Urine by Test strip"
        },
        "text": {
          "status": "generated",
          "div": "<div xmlns=\"http://www.w3.org/1999/xhtml\"><table class=\"hl7__eu__lab__report\"><tr><th>Test</th><th>05-Apr-2017</th><th>Reference&#xA0;Range</th><th>Unit</th></tr><tr><td>Glucose [Presence] in Urine by Test strip</td></tr></table></div>"
        },
        "status": "final",
        "subject": {
          "reference": "urn:uuid:245e47f9-4462-4806-a1de-fc0bc2e1d980",
          "display": "Maria Nohlmans"
        },
        "effectiveDateTime": "2017-04-05T11:02:39Z",
        "specimen": {
          "reference": "urn:uuid:4f950fae-b756-47ac-8533-b85bff5f5927"
        }
      }
    },
    {
      "fullUrl": "urn:uuid:d12e9295-73be-481c-af8c-1abe5ea52186",
      "resource": {
        "resourceType": "Observation",
        "id": "d12e9295-73be-481c-af8c-1abe5ea52186",
        "meta": {
          "profile": [
            "http://hl7.eu/fhir/laboratory/StructureDefinition/Observation-resultslab-eu-lab"
          ]
        },
        "performer": [
          {
            "display": "The Central European Lab"
          }
        ],
        "category": [
          {
            "coding": [
              {
                "system": "http://terminology.hl7.org/CodeSystem/observation-category",
                "code": "laboratory"
              }
            ]
          }
        ],
        "code": {
          "coding": [
            {
              "code": "20505-4",
              "system": "http://loinc.org",
              "display": "Bilirubin.total [Mass/volume] in Urine by Test strip"
            }
          ],
          "text": "Bilirubin.total [Mass/volume] in Urine by Test strip"
        },
        "valueQuantity": {
          "system": "http://unitsofmeasure.org",
          "value": 1.3,
          "unit": "mg/dL",
          "code": "mg/dL"
        },
        "referenceRange": [
          {
            "low": {
              "value": 0,
              "code": "mg/dL",
              "system": "http://unitsofmeasure.org"
            }
          },
          {
            "high": {
              "value": 1.5,
              "code": "mg/dL",
              "system": "http://unitsofmeasure.org"
            }
          }
        ],
        "text": {
          "status": "generated",
          "div": "<div xmlns=\"http://www.w3.org/1999/xhtml\"><table class=\"hl7__eu__lab__report\"><tr><th>Test</th><th>05-Apr-2017</th><th>Reference&#xA0;Range</th><th>Unit</th></tr><tr><td>Bilirubin.total [Mass/volume] in Urine by Test strip</td><td>1.3</td><td>0 - 1.5</td><td></td><td>mg/dL</td></tr></table></div>"
        },
        "status": "final",
        "subject": {
          "reference": "urn:uuid:245e47f9-4462-4806-a1de-fc0bc2e1d980",
          "display": "Maria Nohlmans"
        },
        "effectiveDateTime": "2017-04-05T11:02:39Z",
        "specimen": {
          "reference": "urn:uuid:4f950fae-b756-47ac-8533-b85bff5f5927"
        }
      }
    },
    {
      "fullUrl": "urn:uuid:eee67d58-abd7-4137-b990-176c0dcf45e1",
      "resource": {
        "resourceType": "Observation",
        "id": "eee67d58-abd7-4137-b990-176c0dcf45e1",
        "meta": {
          "profile": [
            "http://hl7.eu/fhir/laboratory/StructureDefinition/Observation-resultslab-eu-lab"
          ]
        },
        "performer": [
          {
            "display": "The Central European Lab"
          }
        ],
        "category": [
          {
            "coding": [
              {
                "system": "http://terminology.hl7.org/CodeSystem/observation-category",
                "code": "laboratory"
              }
            ]
          }
        ],
        "code": {
          "coding": [
            {
              "code": "5770-3",
              "system": "http://loinc.org",
              "display": "Bilirubin.total [Presence] in Urine by Test strip"
            }
          ],
          "text": "Bilirubin.total [Presence] in Urine by Test strip"
        },
        "text": {
          "status": "generated",
          "div": "<div xmlns=\"http://www.w3.org/1999/xhtml\"><table class=\"hl7__eu__lab__report\"><tr><th>Test</th><th>05-Apr-2017</th><th>Reference&#xA0;Range</th><th>Unit</th></tr><tr><td>Bilirubin.total [Presence] in Urine by Test strip</td></tr></table></div>"
        },
        "status": "final",
        "subject": {
          "reference": "urn:uuid:245e47f9-4462-4806-a1de-fc0bc2e1d980",
          "display": "Maria Nohlmans"
        },
        "effectiveDateTime": "2017-04-05T11:02:39Z",
        "specimen": {
          "reference": "urn:uuid:4f950fae-b756-47ac-8533-b85bff5f5927"
        }
      }
    },
    {
      "fullUrl": "urn:uuid:b43ce608-0871-4d94-9519-5cf60bf915d4",
      "resource": {
        "resourceType": "Observation",
        "id": "b43ce608-0871-4d94-9519-5cf60bf915d4",
        "meta": {
          "profile": [
            "http://hl7.eu/fhir/laboratory/StructureDefinition/Observation-resultslab-eu-lab"
          ]
        },
        "performer": [
          {
            "display": "The Central European Lab"
          }
        ],
        "category": [
          {
            "coding": [
              {
                "system": "http://terminology.hl7.org/CodeSystem/observation-category",
                "code": "laboratory"
              }
            ]
          }
        ],
        "code": {
          "coding": [
            {
              "code": "5797-6",
              "system": "http://loinc.org",
              "display": "Ketones [Mass/volume] in Urine by Test strip"
            }
          ],
          "text": "Ketones [Mass/volume] in Urine by Test strip"
        },
        "valueQuantity": {
          "system": "http://unitsofmeasure.org",
          "value": 17.2,
          "unit": "mg/dL",
          "code": "mg/dL"
        },
        "referenceRange": [
          {
            "low": {
              "value": 0,
              "code": "mg/dL",
              "system": "http://unitsofmeasure.org"
            }
          },
          {
            "high": {
              "value": 8,
              "code": "mg/dL",
              "system": "http://unitsofmeasure.org"
            }
          }
        ],
        "interpretation": [
          {
            "coding": [
              {
                "code": "H",
                "system": "http://terminology.hl7.org/CodeSystem/v3-ObservationInterpretation",
                "display": "High"
              }
            ]
          }
        ],
        "text": {
          "status": "generated",
          "div": "<div xmlns=\"http://www.w3.org/1999/xhtml\"><table class=\"hl7__eu__lab__report\"><tr><th>Test</th><th>05-Apr-2017</th><th>Reference&#xA0;Range</th><th>Unit</th></tr><tr><td>Ketones [Mass/volume] in Urine by Test strip</td><td>17.2</td><td>0 - 8</td><td>H</td><td>mg/dL</td></tr></table></div>"
        },
        "status": "final",
        "subject": {
          "reference": "urn:uuid:245e47f9-4462-4806-a1de-fc0bc2e1d980",
          "display": "Maria Nohlmans"
        },
        "effectiveDateTime": "2017-04-05T11:02:39Z",
        "specimen": {
          "reference": "urn:uuid:4f950fae-b756-47ac-8533-b85bff5f5927"
        }
      }
    },
    {
      "fullUrl": "urn:uuid:99461313-8cd0-486c-9dab-dfe2e84f76b7",
      "resource": {
        "resourceType": "Observation",
        "id": "99461313-8cd0-486c-9dab-dfe2e84f76b7",
        "meta": {
          "profile": [
            "http://hl7.eu/fhir/laboratory/StructureDefinition/Observation-resultslab-eu-lab"
          ]
        },
        "performer": [
          {
            "display": "The Central European Lab"
          }
        ],
        "category": [
          {
            "coding": [
              {
                "system": "http://terminology.hl7.org/CodeSystem/observation-category",
                "code": "laboratory"
              }
            ]
          }
        ],
        "code": {
          "coding": [
            {
              "code": "2514-8",
              "system": "http://loinc.org",
              "display": "Ketones [Presence] in Urine by Test strip"
            }
          ],
          "text": "Ketones [Presence] in Urine by Test strip"
        },
        "text": {
          "status": "generated",
          "div": "<div xmlns=\"http://www.w3.org/1999/xhtml\"><table class=\"hl7__eu__lab__report\"><tr><th>Test</th><th>05-Apr-2017</th><th>Reference&#xA0;Range</th><th>Unit</th></tr><tr><td>Ketones [Presence] in Urine by Test strip</td></tr></table></div>"
        },
        "status": "final",
        "subject": {
          "reference": "urn:uuid:245e47f9-4462-4806-a1de-fc0bc2e1d980",
          "display": "Maria Nohlmans"
        },
        "effectiveDateTime": "2017-04-05T11:02:39Z",
        "specimen": {
          "reference": "urn:uuid:4f950fae-b756-47ac-8533-b85bff5f5927"
        }
      }
    },
    {
      "fullUrl": "urn:uuid:e71f5467-12e1-40b5-9406-c3385189390a",
      "resource": {
        "resourceType": "Observation",
        "id": "e71f5467-12e1-40b5-9406-c3385189390a",
        "meta": {
          "profile": [
            "http://hl7.eu/fhir/laboratory/StructureDefinition/Observation-resultslab-eu-lab"
          ]
        },
        "performer": [
          {
            "display": "The Central European Lab"
          }
        ],
        "category": [
          {
            "coding": [
              {
                "system": "http://terminology.hl7.org/CodeSystem/observation-category",
                "code": "laboratory"
              }
            ]
          }
        ],
        "code": {
          "coding": [
            {
              "code": "5811-5",
              "system": "http://loinc.org",
              "display": "Specific gravity of Urine by Test strip"
            }
          ],
          "text": "Specific gravity of Urine by Test strip"
        },
        "valueQuantity": {
          "system": "http://unitsofmeasure.org",
          "value": 1,
          "unit": "{nominal}",
          "code": "{nominal}"
        },
        "referenceRange": [
          {
            "low": {
              "value": 1.01,
              "code": "g/mL",
              "system": "http://unitsofmeasure.org"
            }
          },
          {
            "high": {
              "value": 1.03,
              "code": "g/mL",
              "system": "http://unitsofmeasure.org"
            }
          }
        ],
        "interpretation": [
          {
            "coding": [
              {
                "code": "L",
                "system": "http://terminology.hl7.org/CodeSystem/v3-ObservationInterpretation",
                "display": "Low"
              }
            ]
          }
        ],
        "text": {
          "status": "generated",
          "div": "<div xmlns=\"http://www.w3.org/1999/xhtml\"><table class=\"hl7__eu__lab__report\"><tr><th>Test</th><th>05-Apr-2017</th><th>Reference&#xA0;Range</th><th>Unit</th></tr><tr><td>Specific gravity of Urine by Test strip</td><td>1.0</td><td>1.01 - 1.03</td><td>L</td><td>{nominal}</td></tr></table></div>"
        },
        "status": "final",
        "subject": {
          "reference": "urn:uuid:245e47f9-4462-4806-a1de-fc0bc2e1d980",
          "display": "Maria Nohlmans"
        },
        "effectiveDateTime": "2017-04-05T11:02:39Z",
        "specimen": {
          "reference": "urn:uuid:4f950fae-b756-47ac-8533-b85bff5f5927"
        }
      }
    },
    {
      "fullUrl": "urn:uuid:23d963fd-5eed-43f7-a798-42cfdff31881",
      "resource": {
        "resourceType": "Observation",
        "id": "23d963fd-5eed-43f7-a798-42cfdff31881",
        "meta": {
          "profile": [
            "http://hl7.eu/fhir/laboratory/StructureDefinition/Observation-resultslab-eu-lab"
          ]
        },
        "performer": [
          {
            "display": "The Central European Lab"
          }
        ],
        "category": [
          {
            "coding": [
              {
                "system": "http://terminology.hl7.org/CodeSystem/observation-category",
                "code": "laboratory"
              }
            ]
          }
        ],
        "code": {
          "coding": [
            {
              "code": "5803-2",
              "system": "http://loinc.org",
              "display": "pH of Urine by Test strip"
            }
          ],
          "text": "pH of Urine by Test strip"
        },
        "valueQuantity": {
          "system": "http://unitsofmeasure.org",
          "value": 6.4,
          "unit": "pH",
          "code": "pH"
        },
        "referenceRange": [
          {
            "low": {
              "value": 4.6,
              "code": "pH",
              "system": "http://unitsofmeasure.org"
            }
          },
          {
            "high": {
              "value": 7.5,
              "code": "pH",
              "system": "http://unitsofmeasure.org"
            }
          }
        ],
        "text": {
          "status": "generated",
          "div": "<div xmlns=\"http://www.w3.org/1999/xhtml\"><table class=\"hl7__eu__lab__report\"><tr><th>Test</th><th>05-Apr-2017</th><th>Reference&#xA0;Range</th><th>Unit</th></tr><tr><td>pH of Urine by Test strip</td><td>6.4</td><td>4.6 - 7.5</td><td></td><td>pH</td></tr></table></div>"
        },
        "status": "final",
        "subject": {
          "reference": "urn:uuid:245e47f9-4462-4806-a1de-fc0bc2e1d980",
          "display": "Maria Nohlmans"
        },
        "effectiveDateTime": "2017-04-05T11:02:39Z",
        "specimen": {
          "reference": "urn:uuid:4f950fae-b756-47ac-8533-b85bff5f5927"
        }
      }
    },
    {
      "fullUrl": "urn:uuid:ad818676-850c-4ef2-aa40-fea586486c03",
      "resource": {
        "resourceType": "Observation",
        "id": "ad818676-850c-4ef2-aa40-fea586486c03",
        "meta": {
          "profile": [
            "http://hl7.eu/fhir/laboratory/StructureDefinition/Observation-resultslab-eu-lab"
          ]
        },
        "performer": [
          {
            "display": "The Central European Lab"
          }
        ],
        "category": [
          {
            "coding": [
              {
                "system": "http://terminology.hl7.org/CodeSystem/observation-category",
                "code": "laboratory"
              }
            ]
          }
        ],
        "code": {
          "coding": [
            {
              "code": "5804-0",
              "system": "http://loinc.org",
              "display": "Protein [Mass/volume] in Urine by Test strip"
            }
          ],
          "text": "Protein [Mass/volume] in Urine by Test strip"
        },
        "valueQuantity": {
          "system": "http://unitsofmeasure.org",
          "value": 441.2,
          "unit": "mg/dL",
          "code": "mg/dL"
        },
        "referenceRange": [
          {
            "low": {
              "value": 0,
              "code": "mg/dL",
              "system": "http://unitsofmeasure.org"
            }
          },
          {
            "high": {
              "value": 14,
              "code": "mg/dL",
              "system": "http://unitsofmeasure.org"
            }
          }
        ],
        "interpretation": [
          {
            "coding": [
              {
                "code": "H",
                "system": "http://terminology.hl7.org/CodeSystem/v3-ObservationInterpretation",
                "display": "High"
              }
            ]
          }
        ],
        "text": {
          "status": "generated",
          "div": "<div xmlns=\"http://www.w3.org/1999/xhtml\"><table class=\"hl7__eu__lab__report\"><tr><th>Test</th><th>05-Apr-2017</th><th>Reference&#xA0;Range</th><th>Unit</th></tr><tr><td>Protein [Mass/volume] in Urine by Test strip</td><td>441.2</td><td>0 - 14</td><td>H</td><td>mg/dL</td></tr></table></div>"
        },
        "status": "final",
        "subject": {
          "reference": "urn:uuid:245e47f9-4462-4806-a1de-fc0bc2e1d980",
          "display": "Maria Nohlmans"
        },
        "effectiveDateTime": "2017-04-05T11:02:39Z",
        "specimen": {
          "reference": "urn:uuid:4f950fae-b756-47ac-8533-b85bff5f5927"
        }
      }
    },
    {
      "fullUrl": "urn:uuid:db14157a-b7d9-4f61-80f9-72e8733bcdf6",
      "resource": {
        "resourceType": "Observation",
        "id": "db14157a-b7d9-4f61-80f9-72e8733bcdf6",
        "meta": {
          "profile": [
            "http://hl7.eu/fhir/laboratory/StructureDefinition/Observation-resultslab-eu-lab"
          ]
        },
        "performer": [
          {
            "display": "The Central European Lab"
          }
        ],
        "category": [
          {
            "coding": [
              {
                "system": "http://terminology.hl7.org/CodeSystem/observation-category",
                "code": "laboratory"
              }
            ]
          }
        ],
        "code": {
          "coding": [
            {
              "code": "20454-5",
              "system": "http://loinc.org",
              "display": "Protein [Presence] in Urine by Test strip"
            }
          ],
          "text": "Protein [Presence] in Urine by Test strip"
        },
        "text": {
          "status": "generated",
          "div": "<div xmlns=\"http://www.w3.org/1999/xhtml\"><table class=\"hl7__eu__lab__report\"><tr><th>Test</th><th>05-Apr-2017</th><th>Reference&#xA0;Range</th><th>Unit</th></tr><tr><td>Protein [Presence] in Urine by Test strip</td></tr></table></div>"
        },
        "status": "final",
        "subject": {
          "reference": "urn:uuid:245e47f9-4462-4806-a1de-fc0bc2e1d980",
          "display": "Maria Nohlmans"
        },
        "effectiveDateTime": "2017-04-05T11:02:39Z",
        "specimen": {
          "reference": "urn:uuid:4f950fae-b756-47ac-8533-b85bff5f5927"
        }
      }
    },
    {
      "fullUrl": "urn:uuid:b71a57ca-81c0-4672-847c-3ca1cd31134a",
      "resource": {
        "resourceType": "Observation",
        "id": "b71a57ca-81c0-4672-847c-3ca1cd31134a",
        "meta": {
          "profile": [
            "http://hl7.eu/fhir/laboratory/StructureDefinition/Observation-resultslab-eu-lab"
          ]
        },
        "performer": [
          {
            "display": "The Central European Lab"
          }
        ],
        "category": [
          {
            "coding": [
              {
                "system": "http://terminology.hl7.org/CodeSystem/observation-category",
                "code": "laboratory"
              }
            ]
          }
        ],
        "code": {
          "coding": [
            {
              "code": "5802-4",
              "system": "http://loinc.org",
              "display": "Nitrite [Presence] in Urine by Test strip"
            }
          ],
          "text": "Nitrite [Presence] in Urine by Test strip"
        },
        "text": {
          "status": "generated",
          "div": "<div xmlns=\"http://www.w3.org/1999/xhtml\"><table class=\"hl7__eu__lab__report\"><tr><th>Test</th><th>05-Apr-2017</th><th>Reference&#xA0;Range</th><th>Unit</th></tr><tr><td>Nitrite [Presence] in Urine by Test strip</td></tr></table></div>"
        },
        "status": "final",
        "subject": {
          "reference": "urn:uuid:245e47f9-4462-4806-a1de-fc0bc2e1d980",
          "display": "Maria Nohlmans"
        },
        "effectiveDateTime": "2017-04-05T11:02:39Z",
        "specimen": {
          "reference": "urn:uuid:4f950fae-b756-47ac-8533-b85bff5f5927"
        }
      }
    },
    {
      "fullUrl": "urn:uuid:a435423f-611c-42a9-8227-d2b94082d282",
      "resource": {
        "resourceType": "Observation",
        "id": "a435423f-611c-42a9-8227-d2b94082d282",
        "meta": {
          "profile": [
            "http://hl7.eu/fhir/laboratory/StructureDefinition/Observation-resultslab-eu-lab"
          ]
        },
        "performer": [
          {
            "display": "The Central European Lab"
          }
        ],
        "category": [
          {
            "coding": [
              {
                "system": "http://terminology.hl7.org/CodeSystem/observation-category",
                "code": "laboratory"
              }
            ]
          }
        ],
        "code": {
          "coding": [
            {
              "code": "5794-3",
              "system": "http://loinc.org",
              "display": "Hemoglobin [Presence] in Urine by Test strip"
            }
          ],
          "text": "Hemoglobin [Presence] in Urine by Test strip"
        },
        "text": {
          "status": "generated",
          "div": "<div xmlns=\"http://www.w3.org/1999/xhtml\"><table class=\"hl7__eu__lab__report\"><tr><th>Test</th><th>05-Apr-2017</th><th>Reference&#xA0;Range</th><th>Unit</th></tr><tr><td>Hemoglobin [Presence] in Urine by Test strip</td></tr></table></div>"
        },
        "status": "final",
        "subject": {
          "reference": "urn:uuid:245e47f9-4462-4806-a1de-fc0bc2e1d980",
          "display": "Maria Nohlmans"
        },
        "effectiveDateTime": "2017-04-05T11:02:39Z",
        "specimen": {
          "reference": "urn:uuid:4f950fae-b756-47ac-8533-b85bff5f5927"
        }
      }
    },
    {
      "fullUrl": "urn:uuid:9e0590c3-e5dc-48a6-be85-4696c1ce3df5",
      "resource": {
        "resourceType": "Observation",
        "id": "9e0590c3-e5dc-48a6-be85-4696c1ce3df5",
        "meta": {
          "profile": [
            "http://hl7.eu/fhir/laboratory/StructureDefinition/Observation-resultslab-eu-lab"
          ]
        },
        "performer": [
          {
            "display": "The Central European Lab"
          }
        ],
        "category": [
          {
            "coding": [
              {
                "system": "http://terminology.hl7.org/CodeSystem/observation-category",
                "code": "laboratory"
              }
            ]
          }
        ],
        "code": {
          "coding": [
            {
              "code": "5799-2",
              "system": "http://loinc.org",
              "display": "Leukocyte esterase [Presence] in Urine by Test strip"
            }
          ],
          "text": "Leukocyte esterase [Presence] in Urine by Test strip"
        },
        "text": {
          "status": "generated",
          "div": "<div xmlns=\"http://www.w3.org/1999/xhtml\"><table class=\"hl7__eu__lab__report\"><tr><th>Test</th><th>05-Apr-2017</th><th>Reference&#xA0;Range</th><th>Unit</th></tr><tr><td>Leukocyte esterase [Presence] in Urine by Test strip</td></tr></table></div>"
        },
        "status": "final",
        "subject": {
          "reference": "urn:uuid:245e47f9-4462-4806-a1de-fc0bc2e1d980",
          "display": "Maria Nohlmans"
        },
        "effectiveDateTime": "2017-04-05T11:02:39Z",
        "specimen": {
          "reference": "urn:uuid:4f950fae-b756-47ac-8533-b85bff5f5927"
        }
      }
    },
    {
      "fullUrl": "urn:uuid:7072ff98-5dd4-4c15-b9c1-39a5cbe31791",
      "resource": {
        "resourceType": "Observation",
        "id": "7072ff98-5dd4-4c15-b9c1-39a5cbe31791",
        "meta": {
          "profile": [
            "http://hl7.eu/fhir/laboratory/StructureDefinition/Observation-resultslab-eu-lab"
          ]
        },
        "performer": [
          {
            "display": "The Central European Lab"
          }
        ],
        "category": [
          {
            "coding": [
              {
                "system": "http://terminology.hl7.org/CodeSystem/observation-category",
                "code": "laboratory"
              }
            ]
          }
        ],
        "code": {
          "coding": [
            {
              "code": "4548-4",
              "system": "http://loinc.org",
              "display": "Hemoglobin A1c/Hemoglobin.total in Blood"
            }
          ],
          "text": "Hemoglobin A1c/Hemoglobin.total in Blood"
        },
        "valueQuantity": {
          "system": "http://unitsofmeasure.org",
          "value": 2.8,
          "unit": "%",
          "code": "%"
        },
        "referenceRange": [
          {
            "low": {
              "value": 4.5,
              "code": "%",
              "system": "http://unitsofmeasure.org"
            }
          },
          {
            "high": {
              "value": 6.4,
              "code": "%",
              "system": "http://unitsofmeasure.org"
            }
          }
        ],
        "interpretation": [
          {
            "coding": [
              {
                "code": "L",
                "system": "http://terminology.hl7.org/CodeSystem/v3-ObservationInterpretation",
                "display": "Low"
              }
            ]
          }
        ],
        "text": {
          "status": "generated",
          "div": "<div xmlns=\"http://www.w3.org/1999/xhtml\"><table class=\"hl7__eu__lab__report\"><tr><th>Test</th><th>05-Apr-2017</th><th>Reference&#xA0;Range</th><th>Unit</th></tr><tr><td>Hemoglobin A1c/Hemoglobin.total in Blood</td><td>2.8</td><td>4.5 - 6.4</td><td>L</td><td>%</td></tr></table></div>"
        },
        "status": "final",
        "subject": {
          "reference": "urn:uuid:245e47f9-4462-4806-a1de-fc0bc2e1d980",
          "display": "Maria Nohlmans"
        },
        "effectiveDateTime": "2017-04-05T11:02:39Z",
        "specimen": {
          "reference": "urn:uuid:10efc0fd-a0e7-4195-b1de-713570edf212"
        }
      }
    },
    {
      "fullUrl": "urn:uuid:afd1ec39-e843-4692-9e5e-7b869866560e",
      "resource": {
        "resourceType": "Observation",
        "id": "afd1ec39-e843-4692-9e5e-7b869866560e",
        "meta": {
          "profile": [
            "http://hl7.eu/fhir/laboratory/StructureDefinition/Observation-resultslab-eu-lab"
          ]
        },
        "performer": [
          {
            "display": "The Central European Lab"
          }
        ],
        "category": [
          {
            "coding": [
              {
                "system": "http://terminology.hl7.org/CodeSystem/observation-category",
                "code": "laboratory"
              }
            ]
          }
        ],
        "code": {
          "coding": [
            {
              "code": "2339-0",
              "system": "http://loinc.org",
              "display": "Glucose [Mass/volume] in Blood"
            }
          ],
          "text": "Glucose [Mass/volume] in Blood"
        },
        "valueQuantity": {
          "system": "http://unitsofmeasure.org",
          "value": 78.2,
          "unit": "mg/dL",
          "code": "mg/dL"
        },
        "referenceRange": [
          {
            "low": {
              "value": 70,
              "code": "mg/dL",
              "system": "http://unitsofmeasure.org"
            }
          },
          {
            "high": {
              "value": 140,
              "code": "mg/dL",
              "system": "http://unitsofmeasure.org"
            }
          }
        ],
        "text": {
          "status": "generated",
          "div": "<div xmlns=\"http://www.w3.org/1999/xhtml\"><table class=\"hl7__eu__lab__report\"><tr><th>Test</th><th>05-Apr-2017</th><th>Reference&#xA0;Range</th><th>Unit</th></tr><tr><td>Glucose [Mass/volume] in Blood</td><td>78.2</td><td>70 - 140</td><td></td><td>mg/dL</td></tr></table></div>"
        },
        "status": "final",
        "subject": {
          "reference": "urn:uuid:245e47f9-4462-4806-a1de-fc0bc2e1d980",
          "display": "Maria Nohlmans"
        },
        "effectiveDateTime": "2017-04-05T11:02:39Z",
        "specimen": {
          "reference": "urn:uuid:10efc0fd-a0e7-4195-b1de-713570edf212"
        }
      }
    },
    {
      "fullUrl": "urn:uuid:f4a35be1-1bb3-4b08-adc6-4441c9e1c78e",
      "resource": {
        "resourceType": "Observation",
        "id": "f4a35be1-1bb3-4b08-adc6-4441c9e1c78e",
        "meta": {
          "profile": [
            "http://hl7.eu/fhir/laboratory/StructureDefinition/Observation-resultslab-eu-lab"
          ]
        },
        "performer": [
          {
            "display": "The Central European Lab"
          }
        ],
        "category": [
          {
            "coding": [
              {
                "system": "http://terminology.hl7.org/CodeSystem/observation-category",
                "code": "laboratory"
              }
            ]
          }
        ],
        "code": {
          "coding": [
            {
              "code": "6299-2",
              "system": "http://loinc.org",
              "display": "Urea nitrogen [Mass/volume] in Blood"
            }
          ],
          "text": "Urea nitrogen [Mass/volume] in Blood"
        },
        "valueQuantity": {
          "system": "http://unitsofmeasure.org",
          "value": 7.8,
          "unit": "mg/dL",
          "code": "mg/dL"
        },
        "referenceRange": [
          {
            "low": {
              "value": 7,
              "code": "mg/dL",
              "system": "http://unitsofmeasure.org"
            }
          },
          {
            "high": {
              "value": 30,
              "code": "mg/dL",
              "system": "http://unitsofmeasure.org"
            }
          }
        ],
        "text": {
          "status": "generated",
          "div": "<div xmlns=\"http://www.w3.org/1999/xhtml\"><table class=\"hl7__eu__lab__report\"><tr><th>Test</th><th>05-Apr-2017</th><th>Reference&#xA0;Range</th><th>Unit</th></tr><tr><td>Urea nitrogen [Mass/volume] in Blood</td><td>7.8</td><td>7 - 30</td><td></td><td>mg/dL</td></tr></table></div>"
        },
        "status": "final",
        "subject": {
          "reference": "urn:uuid:245e47f9-4462-4806-a1de-fc0bc2e1d980",
          "display": "Maria Nohlmans"
        },
        "effectiveDateTime": "2017-04-05T11:02:39Z",
        "specimen": {
          "reference": "urn:uuid:10efc0fd-a0e7-4195-b1de-713570edf212"
        }
      }
    },
    {
      "fullUrl": "urn:uuid:1cf0b4fc-9368-4d1c-9361-f69e0e2abf1d",
      "resource": {
        "resourceType": "Observation",
        "id": "1cf0b4fc-9368-4d1c-9361-f69e0e2abf1d",
        "meta": {
          "profile": [
            "http://hl7.eu/fhir/laboratory/StructureDefinition/Observation-resultslab-eu-lab"
          ]
        },
        "performer": [
          {
            "display": "The Central European Lab"
          }
        ],
        "category": [
          {
            "coding": [
              {
                "system": "http://terminology.hl7.org/CodeSystem/observation-category",
                "code": "laboratory"
              }
            ]
          }
        ],
        "code": {
          "coding": [
            {
              "code": "38483-4",
              "system": "http://loinc.org",
              "display": "Creatinine [Mass/volume] in Blood"
            }
          ],
          "text": "Creatinine [Mass/volume] in Blood"
        },
        "valueQuantity": {
          "system": "http://unitsofmeasure.org",
          "value": 4.7,
          "unit": "mg/dL",
          "code": "mg/dL"
        },
        "referenceRange": [
          {
            "low": {
              "value": 0.5,
              "code": "mg/dL",
              "system": "http://unitsofmeasure.org"
            }
          },
          {
            "high": {
              "value": 1.3,
              "code": "mg/dL",
              "system": "http://unitsofmeasure.org"
            }
          }
        ],
        "interpretation": [
          {
            "coding": [
              {
                "code": "H",
                "system": "http://terminology.hl7.org/CodeSystem/v3-ObservationInterpretation",
                "display": "High"
              }
            ]
          }
        ],
        "text": {
          "status": "generated",
          "div": "<div xmlns=\"http://www.w3.org/1999/xhtml\"><table class=\"hl7__eu__lab__report\"><tr><th>Test</th><th>05-Apr-2017</th><th>Reference&#xA0;Range</th><th>Unit</th></tr><tr><td>Creatinine [Mass/volume] in Blood</td><td>4.7</td><td>0.5 - 1.3</td><td>H</td><td>mg/dL</td></tr></table></div>"
        },
        "status": "final",
        "subject": {
          "reference": "urn:uuid:245e47f9-4462-4806-a1de-fc0bc2e1d980",
          "display": "Maria Nohlmans"
        },
        "effectiveDateTime": "2017-04-05T11:02:39Z",
        "specimen": {
          "reference": "urn:uuid:10efc0fd-a0e7-4195-b1de-713570edf212"
        }
      }
    },
    {
      "fullUrl": "urn:uuid:05535b12-5300-4a62-90bc-57df75174e63",
      "resource": {
        "resourceType": "Observation",
        "id": "05535b12-5300-4a62-90bc-57df75174e63",
        "meta": {
          "profile": [
            "http://hl7.eu/fhir/laboratory/StructureDefinition/Observation-resultslab-eu-lab"
          ]
        },
        "performer": [
          {
            "display": "The Central European Lab"
          }
        ],
        "category": [
          {
            "coding": [
              {
                "system": "http://terminology.hl7.org/CodeSystem/observation-category",
                "code": "laboratory"
              }
            ]
          }
        ],
        "code": {
          "coding": [
            {
              "code": "49765-1",
              "system": "http://loinc.org",
              "display": "Calcium [Mass/volume] in Blood"
            }
          ],
          "text": "Calcium [Mass/volume] in Blood"
        },
        "valueQuantity": {
          "system": "http://unitsofmeasure.org",
          "value": 10,
          "unit": "mg/dL",
          "code": "mg/dL"
        },
        "referenceRange": [
          {
            "low": {
              "value": 8.6,
              "code": "mg/dL",
              "system": "http://unitsofmeasure.org"
            }
          },
          {
            "high": {
              "value": 10.2,
              "code": "mg/dL",
              "system": "http://unitsofmeasure.org"
            }
          }
        ],
        "text": {
          "status": "generated",
          "div": "<div xmlns=\"http://www.w3.org/1999/xhtml\"><table class=\"hl7__eu__lab__report\"><tr><th>Test</th><th>05-Apr-2017</th><th>Reference&#xA0;Range</th><th>Unit</th></tr><tr><td>Calcium [Mass/volume] in Blood</td><td>10.0</td><td>8.6 - 10.2</td><td></td><td>mg/dL</td></tr></table></div>"
        },
        "status": "final",
        "subject": {
          "reference": "urn:uuid:245e47f9-4462-4806-a1de-fc0bc2e1d980",
          "display": "Maria Nohlmans"
        },
        "effectiveDateTime": "2017-04-05T11:02:39Z",
        "specimen": {
          "reference": "urn:uuid:10efc0fd-a0e7-4195-b1de-713570edf212"
        }
      }
    },
    {
      "fullUrl": "urn:uuid:11f11812-13c5-4d4f-bd98-5b92378b4b34",
      "resource": {
        "resourceType": "Observation",
        "id": "11f11812-13c5-4d4f-bd98-5b92378b4b34",
        "meta": {
          "profile": [
            "http://hl7.eu/fhir/laboratory/StructureDefinition/Observation-resultslab-eu-lab"
          ]
        },
        "performer": [
          {
            "display": "The Central European Lab"
          }
        ],
        "category": [
          {
            "coding": [
              {
                "system": "http://terminology.hl7.org/CodeSystem/observation-category",
                "code": "laboratory"
              }
            ]
          }
        ],
        "code": {
          "coding": [
            {
              "code": "2947-0",
              "system": "http://loinc.org",
              "display": "Sodium [Moles/volume] in Blood"
            }
          ],
          "text": "Sodium [Moles/volume] in Blood"
        },
        "valueQuantity": {
          "system": "http://unitsofmeasure.org",
          "value": 138,
          "unit": "mmol/L",
          "code": "mmol/L"
        },
        "referenceRange": [
          {
            "low": {
              "value": 135,
              "code": "mmol/L",
              "system": "http://unitsofmeasure.org"
            }
          },
          {
            "high": {
              "value": 145,
              "code": "mmol/L",
              "system": "http://unitsofmeasure.org"
            }
          }
        ],
        "text": {
          "status": "generated",
          "div": "<div xmlns=\"http://www.w3.org/1999/xhtml\"><table class=\"hl7__eu__lab__report\"><tr><th>Test</th><th>05-Apr-2017</th><th>Reference&#xA0;Range</th><th>Unit</th></tr><tr><td>Sodium [Moles/volume] in Blood</td><td>138.0</td><td>135 - 145</td><td></td><td>mmol/L</td></tr></table></div>"
        },
        "status": "final",
        "subject": {
          "reference": "urn:uuid:245e47f9-4462-4806-a1de-fc0bc2e1d980",
          "display": "Maria Nohlmans"
        },
        "effectiveDateTime": "2017-04-05T11:02:39Z",
        "specimen": {
          "reference": "urn:uuid:10efc0fd-a0e7-4195-b1de-713570edf212"
        }
      }
    },
    {
      "fullUrl": "urn:uuid:6940d516-da39-4157-8554-3cf04b8dd5bb",
      "resource": {
        "resourceType": "Observation",
        "id": "6940d516-da39-4157-8554-3cf04b8dd5bb",
        "meta": {
          "profile": [
            "http://hl7.eu/fhir/laboratory/StructureDefinition/Observation-resultslab-eu-lab"
          ]
        },
        "performer": [
          {
            "display": "The Central European Lab"
          }
        ],
        "category": [
          {
            "coding": [
              {
                "system": "http://terminology.hl7.org/CodeSystem/observation-category",
                "code": "laboratory"
              }
            ]
          }
        ],
        "code": {
          "coding": [
            {
              "code": "6298-4",
              "system": "http://loinc.org",
              "display": "Potassium [Moles/volume] in Blood"
            }
          ],
          "text": "Potassium [Moles/volume] in Blood"
        },
        "valueQuantity": {
          "system": "http://unitsofmeasure.org",
          "value": 4,
          "unit": "mmol/L",
          "code": "mmol/L"
        },
        "referenceRange": [
          {
            "low": {
              "value": 3.5,
              "code": "mmol/L",
              "system": "http://unitsofmeasure.org"
            }
          },
          {
            "high": {
              "value": 5.1,
              "code": "mmol/L",
              "system": "http://unitsofmeasure.org"
            }
          }
        ],
        "text": {
          "status": "generated",
          "div": "<div xmlns=\"http://www.w3.org/1999/xhtml\"><table class=\"hl7__eu__lab__report\"><tr><th>Test</th><th>05-Apr-2017</th><th>Reference&#xA0;Range</th><th>Unit</th></tr><tr><td>Potassium [Moles/volume] in Blood</td><td>4.0</td><td>3.5 - 5.1</td><td></td><td>mmol/L</td></tr></table></div>"
        },
        "status": "final",
        "subject": {
          "reference": "urn:uuid:245e47f9-4462-4806-a1de-fc0bc2e1d980",
          "display": "Maria Nohlmans"
        },
        "effectiveDateTime": "2017-04-05T11:02:39Z",
        "specimen": {
          "reference": "urn:uuid:10efc0fd-a0e7-4195-b1de-713570edf212"
        }
      }
    },
    {
      "fullUrl": "urn:uuid:0bbca857-a587-46f4-b670-bf374c1982f0",
      "resource": {
        "resourceType": "Observation",
        "id": "0bbca857-a587-46f4-b670-bf374c1982f0",
        "meta": {
          "profile": [
            "http://hl7.eu/fhir/laboratory/StructureDefinition/Observation-resultslab-eu-lab"
          ]
        },
        "performer": [
          {
            "display": "The Central European Lab"
          }
        ],
        "category": [
          {
            "coding": [
              {
                "system": "http://terminology.hl7.org/CodeSystem/observation-category",
                "code": "laboratory"
              }
            ]
          }
        ],
        "code": {
          "coding": [
            {
              "code": "2069-3",
              "system": "http://loinc.org",
              "display": "Chloride [Moles/volume] in Blood"
            }
          ],
          "text": "Chloride [Moles/volume] in Blood"
        },
        "valueQuantity": {
          "system": "http://unitsofmeasure.org",
          "value": 101.8,
          "unit": "mmol/L",
          "code": "mmol/L"
        },
        "referenceRange": [
          {
            "low": {
              "value": 98,
              "code": "mmol/L",
              "system": "http://unitsofmeasure.org"
            }
          },
          {
            "high": {
              "value": 114,
              "code": "mmol/L",
              "system": "http://unitsofmeasure.org"
            }
          }
        ],
        "text": {
          "status": "generated",
          "div": "<div xmlns=\"http://www.w3.org/1999/xhtml\"><table class=\"hl7__eu__lab__report\"><tr><th>Test</th><th>05-Apr-2017</th><th>Reference&#xA0;Range</th><th>Unit</th></tr><tr><td>Chloride [Moles/volume] in Blood</td><td>101.8</td><td>98 - 114</td><td></td><td>mmol/L</td></tr></table></div>"
        },
        "status": "final",
        "subject": {
          "reference": "urn:uuid:245e47f9-4462-4806-a1de-fc0bc2e1d980",
          "display": "Maria Nohlmans"
        },
        "effectiveDateTime": "2017-04-05T11:02:39Z",
        "specimen": {
          "reference": "urn:uuid:10efc0fd-a0e7-4195-b1de-713570edf212"
        }
      }
    },
    {
      "fullUrl": "urn:uuid:a66719ae-7551-4b35-9ec0-897ce13347c7",
      "resource": {
        "resourceType": "Observation",
        "id": "a66719ae-7551-4b35-9ec0-897ce13347c7",
        "meta": {
          "profile": [
            "http://hl7.eu/fhir/laboratory/StructureDefinition/Observation-resultslab-eu-lab"
          ]
        },
        "performer": [
          {
            "display": "The Central European Lab"
          }
        ],
        "category": [
          {
            "coding": [
              {
                "system": "http://terminology.hl7.org/CodeSystem/observation-category",
                "code": "laboratory"
              }
            ]
          }
        ],
        "code": {
          "coding": [
            {
              "code": "20565-8",
              "system": "http://loinc.org",
              "display": "Carbon dioxide, total [Moles/volume] in Blood"
            }
          ],
          "text": "Carbon dioxide, total [Moles/volume] in Blood"
        },
        "valueQuantity": {
          "system": "http://unitsofmeasure.org",
          "value": 21.6,
          "unit": "mmol/L",
          "code": "mmol/L"
        },
        "referenceRange": [
          {
            "low": {
              "value": 22,
              "code": "mmol/L",
              "system": "http://unitsofmeasure.org"
            }
          },
          {
            "high": {
              "value": 32,
              "code": "mmol/L",
              "system": "http://unitsofmeasure.org"
            }
          }
        ],
        "interpretation": [
          {
            "coding": [
              {
                "code": "L",
                "system": "http://terminology.hl7.org/CodeSystem/v3-ObservationInterpretation",
                "display": "Low"
              }
            ]
          }
        ],
        "text": {
          "status": "generated",
          "div": "<div xmlns=\"http://www.w3.org/1999/xhtml\"><table class=\"hl7__eu__lab__report\"><tr><th>Test</th><th>05-Apr-2017</th><th>Reference&#xA0;Range</th><th>Unit</th></tr><tr><td>Carbon dioxide, total [Moles/volume] in Blood</td><td>21.6</td><td>22 - 32</td><td>L</td><td>mmol/L</td></tr></table></div>"
        },
        "status": "final",
        "subject": {
          "reference": "urn:uuid:245e47f9-4462-4806-a1de-fc0bc2e1d980",
          "display": "Maria Nohlmans"
        },
        "effectiveDateTime": "2017-04-05T11:02:39Z",
        "specimen": {
          "reference": "urn:uuid:10efc0fd-a0e7-4195-b1de-713570edf212"
        }
      }
    },
    {
      "fullUrl": "urn:uuid:709b5b88-14bc-4c5d-9e37-24c92f717bf1",
      "resource": {
        "resourceType": "Device",
        "id": "709b5b88-14bc-4c5d-9e37-24c92f717bf1",
        "deviceName": [
          {
            "name": "SYNDERAI Synthetic Generator",
            "type": "manufacturer-name"
          }
        ],
        "version": [
          {
            "value": "5.0"
          }
        ],
        "text": {
          "status": "generated",
          "div": "<div xmlns=\"http://www.w3.org/1999/xhtml\">SYNDERAI Synthetic Generator v5.0</div>"
        },
        "status": "active\"",
        "distinctIdentifier": "synderai-generator-50",
        "manufacturer": "SYNDERAI Project"
      }
    },
    {
      "fullUrl": "urn:uuid:bb681d3b-4704-4dab-98c6-8af75e7f8053",
      "resource": {
        "resourceType": "Provenance",
        "id": "bb681d3b-4704-4dab-98c6-8af75e7f8053",
        "target": [
          {
            "reference": "Patient/245e47f9-4462-4806-a1de-fc0bc2e1d980"
          },
          {
            "reference": "Bundle/90d11aef-9250-4d99-b8d2-aa011f893c88"
          },
          {
            "reference": "Composition/955613e8-a94a-46f6-995e-c4ca117a4f9c"
          },
          {
            "reference": "PractitionerRole/c3ec407d-e6d9-4f53-b2cf-c679d88385bf"
          },
          {
            "reference": "Practitioner/b3d83ff9-3f2e-464f-a6b9-1a29b8c54b54"
          },
          {
            "reference": "PractitionerRole/050ce533-e3b6-4afb-bf9c-6a2803098181"
          },
          {
            "reference": "Organization/4e84444f-20f4-473c-9e78-d379b6199c6c"
          }
        ],
        "activity": {
          "text": "Synthetic Example Data Generation"
        },
        "policy": [
          "https://synderai.net/synderai-synthetic-data-policy"
        ],
        "agent": [
          {
            "type": {
              "text": "author"
            },
            "who": {
              "reference": "Device/709b5b88-14bc-4c5d-9e37-24c92f717bf1"
            }
          }
        ],
        "reason": [
          {
            "text": "Interoperability Testing and Training (non-clinical use)"
          }
        ],
        "text": {
          "status": "generated",
          "div": "<div xmlns=\"http://www.w3.org/1999/xhtml\">Provenance for SYNDERAI Synthetic Example Data Resource</div>"
        },
        "recorded": "2017-04-05T13:02:39Z"
      }
    },
    {
      "fullUrl": "urn:uuid:c3ec407d-e6d9-4f53-b2cf-c679d88385bf",
      "resource": {
        "resourceType": "PractitionerRole",
        "id": "c3ec407d-e6d9-4f53-b2cf-c679d88385bf",
        "meta": {
          "profile": [
            "http://hl7.eu/fhir/base/StructureDefinition/practitionerRole-eu"
          ]
        },
        "text": {
          "status": "generated",
          "div": "<div xmlns=\"http://www.w3.org/1999/xhtml\">Laboratory Role Id: c3ec407d-e6d9-4f53-b2cf-c679d88385bf</div>"
        },
        "practitioner": {
          "reference": "urn:uuid:b3d83ff9-3f2e-464f-a6b9-1a29b8c54b54"
        }
      }
    },
    {
      "fullUrl": "urn:uuid:b3d83ff9-3f2e-464f-a6b9-1a29b8c54b54",
      "resource": {
        "resourceType": "Practitioner",
        "id": "b3d83ff9-3f2e-464f-a6b9-1a29b8c54b54",
        "meta": {
          "profile": [
            "http://hl7.eu/fhir/base/StructureDefinition/practitioner-eu"
          ]
        },
        "identifier": [
          {
            "assigner": {
              "display": "HL7 Europe"
            },
            "system": "urn:oid:2.16.840.1.113883.2.51.999",
            "value": "20997f95-1e68-4e00-bbb9-936e21ca98e1"
          }
        ],
        "name": [
          {
            "prefix": [
              "dr"
            ],
            "given": [
              "Ex"
            ],
            "family": "Ample"
          }
        ],
        "address": [
          {
            "line": [
              "Laboratoire Central Européenne",
              "Boulevard du Jardin Botanique 32"
            ],
            "postalCode": "1000",
            "city": "Brussels",
            "country": "Belgium"
          }
        ],
        "text": {
          "status": "generated",
          "div": "<div xmlns=\"http://www.w3.org/1999/xhtml\">Laboratory: Laboratoire Central Européenne, 1000 Brussels, Belgium</div>"
        }
      }
    }
  ],
  "type": "document",
  "timestamp": "2017-04-05T13:02:39Z"
}
