{
  "resourceType": "Bundle",
  "id": "3cfd094a-1cdf-46aa-b156-2d3830c86a3f",
  "meta": {
    "profile": [
      "http://hl7.eu/fhir/laboratory/StructureDefinition/Bundle-eu-lab"
    ]
  },
  "identifier": {
    "assigner": {
      "display": "HL7 Europe"
    },
    "system": "urn:oid:2.16.840.1.113883.2.51.999",
    "value": "338ec1f8-10dd-4b5d-b59f-6a4e62cdf3c1"
  },
  "entry": [
    {
      "fullUrl": "urn:uuid:8bf8fe9f-6dd7-40c0-a079-c260da9b2fd1",
      "resource": {
        "resourceType": "Composition",
        "id": "8bf8fe9f-6dd7-40c0-a079-c260da9b2fd1",
        "meta": {
          "profile": [
            "http://hl7.eu/fhir/laboratory/StructureDefinition/Composition-eu-lab"
          ]
        },
        "identifier": {
          "assigner": {
            "display": "HL7 Europe"
          },
          "system": "urn:oid:2.16.840.1.113883.2.51.999",
          "value": "ac59ec50-03c0-43e9-9859-e59320f461f0"
        },
        "author": [
          {
            "reference": "urn:uuid:4e63d819-6a1e-4735-8fb6-face0acd6ae6"
          }
        ],
        "category": [
          {
            "coding": [
              {
                "code": "26436-6",
                "system": "http://loinc.org",
                "display": "Laboratory studies (set)"
              }
            ]
          }
        ],
        "type": {
          "coding": [
            {
              "code": "11502-2",
              "system": "http://loinc.org",
              "display": "Laboratory report"
            }
          ],
          "text": "Laboratory Report"
        },
        "section": [
          {
            "code": {
              "coding": [
                {
                  "code": "26436-6",
                  "system": "http://loinc.org",
                  "display": "Laboratory studies (set)"
                }
              ],
              "text": "Laboratory studies"
            },
            "section": [
              {
                "code": {
                  "coding": [
                    {
                      "code": "$18719-5",
                      "system": "http://loinc.org",
                      "display": "Chemistry studies (set)"
                    }
                  ],
                  "text": "Chemistry"
                },
                "entry": [
                  {
                    "reference": "urn:uuid:4c919787-a013-4d03-88bf-c04a151abd6e"
                  },
                  {
                    "reference": "urn:uuid:391a7310-76cd-43ba-8cf7-6f6e61ef2557"
                  },
                  {
                    "reference": "urn:uuid:cc9ddd1e-b05a-4bf5-b387-d5600c53dd39"
                  },
                  {
                    "reference": "urn:uuid:8936f38f-a56c-4f5c-9fb7-9e9b2ebe530c"
                  },
                  {
                    "reference": "urn:uuid:5ed43b89-0f2c-4fdd-8997-e2e4516d244f"
                  },
                  {
                    "reference": "urn:uuid:122279d2-4f65-4d22-8b48-fc73671f2c28"
                  },
                  {
                    "reference": "urn:uuid:1cf7a02a-9116-4b97-9027-a9f327d17d5d"
                  },
                  {
                    "reference": "urn:uuid:eb441342-8ed1-4883-8f6b-d4be9524d1d3"
                  },
                  {
                    "reference": "urn:uuid:b3327a47-ba5f-4a08-93b6-f87fcf33cb5d"
                  },
                  {
                    "reference": "urn:uuid:5473448b-08dd-47fd-8aa7-153afd5b4255"
                  }
                ],
                "text": {
                  "status": "generated",
                  "div": "<div xmlns=\"http://www.w3.org/1999/xhtml\"><h3>Chemistry</h3><table class=\"hl7__eu__lab__report\"><thead><tr><th>Test</th><th>05-SEP-2017</th><th>Reference&#xA0;Range</th><th>Unit</th></tr></thead><tbody><tr><td>Glucose [Mass/volume] in Serum or Plasma</td><td><strong>69.9 L</strong></td><td>70 - 99</td><td>mg/dL</td></tr><tr><td>Urea nitrogen [Mass/volume] in Serum or Plasma</td><td>7.2</td><td>7 - 50</td><td>mg/dL</td></tr><tr><td>Creatinine [Mass/volume] in Serum or Plasma</td><td><strong>2.0 H</strong></td><td>0.6 - 1.1</td><td>mg/dL</td></tr><tr><td>Calcium [Mass/volume] in Serum or Plasma</td><td>9.8</td><td>8.6 - 10.4</td><td>mg/dL</td></tr><tr><td>Sodium [Moles/volume] in Serum or Plasma</td><td>138.3</td><td>135 - 145</td><td>mmol/L</td></tr><tr><td>Potassium [Moles/volume] in Serum or Plasma</td><td>4.3</td><td>3.5 - 5.1</td><td>mmol/L</td></tr><tr><td>Chloride [Moles/volume] in Serum or Plasma</td><td>106.3</td><td>98 - 108</td><td>mmol/L</td></tr><tr><td>Carbon dioxide, total [Moles/volume] in Serum or Plasma</td><td>28.7</td><td>22 - 32</td><td>mmol/L</td></tr><tr><td>Ketones [Presence] in Urine by Test strip</td><td>Urine ketone test = +</td><td></td><td></td></tr><tr><td>Hemoglobin A1c/Hemoglobin.total in Blood</td><td><strong>3.2 L</strong></td><td>4 - 6.4</td><td>%</td></tr></tbody></table></div>"
                },
                "title": "Chemistry"
              },
              {
                "code": {
                  "coding": [
                    {
                      "code": "$18729-4",
                      "system": "http://loinc.org",
                      "display": "Urinalysis studies (set)"
                    }
                  ],
                  "text": "Urinalysis"
                },
                "entry": [
                  {
                    "reference": "urn:uuid:79e7037d-c159-4bfd-a03d-de23d8431017"
                  },
                  {
                    "reference": "urn:uuid:13ece7a3-5f7b-4b6f-9798-f59f6c9c03ba"
                  },
                  {
                    "reference": "urn:uuid:d47459d3-9522-4b66-b749-685fb3235aef"
                  },
                  {
                    "reference": "urn:uuid:f1001a2b-c542-4d99-ad82-322083490dfe"
                  },
                  {
                    "reference": "urn:uuid:0a80a044-a384-4a2c-b4a0-7ce8c479851e"
                  },
                  {
                    "reference": "urn:uuid:591020d9-c6eb-41fe-a582-468f8aec80bf"
                  },
                  {
                    "reference": "urn:uuid:c0b6a2c2-5b2d-4fb0-8ea3-82d8f9a245d6"
                  },
                  {
                    "reference": "urn:uuid:dd76033c-d365-4b95-8241-2d4b7fabd4d2"
                  },
                  {
                    "reference": "urn:uuid:970c33df-c02a-4583-967c-a7111ead2e9b"
                  },
                  {
                    "reference": "urn:uuid:3f6a0ad1-ca24-45cd-adbd-d231d204fae9"
                  },
                  {
                    "reference": "urn:uuid:2f3c7384-3d15-4161-9bb7-f3c3c5386471"
                  },
                  {
                    "reference": "urn:uuid:9dcb12f3-c4a8-42be-bb19-d78842d93ab1"
                  }
                ],
                "text": {
                  "status": "generated",
                  "div": "<div xmlns=\"http://www.w3.org/1999/xhtml\"><h3>Urinalysis</h3><table class=\"hl7__eu__lab__report\"><thead><tr><th>Test</th><th>05-SEP-2017</th><th>Reference&#xA0;Range</th><th>Unit</th></tr></thead><tbody><tr><td>Glucose [Mass/volume] in Urine by Test strip</td><td><strong>1.4 H</strong></td><td>0.8 - 0</td><td>mg/dL</td></tr><tr><td>Glucose [Presence] in Urine by Test strip</td><td>++</td><td></td><td></td></tr><tr><td>Bilirubin.total [Mass/volume] in Urine by Test strip</td><td>0.9</td><td>0 - 1</td><td>mg/dL</td></tr><tr><td>Bilirubin.total [Presence] in Urine by Test strip</td><td>Finding of bilirubin in urine</td><td></td><td></td></tr><tr><td>Ketones [Mass/volume] in Urine by Test strip</td><td><strong>8.7 H</strong></td><td>0 - 4</td><td>mg/dL</td></tr><tr><td>Specific gravity of Urine by Test strip</td><td><strong>1.0 L</strong></td><td>1.005 - 1.03</td><td>{nominal}</td></tr><tr><td>pH of Urine by Test strip</td><td>5.2</td><td>4.6 - 7</td><td>pH</td></tr><tr><td>Protein [Mass/volume] in Urine by Test strip</td><td><strong>287.1 H</strong></td><td>0 - 14</td><td>mg/dL</td></tr><tr><td>Protein [Presence] in Urine by Test strip</td><td>Urine protein test = ++</td><td></td><td></td></tr><tr><td>Nitrite [Presence] in Urine by Test strip</td><td>Urine nitrite negative</td><td></td><td></td></tr><tr><td>Hemoglobin [Presence] in Urine by Test strip</td><td>Urine blood test = negative</td><td></td><td></td></tr><tr><td>Leukocyte esterase [Presence] in Urine by Test strip</td><td>Urine leukocyte test negative</td><td></td><td></td></tr></tbody></table></div>"
                },
                "title": "Urinalysis"
              },
              {
                "code": {
                  "coding": [
                    {
                      "code": "$LP7846-1",
                      "system": "http://loinc.org",
                      "display": "Specimen information"
                    }
                  ],
                  "text": "Specimen information"
                },
                "entry": [
                  {
                    "reference": "urn:uuid:2da5e23c-2da7-4b23-9a76-162efdfdc45d"
                  },
                  {
                    "reference": "urn:uuid:6ccd5982-6651-4eed-a3bc-21771a12fe2f"
                  },
                  {
                    "reference": "urn:uuid:12accad1-3130-4982-8a6b-1680535aa02d"
                  },
                  {
                    "reference": "urn:uuid:272f9931-f592-4280-82f8-5b2a2b4982b9"
                  }
                ],
                "text": {
                  "status": "generated",
                  "div": "<div xmlns=\"http://www.w3.org/1999/xhtml\"><h3>Specimen information</h3><table class=\"hl7__eu__lab__report\"><thead><tr><th>Test</th><th>05-SEP-2017</th><th>Specimen</th><th></th></tr></thead><tbody><tr><td>Appearance of Urine</td><td>Cloudy urine</td><td>Urine</td><td></td></tr><tr><td>Odor of Urine</td><td>Urine smell ammoniacal</td><td>Urine</td><td></td></tr><tr><td>Clarity of Urine</td><td>Translucent</td><td>Urine</td><td></td></tr><tr><td>Color of Urine</td><td>Brown color</td><td>Urine</td><td></td></tr></tbody></table></div>"
                },
                "title": "Specimen information"
              }
            ],
            "title": "Laboratory Report"
          },
          {
            "text": {
              "status": "generated",
              "div": "<div xmlns=\"http://www.w3.org/1999/xhtml\"><h3>Annotation</h3><table class=\"hl7__eu__lab__report\"><tr><th>Conclusion and Recommendations based on this report and previous findings known to us</th></tr><tr><td>The patient shows elevated serum creatinine, indicating impaired renal function, and significant proteinuria, suggesting possible glomerular pathology. Urine findings (cloudy, brown, low specific gravity, ketones, glucose, bilirubin) further support renal involvement and possible metabolic derangement. Hypoglycemia and low HbA1c may reflect poor nutritional status or overtreatment of diabetes. Recommend urgent nephrology evaluation and further assessment for underlying renal and metabolic disorders.</td></tr></table></div>"
            },
            "code": {
              "coding": [
                {
                  "system": "http://loinc.org",
                  "code": "48767-8",
                  "display": "Annotation comment"
                }
              ]
            },
            "title": "Annotation comment"
          }
        ],
        "status": "final",
        "subject": {
          "reference": "urn:uuid:9577e764-528c-42dc-b010-1ab0e595aad5",
          "display": "Meaghan Neary"
        },
        "date": "2017-09-05T00:11:04Z",
        "title": "Laboratory Report",
        "confidentiality": "N"
      }
    },
    {
      "fullUrl": "urn:uuid:20abcdc7-d3fb-43ef-99b0-f84adb8466fe",
      "resource": {
        "resourceType": "DiagnosticReport",
        "id": "20abcdc7-d3fb-43ef-99b0-f84adb8466fe",
        "meta": {
          "profile": [
            "http://hl7.eu/fhir/laboratory/StructureDefinition/DiagnosticReport-eu-lab"
          ]
        },
        "identifier": [
          {
            "assigner": {
              "display": "HL7 Europe"
            },
            "system": "urn:oid:2.16.840.1.113883.2.51.999",
            "value": "a4b498e9-3ba4-4fb3-9298-2babb05897a2"
          }
        ],
        "extension": [
          {
            "url": "http://hl7.org/fhir/5.0/StructureDefinition/extension-DiagnosticReport.composition",
            "valueReference": {
              "reference": "urn:uuid:ac59ec50-03c0-43e9-9859-e59320f461f0"
            }
          }
        ],
        "category": [
          {
            "coding": [
              {
                "code": "26436-6",
                "system": "http://loinc.org",
                "display": "Laboratory studies (set)"
              }
            ]
          }
        ],
        "specimen": [
          {
            "reference": "urn:uuid:130813ce-1554-423e-99d2-2ff49de2ac04"
          },
          {
            "reference": "urn:uuid:7e68208c-0662-4d04-8903-0ed932c651e1"
          },
          {
            "reference": "urn:uuid:73eb41bd-6938-4f59-9a1f-17e081739ae7"
          }
        ],
        "result": [
          {
            "reference": "urn:uuid:4c919787-a013-4d03-88bf-c04a151abd6e"
          },
          {
            "reference": "urn:uuid:391a7310-76cd-43ba-8cf7-6f6e61ef2557"
          },
          {
            "reference": "urn:uuid:cc9ddd1e-b05a-4bf5-b387-d5600c53dd39"
          },
          {
            "reference": "urn:uuid:8936f38f-a56c-4f5c-9fb7-9e9b2ebe530c"
          },
          {
            "reference": "urn:uuid:5ed43b89-0f2c-4fdd-8997-e2e4516d244f"
          },
          {
            "reference": "urn:uuid:122279d2-4f65-4d22-8b48-fc73671f2c28"
          },
          {
            "reference": "urn:uuid:1cf7a02a-9116-4b97-9027-a9f327d17d5d"
          },
          {
            "reference": "urn:uuid:eb441342-8ed1-4883-8f6b-d4be9524d1d3"
          },
          {
            "reference": "urn:uuid:2da5e23c-2da7-4b23-9a76-162efdfdc45d"
          },
          {
            "reference": "urn:uuid:6ccd5982-6651-4eed-a3bc-21771a12fe2f"
          },
          {
            "reference": "urn:uuid:12accad1-3130-4982-8a6b-1680535aa02d"
          },
          {
            "reference": "urn:uuid:272f9931-f592-4280-82f8-5b2a2b4982b9"
          },
          {
            "reference": "urn:uuid:79e7037d-c159-4bfd-a03d-de23d8431017"
          },
          {
            "reference": "urn:uuid:13ece7a3-5f7b-4b6f-9798-f59f6c9c03ba"
          },
          {
            "reference": "urn:uuid:d47459d3-9522-4b66-b749-685fb3235aef"
          },
          {
            "reference": "urn:uuid:f1001a2b-c542-4d99-ad82-322083490dfe"
          },
          {
            "reference": "urn:uuid:0a80a044-a384-4a2c-b4a0-7ce8c479851e"
          },
          {
            "reference": "urn:uuid:b3327a47-ba5f-4a08-93b6-f87fcf33cb5d"
          },
          {
            "reference": "urn:uuid:591020d9-c6eb-41fe-a582-468f8aec80bf"
          },
          {
            "reference": "urn:uuid:c0b6a2c2-5b2d-4fb0-8ea3-82d8f9a245d6"
          },
          {
            "reference": "urn:uuid:dd76033c-d365-4b95-8241-2d4b7fabd4d2"
          },
          {
            "reference": "urn:uuid:970c33df-c02a-4583-967c-a7111ead2e9b"
          },
          {
            "reference": "urn:uuid:3f6a0ad1-ca24-45cd-adbd-d231d204fae9"
          },
          {
            "reference": "urn:uuid:2f3c7384-3d15-4161-9bb7-f3c3c5386471"
          },
          {
            "reference": "urn:uuid:9dcb12f3-c4a8-42be-bb19-d78842d93ab1"
          },
          {
            "reference": "urn:uuid:5473448b-08dd-47fd-8aa7-153afd5b4255"
          }
        ],
        "status": "registered",
        "code": {
          "coding": [
            {
              "code": "11502-2",
              "system": "http://loinc.org",
              "display": "Laboratory report"
            }
          ]
        },
        "subject": {
          "reference": "urn:uuid:9577e764-528c-42dc-b010-1ab0e595aad5",
          "display": "Meaghan Neary"
        }
      }
    },
    {
      "fullUrl": "urn:uuid:9577e764-528c-42dc-b010-1ab0e595aad5",
      "resource": {
        "resourceType": "Patient",
        "id": "9577e764-528c-42dc-b010-1ab0e595aad5",
        "meta": {
          "security": [
            {
              "system": "http://terminology.hl7.org/CodeSystem/v3-ActReason",
              "code": "HTEST"
            },
            {
              "system": "http://terminology.hl7.org/CodeSystem/v3-ActReason",
              "code": "TRAIN"
            }
          ],
          "tag": [
            {
              "system": "https://synderai.net/fhir/CodeSystem/tags",
              "code": "synthetic",
              "display": "SYNDERAI Synthetic data"
            }
          ],
          "profile": [
            "http://hl7.eu/fhir/base/StructureDefinition/patient-eu-core"
          ]
        },
        "identifier": [
          {
            "type": {
              "coding": [
                {
                  "code": "PT",
                  "system": "http://terminology.hl7.org/CodeSystem/v2-0203"
                }
              ]
            },
            "system": "http://ec.europa.eu/identifier/eci",
            "value": "1586-567257-8"
          },
          {
            "type": {
              "coding": [
                {
                  "code": "MR",
                  "system": "http://terminology.hl7.org/CodeSystem/v2-0203"
                }
              ]
            },
            "system": "http://local.setting.eu/identifier",
            "value": "443e6379-f231-b364-3ccb-644740a1aa2a"
          }
        ],
        "name": [
          {
            "family": "Neary"
          },
          {
            "given": [
              "Meaghan"
            ]
          },
          {
            "text": "Meaghan Neary"
          }
        ],
        "address": [
          {
            "line": [
              "64 Linskey Street"
            ],
            "use": "home",
            "type": "physical",
            "postalCode": "D02",
            "city": "Dublin",
            "country": "Ireland"
          }
        ],
        "telecom": [
          {
            "system": "phone",
            "value": "001-967-573-0911x465"
          }
        ],
        "extension": [
          {
            "url": "http://hl7.org/fhir/StructureDefinition/patient-nationality",
            "valueCodeableConcept": {
              "coding": [
                {
                  "code": "IE",
                  "system": "http://hl7.org/fhir/ValueSet/country"
                }
              ]
            }
          }
        ],
        "text": {
          "status": "generated",
          "div": "<div xmlns=\"http://www.w3.org/1999/xhtml\"><table class=\"hl7__ips\"><tr><td>Meaghan Neary</td><td>female</td><td>19-Dec-1960</td></tr></table></div>"
        },
        "gender": "female",
        "birthDate": "1960-12-19"
      }
    },
    {
      "fullUrl": "urn:uuid:bde158c0-36b5-4c41-b531-66fddf208c82",
      "resource": {
        "resourceType": "ServiceRequest",
        "id": "bde158c0-36b5-4c41-b531-66fddf208c82",
        "meta": {
          "profile": [
            "http://hl7.eu/fhir/laboratory/StructureDefinition/ServiceRequest-eu-lab"
          ]
        },
        "identifier": [
          {
            "system": "http://example.org",
            "value": "2ee78bc9-ab94-45ba-b5fa-ac8ee2f4e8d4"
          }
        ],
        "specimen": [
          {
            "reference": "urn:uuid:130813ce-1554-423e-99d2-2ff49de2ac04"
          },
          {
            "reference": "urn:uuid:7e68208c-0662-4d04-8903-0ed932c651e1"
          },
          {
            "reference": "urn:uuid:73eb41bd-6938-4f59-9a1f-17e081739ae7"
          }
        ],
        "reasonCode": [
          {
            "coding": [
              {
                "code": "55822004",
                "system": "http://snomed.info/sct",
                "display": "Hyperlipidemia"
              }
            ]
          },
          {
            "coding": [
              {
                "code": "433144002",
                "system": "http://snomed.info/sct",
                "display": "Chronic kidney disease stage 3"
              }
            ]
          },
          {
            "coding": [
              {
                "code": "157141000119108",
                "system": "http://snomed.info/sct",
                "display": "Proteinuria due to type 2 diabetes mellitus"
              }
            ]
          },
          {
            "coding": [
              {
                "code": "431856006",
                "system": "http://snomed.info/sct",
                "display": "Chronic kidney disease stage 2"
              }
            ]
          },
          {
            "coding": [
              {
                "code": "90781000119102",
                "system": "http://snomed.info/sct",
                "display": "Microalbuminuria due to type 2 diabetes mellitus"
              }
            ]
          },
          {
            "coding": [
              {
                "code": "127013003",
                "system": "http://snomed.info/sct",
                "display": "Disorder of kidney due to diabetes mellitus"
              }
            ]
          },
          {
            "coding": [
              {
                "code": "431855005",
                "system": "http://snomed.info/sct",
                "display": "Chronic kidney disease stage 1"
              }
            ]
          },
          {
            "coding": [
              {
                "code": "237602007",
                "system": "http://snomed.info/sct",
                "display": "Metabolic syndrome X"
              }
            ]
          },
          {
            "coding": [
              {
                "code": "271737000",
                "system": "http://snomed.info/sct",
                "display": "Anemia"
              }
            ]
          },
          {
            "coding": [
              {
                "code": "15777000",
                "system": "http://snomed.info/sct",
                "display": "Prediabetes"
              }
            ]
          },
          {
            "coding": [
              {
                "code": "59621000",
                "system": "http://snomed.info/sct",
                "display": "Essential hypertension"
              }
            ]
          }
        ],
        "status": "active",
        "intent": "order",
        "code": {
          "coding": [
            {
              "code": "108252007",
              "system": "http://snomed.info/sct",
              "display": "Laboratory procedure"
            }
          ]
        },
        "subject": {
          "reference": "urn:uuid:9577e764-528c-42dc-b010-1ab0e595aad5",
          "display": "Meaghan Neary"
        },
        "requester": {
          "reference": "urn:uuid:b21d31b7-802f-4a4f-ab0e-a0a6aa60023f"
        }
      }
    },
    {
      "fullUrl": "urn:uuid:b21d31b7-802f-4a4f-ab0e-a0a6aa60023f",
      "resource": {
        "resourceType": "PractitionerRole",
        "id": "b21d31b7-802f-4a4f-ab0e-a0a6aa60023f",
        "meta": {
          "profile": [
            "http://hl7.eu/fhir/base/StructureDefinition/practitionerRole-eu"
          ]
        },
        "text": {
          "status": "generated",
          "div": "<div xmlns=\"http://www.w3.org/1999/xhtml\">Provider Role Id: b21d31b7-802f-4a4f-ab0e-a0a6aa60023f</div>"
        },
        "organization": {
          "reference": "urn:uuid:77a9a834-6eda-40bd-a515-a186621aff3b"
        }
      }
    },
    {
      "fullUrl": "urn:uuid:77a9a834-6eda-40bd-a515-a186621aff3b",
      "resource": {
        "resourceType": "Organization",
        "id": "77a9a834-6eda-40bd-a515-a186621aff3b",
        "meta": {
          "profile": [
            "http://hl7.eu/fhir/base/StructureDefinition/organization-eu"
          ]
        },
        "identifier": [
          {
            "assigner": {
              "display": "HL7 Europe"
            },
            "system": "urn:oid:2.16.840.1.113883.2.51.999",
            "value": "dc0491df-bd8e-4648-9b38-d5a3ec8fdf1a"
          }
        ],
        "address": [
          {
            "line": [
              "Parnell Square West nan"
            ],
            "city": "Dublin",
            "postalCode": "D01",
            "country": "Ireland"
          }
        ],
        "text": {
          "status": "generated",
          "div": "<div xmlns=\"http://www.w3.org/1999/xhtml\">Provider Organization: Rotunda Hospital</div>"
        },
        "name": "Rotunda Hospital"
      }
    },
    {
      "fullUrl": "urn:uuid:130813ce-1554-423e-99d2-2ff49de2ac04",
      "resource": {
        "resourceType": "Specimen",
        "id": "130813ce-1554-423e-99d2-2ff49de2ac04",
        "meta": {
          "profile": [
            "http://hl7.eu/fhir/laboratory/StructureDefinition/Specimen-eu-lab"
          ]
        },
        "collection": {
          "collectedDateTime": "2017-09-04"
        },
        "text": {
          "status": "generated",
          "div": "<div xmlns=\"http://www.w3.org/1999/xhtml\"><table class=\"hl7__eu__lab__report\"><tr><th>Specimen</th><th>Collection Date</th></tr><tr><td>Acellular blood (serum or plasma) specimen</td><td><span class=\"nb\">04-Sep-2017</span></td></tr></table></div>"
        },
        "type": {
          "coding": [
            {
              "code": "122592007",
              "system": "http://snomed.info/sct",
              "display": "Acellular blood (serum or plasma) specimen"
            }
          ]
        }
      }
    },
    {
      "fullUrl": "urn:uuid:7e68208c-0662-4d04-8903-0ed932c651e1",
      "resource": {
        "resourceType": "Specimen",
        "id": "7e68208c-0662-4d04-8903-0ed932c651e1",
        "meta": {
          "profile": [
            "http://hl7.eu/fhir/laboratory/StructureDefinition/Specimen-eu-lab"
          ]
        },
        "collection": {
          "collectedDateTime": "2017-09-04"
        },
        "text": {
          "status": "generated",
          "div": "<div xmlns=\"http://www.w3.org/1999/xhtml\"><table class=\"hl7__eu__lab__report\"><tr><th>Specimen</th><th>Collection Date</th></tr><tr><td>Urine specimen</td><td><span class=\"nb\">04-Sep-2017</span></td></tr></table></div>"
        },
        "type": {
          "coding": [
            {
              "code": "122575003",
              "system": "http://snomed.info/sct",
              "display": "Urine specimen"
            }
          ]
        }
      }
    },
    {
      "fullUrl": "urn:uuid:73eb41bd-6938-4f59-9a1f-17e081739ae7",
      "resource": {
        "resourceType": "Specimen",
        "id": "73eb41bd-6938-4f59-9a1f-17e081739ae7",
        "meta": {
          "profile": [
            "http://hl7.eu/fhir/laboratory/StructureDefinition/Specimen-eu-lab"
          ]
        },
        "collection": {
          "collectedDateTime": "2017-09-04"
        },
        "text": {
          "status": "generated",
          "div": "<div xmlns=\"http://www.w3.org/1999/xhtml\"><table class=\"hl7__eu__lab__report\"><tr><th>Specimen</th><th>Collection Date</th></tr><tr><td>Whole blood specimen (specimen)</td><td><span class=\"nb\">04-Sep-2017</span></td></tr></table></div>"
        },
        "type": {
          "coding": [
            {
              "code": "258580003",
              "system": "http://snomed.info/sct",
              "display": "Whole blood specimen (specimen)"
            }
          ]
        }
      }
    },
    {
      "fullUrl": "urn:uuid:4c919787-a013-4d03-88bf-c04a151abd6e",
      "resource": {
        "resourceType": "Observation",
        "id": "4c919787-a013-4d03-88bf-c04a151abd6e",
        "meta": {
          "profile": [
            "http://hl7.eu/fhir/laboratory/StructureDefinition/Observation-resultslab-eu-lab"
          ]
        },
        "performer": [
          {
            "display": "The Central European Lab"
          }
        ],
        "category": [
          {
            "coding": [
              {
                "system": "http://terminology.hl7.org/CodeSystem/observation-category",
                "code": "laboratory"
              }
            ]
          }
        ],
        "code": {
          "coding": [
            {
              "code": "2345-7",
              "system": "http://loinc.org",
              "display": "Glucose [Mass/volume] in Serum or Plasma"
            }
          ],
          "text": "Glucose [Mass/volume] in Serum or Plasma"
        },
        "valueQuantity": {
          "system": "http://unitsofmeasure.org",
          "value": 69.9,
          "unit": "mg/dL",
          "code": "mg/dL"
        },
        "referenceRange": [
          {
            "low": {
              "value": 70,
              "code": "mg/dL",
              "system": "http://unitsofmeasure.org"
            }
          },
          {
            "high": {
              "value": 99,
              "code": "mg/dL",
              "system": "http://unitsofmeasure.org"
            }
          }
        ],
        "interpretation": [
          {
            "coding": [
              {
                "code": "L",
                "system": "http://terminology.hl7.org/CodeSystem/v3-ObservationInterpretation",
                "display": "Low"
              }
            ]
          }
        ],
        "text": {
          "status": "generated",
          "div": "<div xmlns=\"http://www.w3.org/1999/xhtml\"><table class=\"hl7__eu__lab__report\"><tr><th>Test</th><th>05-Sep-2017</th><th>Reference&#xA0;Range</th><th>Unit</th></tr><tr><td>Glucose [Mass/volume] in Serum or Plasma</td><td>69.9</td><td>70 - 99</td><td>L</td><td>mg/dL</td></tr></table></div>"
        },
        "status": "final",
        "subject": {
          "reference": "urn:uuid:9577e764-528c-42dc-b010-1ab0e595aad5",
          "display": "Meaghan Neary"
        },
        "effectiveDateTime": "2017-09-04T22:11:04Z",
        "specimen": {
          "reference": "urn:uuid:130813ce-1554-423e-99d2-2ff49de2ac04"
        }
      }
    },
    {
      "fullUrl": "urn:uuid:391a7310-76cd-43ba-8cf7-6f6e61ef2557",
      "resource": {
        "resourceType": "Observation",
        "id": "391a7310-76cd-43ba-8cf7-6f6e61ef2557",
        "meta": {
          "profile": [
            "http://hl7.eu/fhir/laboratory/StructureDefinition/Observation-resultslab-eu-lab"
          ]
        },
        "performer": [
          {
            "display": "The Central European Lab"
          }
        ],
        "category": [
          {
            "coding": [
              {
                "system": "http://terminology.hl7.org/CodeSystem/observation-category",
                "code": "laboratory"
              }
            ]
          }
        ],
        "code": {
          "coding": [
            {
              "code": "3094-0",
              "system": "http://loinc.org",
              "display": "Urea nitrogen [Mass/volume] in Serum or Plasma"
            }
          ],
          "text": "Urea nitrogen [Mass/volume] in Serum or Plasma"
        },
        "valueQuantity": {
          "system": "http://unitsofmeasure.org",
          "value": 7.2,
          "unit": "mg/dL",
          "code": "mg/dL"
        },
        "referenceRange": [
          {
            "low": {
              "value": 7,
              "code": "mg/dL",
              "system": "http://unitsofmeasure.org"
            }
          },
          {
            "high": {
              "value": 50,
              "code": "mg/dL",
              "system": "http://unitsofmeasure.org"
            }
          }
        ],
        "text": {
          "status": "generated",
          "div": "<div xmlns=\"http://www.w3.org/1999/xhtml\"><table class=\"hl7__eu__lab__report\"><tr><th>Test</th><th>05-Sep-2017</th><th>Reference&#xA0;Range</th><th>Unit</th></tr><tr><td>Urea nitrogen [Mass/volume] in Serum or Plasma</td><td>7.2</td><td>7 - 50</td><td></td><td>mg/dL</td></tr></table></div>"
        },
        "status": "final",
        "subject": {
          "reference": "urn:uuid:9577e764-528c-42dc-b010-1ab0e595aad5",
          "display": "Meaghan Neary"
        },
        "effectiveDateTime": "2017-09-04T22:11:04Z",
        "specimen": {
          "reference": "urn:uuid:130813ce-1554-423e-99d2-2ff49de2ac04"
        }
      }
    },
    {
      "fullUrl": "urn:uuid:cc9ddd1e-b05a-4bf5-b387-d5600c53dd39",
      "resource": {
        "resourceType": "Observation",
        "id": "cc9ddd1e-b05a-4bf5-b387-d5600c53dd39",
        "meta": {
          "profile": [
            "http://hl7.eu/fhir/laboratory/StructureDefinition/Observation-resultslab-eu-lab"
          ]
        },
        "performer": [
          {
            "display": "The Central European Lab"
          }
        ],
        "category": [
          {
            "coding": [
              {
                "system": "http://terminology.hl7.org/CodeSystem/observation-category",
                "code": "laboratory"
              }
            ]
          }
        ],
        "code": {
          "coding": [
            {
              "code": "2160-0",
              "system": "http://loinc.org",
              "display": "Creatinine [Mass/volume] in Serum or Plasma"
            }
          ],
          "text": "Creatinine [Mass/volume] in Serum or Plasma"
        },
        "valueQuantity": {
          "system": "http://unitsofmeasure.org",
          "value": 2,
          "unit": "mg/dL",
          "code": "mg/dL"
        },
        "referenceRange": [
          {
            "low": {
              "value": 0.6,
              "code": "mg/dL",
              "system": "http://unitsofmeasure.org"
            }
          },
          {
            "high": {
              "value": 1.1,
              "code": "mg/dL",
              "system": "http://unitsofmeasure.org"
            }
          }
        ],
        "interpretation": [
          {
            "coding": [
              {
                "code": "H",
                "system": "http://terminology.hl7.org/CodeSystem/v3-ObservationInterpretation",
                "display": "High"
              }
            ]
          }
        ],
        "text": {
          "status": "generated",
          "div": "<div xmlns=\"http://www.w3.org/1999/xhtml\"><table class=\"hl7__eu__lab__report\"><tr><th>Test</th><th>05-Sep-2017</th><th>Reference&#xA0;Range</th><th>Unit</th></tr><tr><td>Creatinine [Mass/volume] in Serum or Plasma</td><td>2.0</td><td>0.6 - 1.1</td><td>H</td><td>mg/dL</td></tr></table></div>"
        },
        "status": "final",
        "subject": {
          "reference": "urn:uuid:9577e764-528c-42dc-b010-1ab0e595aad5",
          "display": "Meaghan Neary"
        },
        "effectiveDateTime": "2017-09-04T22:11:04Z",
        "specimen": {
          "reference": "urn:uuid:130813ce-1554-423e-99d2-2ff49de2ac04"
        }
      }
    },
    {
      "fullUrl": "urn:uuid:8936f38f-a56c-4f5c-9fb7-9e9b2ebe530c",
      "resource": {
        "resourceType": "Observation",
        "id": "8936f38f-a56c-4f5c-9fb7-9e9b2ebe530c",
        "meta": {
          "profile": [
            "http://hl7.eu/fhir/laboratory/StructureDefinition/Observation-resultslab-eu-lab"
          ]
        },
        "performer": [
          {
            "display": "The Central European Lab"
          }
        ],
        "category": [
          {
            "coding": [
              {
                "system": "http://terminology.hl7.org/CodeSystem/observation-category",
                "code": "laboratory"
              }
            ]
          }
        ],
        "code": {
          "coding": [
            {
              "code": "17861-6",
              "system": "http://loinc.org",
              "display": "Calcium [Mass/volume] in Serum or Plasma"
            }
          ],
          "text": "Calcium [Mass/volume] in Serum or Plasma"
        },
        "valueQuantity": {
          "system": "http://unitsofmeasure.org",
          "value": 9.8,
          "unit": "mg/dL",
          "code": "mg/dL"
        },
        "referenceRange": [
          {
            "low": {
              "value": 8.6,
              "code": "mg/dL",
              "system": "http://unitsofmeasure.org"
            }
          },
          {
            "high": {
              "value": 10.4,
              "code": "mg/dL",
              "system": "http://unitsofmeasure.org"
            }
          }
        ],
        "text": {
          "status": "generated",
          "div": "<div xmlns=\"http://www.w3.org/1999/xhtml\"><table class=\"hl7__eu__lab__report\"><tr><th>Test</th><th>05-Sep-2017</th><th>Reference&#xA0;Range</th><th>Unit</th></tr><tr><td>Calcium [Mass/volume] in Serum or Plasma</td><td>9.8</td><td>8.6 - 10.4</td><td></td><td>mg/dL</td></tr></table></div>"
        },
        "status": "final",
        "subject": {
          "reference": "urn:uuid:9577e764-528c-42dc-b010-1ab0e595aad5",
          "display": "Meaghan Neary"
        },
        "effectiveDateTime": "2017-09-04T22:11:04Z",
        "specimen": {
          "reference": "urn:uuid:130813ce-1554-423e-99d2-2ff49de2ac04"
        }
      }
    },
    {
      "fullUrl": "urn:uuid:5ed43b89-0f2c-4fdd-8997-e2e4516d244f",
      "resource": {
        "resourceType": "Observation",
        "id": "5ed43b89-0f2c-4fdd-8997-e2e4516d244f",
        "meta": {
          "profile": [
            "http://hl7.eu/fhir/laboratory/StructureDefinition/Observation-resultslab-eu-lab"
          ]
        },
        "performer": [
          {
            "display": "The Central European Lab"
          }
        ],
        "category": [
          {
            "coding": [
              {
                "system": "http://terminology.hl7.org/CodeSystem/observation-category",
                "code": "laboratory"
              }
            ]
          }
        ],
        "code": {
          "coding": [
            {
              "code": "2951-2",
              "system": "http://loinc.org",
              "display": "Sodium [Moles/volume] in Serum or Plasma"
            }
          ],
          "text": "Sodium [Moles/volume] in Serum or Plasma"
        },
        "valueQuantity": {
          "system": "http://unitsofmeasure.org",
          "value": 138.3,
          "unit": "mmol/L",
          "code": "mmol/L"
        },
        "referenceRange": [
          {
            "low": {
              "value": 135,
              "code": "mmol/L",
              "system": "http://unitsofmeasure.org"
            }
          },
          {
            "high": {
              "value": 145,
              "code": "mmol/L",
              "system": "http://unitsofmeasure.org"
            }
          }
        ],
        "text": {
          "status": "generated",
          "div": "<div xmlns=\"http://www.w3.org/1999/xhtml\"><table class=\"hl7__eu__lab__report\"><tr><th>Test</th><th>05-Sep-2017</th><th>Reference&#xA0;Range</th><th>Unit</th></tr><tr><td>Sodium [Moles/volume] in Serum or Plasma</td><td>138.3</td><td>135 - 145</td><td></td><td>mmol/L</td></tr></table></div>"
        },
        "status": "final",
        "subject": {
          "reference": "urn:uuid:9577e764-528c-42dc-b010-1ab0e595aad5",
          "display": "Meaghan Neary"
        },
        "effectiveDateTime": "2017-09-04T22:11:04Z",
        "specimen": {
          "reference": "urn:uuid:130813ce-1554-423e-99d2-2ff49de2ac04"
        }
      }
    },
    {
      "fullUrl": "urn:uuid:122279d2-4f65-4d22-8b48-fc73671f2c28",
      "resource": {
        "resourceType": "Observation",
        "id": "122279d2-4f65-4d22-8b48-fc73671f2c28",
        "meta": {
          "profile": [
            "http://hl7.eu/fhir/laboratory/StructureDefinition/Observation-resultslab-eu-lab"
          ]
        },
        "performer": [
          {
            "display": "The Central European Lab"
          }
        ],
        "category": [
          {
            "coding": [
              {
                "system": "http://terminology.hl7.org/CodeSystem/observation-category",
                "code": "laboratory"
              }
            ]
          }
        ],
        "code": {
          "coding": [
            {
              "code": "2823-3",
              "system": "http://loinc.org",
              "display": "Potassium [Moles/volume] in Serum or Plasma"
            }
          ],
          "text": "Potassium [Moles/volume] in Serum or Plasma"
        },
        "valueQuantity": {
          "system": "http://unitsofmeasure.org",
          "value": 4.3,
          "unit": "mmol/L",
          "code": "mmol/L"
        },
        "referenceRange": [
          {
            "low": {
              "value": 3.5,
              "code": "mmol/L",
              "system": "http://unitsofmeasure.org"
            }
          },
          {
            "high": {
              "value": 5.1,
              "code": "mmol/L",
              "system": "http://unitsofmeasure.org"
            }
          }
        ],
        "text": {
          "status": "generated",
          "div": "<div xmlns=\"http://www.w3.org/1999/xhtml\"><table class=\"hl7__eu__lab__report\"><tr><th>Test</th><th>05-Sep-2017</th><th>Reference&#xA0;Range</th><th>Unit</th></tr><tr><td>Potassium [Moles/volume] in Serum or Plasma</td><td>4.3</td><td>3.5 - 5.1</td><td></td><td>mmol/L</td></tr></table></div>"
        },
        "status": "final",
        "subject": {
          "reference": "urn:uuid:9577e764-528c-42dc-b010-1ab0e595aad5",
          "display": "Meaghan Neary"
        },
        "effectiveDateTime": "2017-09-04T22:11:04Z",
        "specimen": {
          "reference": "urn:uuid:130813ce-1554-423e-99d2-2ff49de2ac04"
        }
      }
    },
    {
      "fullUrl": "urn:uuid:1cf7a02a-9116-4b97-9027-a9f327d17d5d",
      "resource": {
        "resourceType": "Observation",
        "id": "1cf7a02a-9116-4b97-9027-a9f327d17d5d",
        "meta": {
          "profile": [
            "http://hl7.eu/fhir/laboratory/StructureDefinition/Observation-resultslab-eu-lab"
          ]
        },
        "performer": [
          {
            "display": "The Central European Lab"
          }
        ],
        "category": [
          {
            "coding": [
              {
                "system": "http://terminology.hl7.org/CodeSystem/observation-category",
                "code": "laboratory"
              }
            ]
          }
        ],
        "code": {
          "coding": [
            {
              "code": "2075-0",
              "system": "http://loinc.org",
              "display": "Chloride [Moles/volume] in Serum or Plasma"
            }
          ],
          "text": "Chloride [Moles/volume] in Serum or Plasma"
        },
        "valueQuantity": {
          "system": "http://unitsofmeasure.org",
          "value": 106.3,
          "unit": "mmol/L",
          "code": "mmol/L"
        },
        "referenceRange": [
          {
            "low": {
              "value": 98,
              "code": "mmol/L",
              "system": "http://unitsofmeasure.org"
            }
          },
          {
            "high": {
              "value": 108,
              "code": "mmol/L",
              "system": "http://unitsofmeasure.org"
            }
          }
        ],
        "text": {
          "status": "generated",
          "div": "<div xmlns=\"http://www.w3.org/1999/xhtml\"><table class=\"hl7__eu__lab__report\"><tr><th>Test</th><th>05-Sep-2017</th><th>Reference&#xA0;Range</th><th>Unit</th></tr><tr><td>Chloride [Moles/volume] in Serum or Plasma</td><td>106.3</td><td>98 - 108</td><td></td><td>mmol/L</td></tr></table></div>"
        },
        "status": "final",
        "subject": {
          "reference": "urn:uuid:9577e764-528c-42dc-b010-1ab0e595aad5",
          "display": "Meaghan Neary"
        },
        "effectiveDateTime": "2017-09-04T22:11:04Z",
        "specimen": {
          "reference": "urn:uuid:130813ce-1554-423e-99d2-2ff49de2ac04"
        }
      }
    },
    {
      "fullUrl": "urn:uuid:eb441342-8ed1-4883-8f6b-d4be9524d1d3",
      "resource": {
        "resourceType": "Observation",
        "id": "eb441342-8ed1-4883-8f6b-d4be9524d1d3",
        "meta": {
          "profile": [
            "http://hl7.eu/fhir/laboratory/StructureDefinition/Observation-resultslab-eu-lab"
          ]
        },
        "performer": [
          {
            "display": "The Central European Lab"
          }
        ],
        "category": [
          {
            "coding": [
              {
                "system": "http://terminology.hl7.org/CodeSystem/observation-category",
                "code": "laboratory"
              }
            ]
          }
        ],
        "code": {
          "coding": [
            {
              "code": "2028-9",
              "system": "http://loinc.org",
              "display": "Carbon dioxide, total [Moles/volume] in Serum or Plasma"
            }
          ],
          "text": "Carbon dioxide, total [Moles/volume] in Serum or Plasma"
        },
        "valueQuantity": {
          "system": "http://unitsofmeasure.org",
          "value": 28.7,
          "unit": "mmol/L",
          "code": "mmol/L"
        },
        "referenceRange": [
          {
            "low": {
              "value": 22,
              "code": "mmol/L",
              "system": "http://unitsofmeasure.org"
            }
          },
          {
            "high": {
              "value": 32,
              "code": "mmol/L",
              "system": "http://unitsofmeasure.org"
            }
          }
        ],
        "text": {
          "status": "generated",
          "div": "<div xmlns=\"http://www.w3.org/1999/xhtml\"><table class=\"hl7__eu__lab__report\"><tr><th>Test</th><th>05-Sep-2017</th><th>Reference&#xA0;Range</th><th>Unit</th></tr><tr><td>Carbon dioxide, total [Moles/volume] in Serum or Plasma</td><td>28.7</td><td>22 - 32</td><td></td><td>mmol/L</td></tr></table></div>"
        },
        "status": "final",
        "subject": {
          "reference": "urn:uuid:9577e764-528c-42dc-b010-1ab0e595aad5",
          "display": "Meaghan Neary"
        },
        "effectiveDateTime": "2017-09-04T22:11:04Z",
        "specimen": {
          "reference": "urn:uuid:130813ce-1554-423e-99d2-2ff49de2ac04"
        }
      }
    },
    {
      "fullUrl": "urn:uuid:2da5e23c-2da7-4b23-9a76-162efdfdc45d",
      "resource": {
        "resourceType": "Observation",
        "id": "2da5e23c-2da7-4b23-9a76-162efdfdc45d",
        "meta": {
          "profile": [
            "http://hl7.eu/fhir/laboratory/StructureDefinition/Observation-resultslab-eu-lab"
          ]
        },
        "performer": [
          {
            "display": "The Central European Lab"
          }
        ],
        "category": [
          {
            "coding": [
              {
                "system": "http://terminology.hl7.org/CodeSystem/observation-category",
                "code": "laboratory"
              }
            ]
          }
        ],
        "code": {
          "coding": [
            {
              "code": "5767-9",
              "system": "http://loinc.org",
              "display": "Appearance of Urine"
            }
          ],
          "text": "Appearance of Urine"
        },
        "text": {
          "status": "generated",
          "div": "<div xmlns=\"http://www.w3.org/1999/xhtml\"><table class=\"hl7__eu__lab__report\"><tr><th>Test</th><th>05-Sep-2017</th><th>Reference&#xA0;Range</th><th>Unit</th></tr><tr><td>Appearance of Urine</td></tr></table></div>"
        },
        "status": "final",
        "subject": {
          "reference": "urn:uuid:9577e764-528c-42dc-b010-1ab0e595aad5",
          "display": "Meaghan Neary"
        },
        "effectiveDateTime": "2017-09-04T22:11:04Z",
        "specimen": {
          "reference": "urn:uuid:7e68208c-0662-4d04-8903-0ed932c651e1"
        }
      }
    },
    {
      "fullUrl": "urn:uuid:6ccd5982-6651-4eed-a3bc-21771a12fe2f",
      "resource": {
        "resourceType": "Observation",
        "id": "6ccd5982-6651-4eed-a3bc-21771a12fe2f",
        "meta": {
          "profile": [
            "http://hl7.eu/fhir/laboratory/StructureDefinition/Observation-resultslab-eu-lab"
          ]
        },
        "performer": [
          {
            "display": "The Central European Lab"
          }
        ],
        "category": [
          {
            "coding": [
              {
                "system": "http://terminology.hl7.org/CodeSystem/observation-category",
                "code": "laboratory"
              }
            ]
          }
        ],
        "code": {
          "coding": [
            {
              "code": "34533-0",
              "system": "http://loinc.org",
              "display": "Odor of Urine"
            }
          ],
          "text": "Odor of Urine"
        },
        "text": {
          "status": "generated",
          "div": "<div xmlns=\"http://www.w3.org/1999/xhtml\"><table class=\"hl7__eu__lab__report\"><tr><th>Test</th><th>05-Sep-2017</th><th>Reference&#xA0;Range</th><th>Unit</th></tr><tr><td>Odor of Urine</td></tr></table></div>"
        },
        "status": "final",
        "subject": {
          "reference": "urn:uuid:9577e764-528c-42dc-b010-1ab0e595aad5",
          "display": "Meaghan Neary"
        },
        "effectiveDateTime": "2017-09-04T22:11:04Z",
        "specimen": {
          "reference": "urn:uuid:7e68208c-0662-4d04-8903-0ed932c651e1"
        }
      }
    },
    {
      "fullUrl": "urn:uuid:12accad1-3130-4982-8a6b-1680535aa02d",
      "resource": {
        "resourceType": "Observation",
        "id": "12accad1-3130-4982-8a6b-1680535aa02d",
        "meta": {
          "profile": [
            "http://hl7.eu/fhir/laboratory/StructureDefinition/Observation-resultslab-eu-lab"
          ]
        },
        "performer": [
          {
            "display": "The Central European Lab"
          }
        ],
        "category": [
          {
            "coding": [
              {
                "system": "http://terminology.hl7.org/CodeSystem/observation-category",
                "code": "laboratory"
              }
            ]
          }
        ],
        "code": {
          "coding": [
            {
              "code": "32167-9",
              "system": "http://loinc.org",
              "display": "Clarity of Urine"
            }
          ],
          "text": "Clarity of Urine"
        },
        "text": {
          "status": "generated",
          "div": "<div xmlns=\"http://www.w3.org/1999/xhtml\"><table class=\"hl7__eu__lab__report\"><tr><th>Test</th><th>05-Sep-2017</th><th>Reference&#xA0;Range</th><th>Unit</th></tr><tr><td>Clarity of Urine</td></tr></table></div>"
        },
        "status": "final",
        "subject": {
          "reference": "urn:uuid:9577e764-528c-42dc-b010-1ab0e595aad5",
          "display": "Meaghan Neary"
        },
        "effectiveDateTime": "2017-09-04T22:11:04Z",
        "specimen": {
          "reference": "urn:uuid:7e68208c-0662-4d04-8903-0ed932c651e1"
        }
      }
    },
    {
      "fullUrl": "urn:uuid:272f9931-f592-4280-82f8-5b2a2b4982b9",
      "resource": {
        "resourceType": "Observation",
        "id": "272f9931-f592-4280-82f8-5b2a2b4982b9",
        "meta": {
          "profile": [
            "http://hl7.eu/fhir/laboratory/StructureDefinition/Observation-resultslab-eu-lab"
          ]
        },
        "performer": [
          {
            "display": "The Central European Lab"
          }
        ],
        "category": [
          {
            "coding": [
              {
                "system": "http://terminology.hl7.org/CodeSystem/observation-category",
                "code": "laboratory"
              }
            ]
          }
        ],
        "code": {
          "coding": [
            {
              "code": "5778-6",
              "system": "http://loinc.org",
              "display": "Color of Urine"
            }
          ],
          "text": "Color of Urine"
        },
        "text": {
          "status": "generated",
          "div": "<div xmlns=\"http://www.w3.org/1999/xhtml\"><table class=\"hl7__eu__lab__report\"><tr><th>Test</th><th>05-Sep-2017</th><th>Reference&#xA0;Range</th><th>Unit</th></tr><tr><td>Color of Urine</td></tr></table></div>"
        },
        "status": "final",
        "subject": {
          "reference": "urn:uuid:9577e764-528c-42dc-b010-1ab0e595aad5",
          "display": "Meaghan Neary"
        },
        "effectiveDateTime": "2017-09-04T22:11:04Z",
        "specimen": {
          "reference": "urn:uuid:7e68208c-0662-4d04-8903-0ed932c651e1"
        }
      }
    },
    {
      "fullUrl": "urn:uuid:79e7037d-c159-4bfd-a03d-de23d8431017",
      "resource": {
        "resourceType": "Observation",
        "id": "79e7037d-c159-4bfd-a03d-de23d8431017",
        "meta": {
          "profile": [
            "http://hl7.eu/fhir/laboratory/StructureDefinition/Observation-resultslab-eu-lab"
          ]
        },
        "performer": [
          {
            "display": "The Central European Lab"
          }
        ],
        "category": [
          {
            "coding": [
              {
                "system": "http://terminology.hl7.org/CodeSystem/observation-category",
                "code": "laboratory"
              }
            ]
          }
        ],
        "code": {
          "coding": [
            {
              "code": "5792-7",
              "system": "http://loinc.org",
              "display": "Glucose [Mass/volume] in Urine by Test strip"
            }
          ],
          "text": "Glucose [Mass/volume] in Urine by Test strip"
        },
        "valueQuantity": {
          "system": "http://unitsofmeasure.org",
          "value": 1.4,
          "unit": "mg/dL",
          "code": "mg/dL"
        },
        "referenceRange": [
          {
            "low": {
              "value": 0.8,
              "code": "mg/dL",
              "system": "http://unitsofmeasure.org"
            }
          },
          {
            "high": {
              "value": 0,
              "code": "mg/dL",
              "system": "http://unitsofmeasure.org"
            }
          }
        ],
        "interpretation": [
          {
            "coding": [
              {
                "code": "H",
                "system": "http://terminology.hl7.org/CodeSystem/v3-ObservationInterpretation",
                "display": "High"
              }
            ]
          }
        ],
        "text": {
          "status": "generated",
          "div": "<div xmlns=\"http://www.w3.org/1999/xhtml\"><table class=\"hl7__eu__lab__report\"><tr><th>Test</th><th>05-Sep-2017</th><th>Reference&#xA0;Range</th><th>Unit</th></tr><tr><td>Glucose [Mass/volume] in Urine by Test strip</td><td>1.4</td><td>0.8 - 0</td><td>H</td><td>mg/dL</td></tr></table></div>"
        },
        "status": "final",
        "subject": {
          "reference": "urn:uuid:9577e764-528c-42dc-b010-1ab0e595aad5",
          "display": "Meaghan Neary"
        },
        "effectiveDateTime": "2017-09-04T22:11:04Z",
        "specimen": {
          "reference": "urn:uuid:7e68208c-0662-4d04-8903-0ed932c651e1"
        }
      }
    },
    {
      "fullUrl": "urn:uuid:13ece7a3-5f7b-4b6f-9798-f59f6c9c03ba",
      "resource": {
        "resourceType": "Observation",
        "id": "13ece7a3-5f7b-4b6f-9798-f59f6c9c03ba",
        "meta": {
          "profile": [
            "http://hl7.eu/fhir/laboratory/StructureDefinition/Observation-resultslab-eu-lab"
          ]
        },
        "performer": [
          {
            "display": "The Central European Lab"
          }
        ],
        "category": [
          {
            "coding": [
              {
                "system": "http://terminology.hl7.org/CodeSystem/observation-category",
                "code": "laboratory"
              }
            ]
          }
        ],
        "code": {
          "coding": [
            {
              "code": "25428-4",
              "system": "http://loinc.org",
              "display": "Glucose [Presence] in Urine by Test strip"
            }
          ],
          "text": "Glucose [Presence] in Urine by Test strip"
        },
        "text": {
          "status": "generated",
          "div": "<div xmlns=\"http://www.w3.org/1999/xhtml\"><table class=\"hl7__eu__lab__report\"><tr><th>Test</th><th>05-Sep-2017</th><th>Reference&#xA0;Range</th><th>Unit</th></tr><tr><td>Glucose [Presence] in Urine by Test strip</td></tr></table></div>"
        },
        "status": "final",
        "subject": {
          "reference": "urn:uuid:9577e764-528c-42dc-b010-1ab0e595aad5",
          "display": "Meaghan Neary"
        },
        "effectiveDateTime": "2017-09-04T22:11:04Z",
        "specimen": {
          "reference": "urn:uuid:7e68208c-0662-4d04-8903-0ed932c651e1"
        }
      }
    },
    {
      "fullUrl": "urn:uuid:d47459d3-9522-4b66-b749-685fb3235aef",
      "resource": {
        "resourceType": "Observation",
        "id": "d47459d3-9522-4b66-b749-685fb3235aef",
        "meta": {
          "profile": [
            "http://hl7.eu/fhir/laboratory/StructureDefinition/Observation-resultslab-eu-lab"
          ]
        },
        "performer": [
          {
            "display": "The Central European Lab"
          }
        ],
        "category": [
          {
            "coding": [
              {
                "system": "http://terminology.hl7.org/CodeSystem/observation-category",
                "code": "laboratory"
              }
            ]
          }
        ],
        "code": {
          "coding": [
            {
              "code": "20505-4",
              "system": "http://loinc.org",
              "display": "Bilirubin.total [Mass/volume] in Urine by Test strip"
            }
          ],
          "text": "Bilirubin.total [Mass/volume] in Urine by Test strip"
        },
        "valueQuantity": {
          "system": "http://unitsofmeasure.org",
          "value": 0.9,
          "unit": "mg/dL",
          "code": "mg/dL"
        },
        "referenceRange": [
          {
            "low": {
              "value": 0,
              "code": "mg/dL",
              "system": "http://unitsofmeasure.org"
            }
          },
          {
            "high": {
              "value": 1,
              "code": "mg/dL",
              "system": "http://unitsofmeasure.org"
            }
          }
        ],
        "text": {
          "status": "generated",
          "div": "<div xmlns=\"http://www.w3.org/1999/xhtml\"><table class=\"hl7__eu__lab__report\"><tr><th>Test</th><th>05-Sep-2017</th><th>Reference&#xA0;Range</th><th>Unit</th></tr><tr><td>Bilirubin.total [Mass/volume] in Urine by Test strip</td><td>0.9</td><td>0 - 1</td><td></td><td>mg/dL</td></tr></table></div>"
        },
        "status": "final",
        "subject": {
          "reference": "urn:uuid:9577e764-528c-42dc-b010-1ab0e595aad5",
          "display": "Meaghan Neary"
        },
        "effectiveDateTime": "2017-09-04T22:11:04Z",
        "specimen": {
          "reference": "urn:uuid:7e68208c-0662-4d04-8903-0ed932c651e1"
        }
      }
    },
    {
      "fullUrl": "urn:uuid:f1001a2b-c542-4d99-ad82-322083490dfe",
      "resource": {
        "resourceType": "Observation",
        "id": "f1001a2b-c542-4d99-ad82-322083490dfe",
        "meta": {
          "profile": [
            "http://hl7.eu/fhir/laboratory/StructureDefinition/Observation-resultslab-eu-lab"
          ]
        },
        "performer": [
          {
            "display": "The Central European Lab"
          }
        ],
        "category": [
          {
            "coding": [
              {
                "system": "http://terminology.hl7.org/CodeSystem/observation-category",
                "code": "laboratory"
              }
            ]
          }
        ],
        "code": {
          "coding": [
            {
              "code": "5770-3",
              "system": "http://loinc.org",
              "display": "Bilirubin.total [Presence] in Urine by Test strip"
            }
          ],
          "text": "Bilirubin.total [Presence] in Urine by Test strip"
        },
        "text": {
          "status": "generated",
          "div": "<div xmlns=\"http://www.w3.org/1999/xhtml\"><table class=\"hl7__eu__lab__report\"><tr><th>Test</th><th>05-Sep-2017</th><th>Reference&#xA0;Range</th><th>Unit</th></tr><tr><td>Bilirubin.total [Presence] in Urine by Test strip</td></tr></table></div>"
        },
        "status": "final",
        "subject": {
          "reference": "urn:uuid:9577e764-528c-42dc-b010-1ab0e595aad5",
          "display": "Meaghan Neary"
        },
        "effectiveDateTime": "2017-09-04T22:11:04Z",
        "specimen": {
          "reference": "urn:uuid:7e68208c-0662-4d04-8903-0ed932c651e1"
        }
      }
    },
    {
      "fullUrl": "urn:uuid:0a80a044-a384-4a2c-b4a0-7ce8c479851e",
      "resource": {
        "resourceType": "Observation",
        "id": "0a80a044-a384-4a2c-b4a0-7ce8c479851e",
        "meta": {
          "profile": [
            "http://hl7.eu/fhir/laboratory/StructureDefinition/Observation-resultslab-eu-lab"
          ]
        },
        "performer": [
          {
            "display": "The Central European Lab"
          }
        ],
        "category": [
          {
            "coding": [
              {
                "system": "http://terminology.hl7.org/CodeSystem/observation-category",
                "code": "laboratory"
              }
            ]
          }
        ],
        "code": {
          "coding": [
            {
              "code": "5797-6",
              "system": "http://loinc.org",
              "display": "Ketones [Mass/volume] in Urine by Test strip"
            }
          ],
          "text": "Ketones [Mass/volume] in Urine by Test strip"
        },
        "valueQuantity": {
          "system": "http://unitsofmeasure.org",
          "value": 8.7,
          "unit": "mg/dL",
          "code": "mg/dL"
        },
        "referenceRange": [
          {
            "low": {
              "value": 0,
              "code": "mg/dL",
              "system": "http://unitsofmeasure.org"
            }
          },
          {
            "high": {
              "value": 4,
              "code": "mg/dL",
              "system": "http://unitsofmeasure.org"
            }
          }
        ],
        "interpretation": [
          {
            "coding": [
              {
                "code": "H",
                "system": "http://terminology.hl7.org/CodeSystem/v3-ObservationInterpretation",
                "display": "High"
              }
            ]
          }
        ],
        "text": {
          "status": "generated",
          "div": "<div xmlns=\"http://www.w3.org/1999/xhtml\"><table class=\"hl7__eu__lab__report\"><tr><th>Test</th><th>05-Sep-2017</th><th>Reference&#xA0;Range</th><th>Unit</th></tr><tr><td>Ketones [Mass/volume] in Urine by Test strip</td><td>8.7</td><td>0 - 4</td><td>H</td><td>mg/dL</td></tr></table></div>"
        },
        "status": "final",
        "subject": {
          "reference": "urn:uuid:9577e764-528c-42dc-b010-1ab0e595aad5",
          "display": "Meaghan Neary"
        },
        "effectiveDateTime": "2017-09-04T22:11:04Z",
        "specimen": {
          "reference": "urn:uuid:7e68208c-0662-4d04-8903-0ed932c651e1"
        }
      }
    },
    {
      "fullUrl": "urn:uuid:b3327a47-ba5f-4a08-93b6-f87fcf33cb5d",
      "resource": {
        "resourceType": "Observation",
        "id": "b3327a47-ba5f-4a08-93b6-f87fcf33cb5d",
        "meta": {
          "profile": [
            "http://hl7.eu/fhir/laboratory/StructureDefinition/Observation-resultslab-eu-lab"
          ]
        },
        "performer": [
          {
            "display": "The Central European Lab"
          }
        ],
        "category": [
          {
            "coding": [
              {
                "system": "http://terminology.hl7.org/CodeSystem/observation-category",
                "code": "laboratory"
              }
            ]
          }
        ],
        "code": {
          "coding": [
            {
              "code": "2514-8",
              "system": "http://loinc.org",
              "display": "Ketones [Presence] in Urine by Test strip"
            }
          ],
          "text": "Ketones [Presence] in Urine by Test strip"
        },
        "text": {
          "status": "generated",
          "div": "<div xmlns=\"http://www.w3.org/1999/xhtml\"><table class=\"hl7__eu__lab__report\"><tr><th>Test</th><th>05-Sep-2017</th><th>Reference&#xA0;Range</th><th>Unit</th></tr><tr><td>Ketones [Presence] in Urine by Test strip</td></tr></table></div>"
        },
        "status": "final",
        "subject": {
          "reference": "urn:uuid:9577e764-528c-42dc-b010-1ab0e595aad5",
          "display": "Meaghan Neary"
        },
        "effectiveDateTime": "2017-09-04T22:11:04Z",
        "specimen": {
          "reference": "urn:uuid:7e68208c-0662-4d04-8903-0ed932c651e1"
        }
      }
    },
    {
      "fullUrl": "urn:uuid:591020d9-c6eb-41fe-a582-468f8aec80bf",
      "resource": {
        "resourceType": "Observation",
        "id": "591020d9-c6eb-41fe-a582-468f8aec80bf",
        "meta": {
          "profile": [
            "http://hl7.eu/fhir/laboratory/StructureDefinition/Observation-resultslab-eu-lab"
          ]
        },
        "performer": [
          {
            "display": "The Central European Lab"
          }
        ],
        "category": [
          {
            "coding": [
              {
                "system": "http://terminology.hl7.org/CodeSystem/observation-category",
                "code": "laboratory"
              }
            ]
          }
        ],
        "code": {
          "coding": [
            {
              "code": "5811-5",
              "system": "http://loinc.org",
              "display": "Specific gravity of Urine by Test strip"
            }
          ],
          "text": "Specific gravity of Urine by Test strip"
        },
        "valueQuantity": {
          "system": "http://unitsofmeasure.org",
          "value": 1,
          "unit": "{nominal}",
          "code": "{nominal}"
        },
        "referenceRange": [
          {
            "low": {
              "value": 1.005,
              "code": "g/mL",
              "system": "http://unitsofmeasure.org"
            }
          },
          {
            "high": {
              "value": 1.03,
              "code": "g/mL",
              "system": "http://unitsofmeasure.org"
            }
          }
        ],
        "interpretation": [
          {
            "coding": [
              {
                "code": "L",
                "system": "http://terminology.hl7.org/CodeSystem/v3-ObservationInterpretation",
                "display": "Low"
              }
            ]
          }
        ],
        "text": {
          "status": "generated",
          "div": "<div xmlns=\"http://www.w3.org/1999/xhtml\"><table class=\"hl7__eu__lab__report\"><tr><th>Test</th><th>05-Sep-2017</th><th>Reference&#xA0;Range</th><th>Unit</th></tr><tr><td>Specific gravity of Urine by Test strip</td><td>1.0</td><td>1.005 - 1.03</td><td>L</td><td>{nominal}</td></tr></table></div>"
        },
        "status": "final",
        "subject": {
          "reference": "urn:uuid:9577e764-528c-42dc-b010-1ab0e595aad5",
          "display": "Meaghan Neary"
        },
        "effectiveDateTime": "2017-09-04T22:11:04Z",
        "specimen": {
          "reference": "urn:uuid:7e68208c-0662-4d04-8903-0ed932c651e1"
        }
      }
    },
    {
      "fullUrl": "urn:uuid:c0b6a2c2-5b2d-4fb0-8ea3-82d8f9a245d6",
      "resource": {
        "resourceType": "Observation",
        "id": "c0b6a2c2-5b2d-4fb0-8ea3-82d8f9a245d6",
        "meta": {
          "profile": [
            "http://hl7.eu/fhir/laboratory/StructureDefinition/Observation-resultslab-eu-lab"
          ]
        },
        "performer": [
          {
            "display": "The Central European Lab"
          }
        ],
        "category": [
          {
            "coding": [
              {
                "system": "http://terminology.hl7.org/CodeSystem/observation-category",
                "code": "laboratory"
              }
            ]
          }
        ],
        "code": {
          "coding": [
            {
              "code": "5803-2",
              "system": "http://loinc.org",
              "display": "pH of Urine by Test strip"
            }
          ],
          "text": "pH of Urine by Test strip"
        },
        "valueQuantity": {
          "system": "http://unitsofmeasure.org",
          "value": 5.2,
          "unit": "pH",
          "code": "pH"
        },
        "referenceRange": [
          {
            "low": {
              "value": 4.6,
              "code": "pH",
              "system": "http://unitsofmeasure.org"
            }
          },
          {
            "high": {
              "value": 7,
              "code": "pH",
              "system": "http://unitsofmeasure.org"
            }
          }
        ],
        "text": {
          "status": "generated",
          "div": "<div xmlns=\"http://www.w3.org/1999/xhtml\"><table class=\"hl7__eu__lab__report\"><tr><th>Test</th><th>05-Sep-2017</th><th>Reference&#xA0;Range</th><th>Unit</th></tr><tr><td>pH of Urine by Test strip</td><td>5.2</td><td>4.6 - 7</td><td></td><td>pH</td></tr></table></div>"
        },
        "status": "final",
        "subject": {
          "reference": "urn:uuid:9577e764-528c-42dc-b010-1ab0e595aad5",
          "display": "Meaghan Neary"
        },
        "effectiveDateTime": "2017-09-04T22:11:04Z",
        "specimen": {
          "reference": "urn:uuid:7e68208c-0662-4d04-8903-0ed932c651e1"
        }
      }
    },
    {
      "fullUrl": "urn:uuid:dd76033c-d365-4b95-8241-2d4b7fabd4d2",
      "resource": {
        "resourceType": "Observation",
        "id": "dd76033c-d365-4b95-8241-2d4b7fabd4d2",
        "meta": {
          "profile": [
            "http://hl7.eu/fhir/laboratory/StructureDefinition/Observation-resultslab-eu-lab"
          ]
        },
        "performer": [
          {
            "display": "The Central European Lab"
          }
        ],
        "category": [
          {
            "coding": [
              {
                "system": "http://terminology.hl7.org/CodeSystem/observation-category",
                "code": "laboratory"
              }
            ]
          }
        ],
        "code": {
          "coding": [
            {
              "code": "5804-0",
              "system": "http://loinc.org",
              "display": "Protein [Mass/volume] in Urine by Test strip"
            }
          ],
          "text": "Protein [Mass/volume] in Urine by Test strip"
        },
        "valueQuantity": {
          "system": "http://unitsofmeasure.org",
          "value": 287.1,
          "unit": "mg/dL",
          "code": "mg/dL"
        },
        "referenceRange": [
          {
            "low": {
              "value": 0,
              "code": "mg/dL",
              "system": "http://unitsofmeasure.org"
            }
          },
          {
            "high": {
              "value": 14,
              "code": "mg/dL",
              "system": "http://unitsofmeasure.org"
            }
          }
        ],
        "interpretation": [
          {
            "coding": [
              {
                "code": "H",
                "system": "http://terminology.hl7.org/CodeSystem/v3-ObservationInterpretation",
                "display": "High"
              }
            ]
          }
        ],
        "text": {
          "status": "generated",
          "div": "<div xmlns=\"http://www.w3.org/1999/xhtml\"><table class=\"hl7__eu__lab__report\"><tr><th>Test</th><th>05-Sep-2017</th><th>Reference&#xA0;Range</th><th>Unit</th></tr><tr><td>Protein [Mass/volume] in Urine by Test strip</td><td>287.1</td><td>0 - 14</td><td>H</td><td>mg/dL</td></tr></table></div>"
        },
        "status": "final",
        "subject": {
          "reference": "urn:uuid:9577e764-528c-42dc-b010-1ab0e595aad5",
          "display": "Meaghan Neary"
        },
        "effectiveDateTime": "2017-09-04T22:11:04Z",
        "specimen": {
          "reference": "urn:uuid:7e68208c-0662-4d04-8903-0ed932c651e1"
        }
      }
    },
    {
      "fullUrl": "urn:uuid:970c33df-c02a-4583-967c-a7111ead2e9b",
      "resource": {
        "resourceType": "Observation",
        "id": "970c33df-c02a-4583-967c-a7111ead2e9b",
        "meta": {
          "profile": [
            "http://hl7.eu/fhir/laboratory/StructureDefinition/Observation-resultslab-eu-lab"
          ]
        },
        "performer": [
          {
            "display": "The Central European Lab"
          }
        ],
        "category": [
          {
            "coding": [
              {
                "system": "http://terminology.hl7.org/CodeSystem/observation-category",
                "code": "laboratory"
              }
            ]
          }
        ],
        "code": {
          "coding": [
            {
              "code": "20454-5",
              "system": "http://loinc.org",
              "display": "Protein [Presence] in Urine by Test strip"
            }
          ],
          "text": "Protein [Presence] in Urine by Test strip"
        },
        "text": {
          "status": "generated",
          "div": "<div xmlns=\"http://www.w3.org/1999/xhtml\"><table class=\"hl7__eu__lab__report\"><tr><th>Test</th><th>05-Sep-2017</th><th>Reference&#xA0;Range</th><th>Unit</th></tr><tr><td>Protein [Presence] in Urine by Test strip</td></tr></table></div>"
        },
        "status": "final",
        "subject": {
          "reference": "urn:uuid:9577e764-528c-42dc-b010-1ab0e595aad5",
          "display": "Meaghan Neary"
        },
        "effectiveDateTime": "2017-09-04T22:11:04Z",
        "specimen": {
          "reference": "urn:uuid:7e68208c-0662-4d04-8903-0ed932c651e1"
        }
      }
    },
    {
      "fullUrl": "urn:uuid:3f6a0ad1-ca24-45cd-adbd-d231d204fae9",
      "resource": {
        "resourceType": "Observation",
        "id": "3f6a0ad1-ca24-45cd-adbd-d231d204fae9",
        "meta": {
          "profile": [
            "http://hl7.eu/fhir/laboratory/StructureDefinition/Observation-resultslab-eu-lab"
          ]
        },
        "performer": [
          {
            "display": "The Central European Lab"
          }
        ],
        "category": [
          {
            "coding": [
              {
                "system": "http://terminology.hl7.org/CodeSystem/observation-category",
                "code": "laboratory"
              }
            ]
          }
        ],
        "code": {
          "coding": [
            {
              "code": "5802-4",
              "system": "http://loinc.org",
              "display": "Nitrite [Presence] in Urine by Test strip"
            }
          ],
          "text": "Nitrite [Presence] in Urine by Test strip"
        },
        "text": {
          "status": "generated",
          "div": "<div xmlns=\"http://www.w3.org/1999/xhtml\"><table class=\"hl7__eu__lab__report\"><tr><th>Test</th><th>05-Sep-2017</th><th>Reference&#xA0;Range</th><th>Unit</th></tr><tr><td>Nitrite [Presence] in Urine by Test strip</td></tr></table></div>"
        },
        "status": "final",
        "subject": {
          "reference": "urn:uuid:9577e764-528c-42dc-b010-1ab0e595aad5",
          "display": "Meaghan Neary"
        },
        "effectiveDateTime": "2017-09-04T22:11:04Z",
        "specimen": {
          "reference": "urn:uuid:7e68208c-0662-4d04-8903-0ed932c651e1"
        }
      }
    },
    {
      "fullUrl": "urn:uuid:2f3c7384-3d15-4161-9bb7-f3c3c5386471",
      "resource": {
        "resourceType": "Observation",
        "id": "2f3c7384-3d15-4161-9bb7-f3c3c5386471",
        "meta": {
          "profile": [
            "http://hl7.eu/fhir/laboratory/StructureDefinition/Observation-resultslab-eu-lab"
          ]
        },
        "performer": [
          {
            "display": "The Central European Lab"
          }
        ],
        "category": [
          {
            "coding": [
              {
                "system": "http://terminology.hl7.org/CodeSystem/observation-category",
                "code": "laboratory"
              }
            ]
          }
        ],
        "code": {
          "coding": [
            {
              "code": "5794-3",
              "system": "http://loinc.org",
              "display": "Hemoglobin [Presence] in Urine by Test strip"
            }
          ],
          "text": "Hemoglobin [Presence] in Urine by Test strip"
        },
        "text": {
          "status": "generated",
          "div": "<div xmlns=\"http://www.w3.org/1999/xhtml\"><table class=\"hl7__eu__lab__report\"><tr><th>Test</th><th>05-Sep-2017</th><th>Reference&#xA0;Range</th><th>Unit</th></tr><tr><td>Hemoglobin [Presence] in Urine by Test strip</td></tr></table></div>"
        },
        "status": "final",
        "subject": {
          "reference": "urn:uuid:9577e764-528c-42dc-b010-1ab0e595aad5",
          "display": "Meaghan Neary"
        },
        "effectiveDateTime": "2017-09-04T22:11:04Z",
        "specimen": {
          "reference": "urn:uuid:7e68208c-0662-4d04-8903-0ed932c651e1"
        }
      }
    },
    {
      "fullUrl": "urn:uuid:9dcb12f3-c4a8-42be-bb19-d78842d93ab1",
      "resource": {
        "resourceType": "Observation",
        "id": "9dcb12f3-c4a8-42be-bb19-d78842d93ab1",
        "meta": {
          "profile": [
            "http://hl7.eu/fhir/laboratory/StructureDefinition/Observation-resultslab-eu-lab"
          ]
        },
        "performer": [
          {
            "display": "The Central European Lab"
          }
        ],
        "category": [
          {
            "coding": [
              {
                "system": "http://terminology.hl7.org/CodeSystem/observation-category",
                "code": "laboratory"
              }
            ]
          }
        ],
        "code": {
          "coding": [
            {
              "code": "5799-2",
              "system": "http://loinc.org",
              "display": "Leukocyte esterase [Presence] in Urine by Test strip"
            }
          ],
          "text": "Leukocyte esterase [Presence] in Urine by Test strip"
        },
        "text": {
          "status": "generated",
          "div": "<div xmlns=\"http://www.w3.org/1999/xhtml\"><table class=\"hl7__eu__lab__report\"><tr><th>Test</th><th>05-Sep-2017</th><th>Reference&#xA0;Range</th><th>Unit</th></tr><tr><td>Leukocyte esterase [Presence] in Urine by Test strip</td></tr></table></div>"
        },
        "status": "final",
        "subject": {
          "reference": "urn:uuid:9577e764-528c-42dc-b010-1ab0e595aad5",
          "display": "Meaghan Neary"
        },
        "effectiveDateTime": "2017-09-04T22:11:04Z",
        "specimen": {
          "reference": "urn:uuid:7e68208c-0662-4d04-8903-0ed932c651e1"
        }
      }
    },
    {
      "fullUrl": "urn:uuid:5473448b-08dd-47fd-8aa7-153afd5b4255",
      "resource": {
        "resourceType": "Observation",
        "id": "5473448b-08dd-47fd-8aa7-153afd5b4255",
        "meta": {
          "profile": [
            "http://hl7.eu/fhir/laboratory/StructureDefinition/Observation-resultslab-eu-lab"
          ]
        },
        "performer": [
          {
            "display": "The Central European Lab"
          }
        ],
        "category": [
          {
            "coding": [
              {
                "system": "http://terminology.hl7.org/CodeSystem/observation-category",
                "code": "laboratory"
              }
            ]
          }
        ],
        "code": {
          "coding": [
            {
              "code": "4548-4",
              "system": "http://loinc.org",
              "display": "Hemoglobin A1c/Hemoglobin.total in Blood"
            }
          ],
          "text": "Hemoglobin A1c/Hemoglobin.total in Blood"
        },
        "valueQuantity": {
          "system": "http://unitsofmeasure.org",
          "value": 3.2,
          "unit": "%",
          "code": "%"
        },
        "referenceRange": [
          {
            "low": {
              "value": 4,
              "code": "%",
              "system": "http://unitsofmeasure.org"
            }
          },
          {
            "high": {
              "value": 6.4,
              "code": "%",
              "system": "http://unitsofmeasure.org"
            }
          }
        ],
        "interpretation": [
          {
            "coding": [
              {
                "code": "L",
                "system": "http://terminology.hl7.org/CodeSystem/v3-ObservationInterpretation",
                "display": "Low"
              }
            ]
          }
        ],
        "text": {
          "status": "generated",
          "div": "<div xmlns=\"http://www.w3.org/1999/xhtml\"><table class=\"hl7__eu__lab__report\"><tr><th>Test</th><th>05-Sep-2017</th><th>Reference&#xA0;Range</th><th>Unit</th></tr><tr><td>Hemoglobin A1c/Hemoglobin.total in Blood</td><td>3.2</td><td>4 - 6.4</td><td>L</td><td>%</td></tr></table></div>"
        },
        "status": "final",
        "subject": {
          "reference": "urn:uuid:9577e764-528c-42dc-b010-1ab0e595aad5",
          "display": "Meaghan Neary"
        },
        "effectiveDateTime": "2017-09-04T22:11:04Z",
        "specimen": {
          "reference": "urn:uuid:73eb41bd-6938-4f59-9a1f-17e081739ae7"
        }
      }
    },
    {
      "fullUrl": "urn:uuid:9262a357-c23f-4c04-9d11-31c7a9733b10",
      "resource": {
        "resourceType": "Device",
        "id": "9262a357-c23f-4c04-9d11-31c7a9733b10",
        "deviceName": [
          {
            "name": "SYNDERAI Synthetic Generator",
            "type": "manufacturer-name"
          }
        ],
        "version": [
          {
            "value": "5.0"
          }
        ],
        "text": {
          "status": "generated",
          "div": "<div xmlns=\"http://www.w3.org/1999/xhtml\">SYNDERAI Synthetic Generator v5.0</div>"
        },
        "status": "active\"",
        "distinctIdentifier": "synderai-generator-50",
        "manufacturer": "SYNDERAI Project"
      }
    },
    {
      "fullUrl": "urn:uuid:283b2b02-1584-4467-a986-a4469ba146e5",
      "resource": {
        "resourceType": "Provenance",
        "id": "283b2b02-1584-4467-a986-a4469ba146e5",
        "target": [
          {
            "reference": "Patient/9577e764-528c-42dc-b010-1ab0e595aad5"
          },
          {
            "reference": "Bundle/3cfd094a-1cdf-46aa-b156-2d3830c86a3f"
          },
          {
            "reference": "Composition/8bf8fe9f-6dd7-40c0-a079-c260da9b2fd1"
          },
          {
            "reference": "PractitionerRole/4e63d819-6a1e-4735-8fb6-face0acd6ae6"
          },
          {
            "reference": "Practitioner/de3275bd-522d-4c73-804c-837f1270367c"
          },
          {
            "reference": "PractitionerRole/b21d31b7-802f-4a4f-ab0e-a0a6aa60023f"
          },
          {
            "reference": "Organization/77a9a834-6eda-40bd-a515-a186621aff3b"
          }
        ],
        "activity": {
          "text": "Synthetic Example Data Generation"
        },
        "policy": [
          "https://synderai.net/synderai-synthetic-data-policy"
        ],
        "agent": [
          {
            "type": {
              "text": "author"
            },
            "who": {
              "reference": "Device/9262a357-c23f-4c04-9d11-31c7a9733b10"
            }
          }
        ],
        "reason": [
          {
            "text": "Interoperability Testing and Training (non-clinical use)"
          }
        ],
        "text": {
          "status": "generated",
          "div": "<div xmlns=\"http://www.w3.org/1999/xhtml\">Provenance for SYNDERAI Synthetic Example Data Resource</div>"
        },
        "recorded": "2017-09-05T00:11:04Z"
      }
    },
    {
      "fullUrl": "urn:uuid:4e63d819-6a1e-4735-8fb6-face0acd6ae6",
      "resource": {
        "resourceType": "PractitionerRole",
        "id": "4e63d819-6a1e-4735-8fb6-face0acd6ae6",
        "meta": {
          "profile": [
            "http://hl7.eu/fhir/base/StructureDefinition/practitionerRole-eu"
          ]
        },
        "text": {
          "status": "generated",
          "div": "<div xmlns=\"http://www.w3.org/1999/xhtml\">Laboratory Role Id: 4e63d819-6a1e-4735-8fb6-face0acd6ae6</div>"
        },
        "practitioner": {
          "reference": "urn:uuid:de3275bd-522d-4c73-804c-837f1270367c"
        }
      }
    },
    {
      "fullUrl": "urn:uuid:de3275bd-522d-4c73-804c-837f1270367c",
      "resource": {
        "resourceType": "Practitioner",
        "id": "de3275bd-522d-4c73-804c-837f1270367c",
        "meta": {
          "profile": [
            "http://hl7.eu/fhir/base/StructureDefinition/practitioner-eu"
          ]
        },
        "identifier": [
          {
            "assigner": {
              "display": "HL7 Europe"
            },
            "system": "urn:oid:2.16.840.1.113883.2.51.999",
            "value": "4f729bb4-86cf-46db-b59a-9fb914ca3486"
          }
        ],
        "name": [
          {
            "prefix": [
              "dr"
            ],
            "given": [
              "Ex"
            ],
            "family": "Ample"
          }
        ],
        "address": [
          {
            "line": [
              "Laboratoire Central Européenne",
              "Boulevard du Jardin Botanique 32"
            ],
            "postalCode": "1000",
            "city": "Brussels",
            "country": "Belgium"
          }
        ],
        "text": {
          "status": "generated",
          "div": "<div xmlns=\"http://www.w3.org/1999/xhtml\">Laboratory: Laboratoire Central Européenne, 1000 Brussels, Belgium</div>"
        }
      }
    }
  ],
  "type": "document",
  "timestamp": "2017-09-05T00:11:04Z"
}
