{
  "resourceType": "Bundle",
  "id": "512f8455-59c4-49cb-a43b-bcc63d7663a2",
  "meta": {
    "profile": [
      "http://hl7.eu/fhir/laboratory/StructureDefinition/Bundle-eu-lab"
    ]
  },
  "identifier": {
    "assigner": {
      "display": "HL7 Europe"
    },
    "system": "urn:oid:2.16.840.1.113883.2.51.999",
    "value": "9adebfc6-b1c8-4d7c-9835-c93130420f55"
  },
  "entry": [
    {
      "fullUrl": "urn:uuid:166e0c51-d42b-4ff3-8eb6-318a2c506500",
      "resource": {
        "resourceType": "Composition",
        "id": "166e0c51-d42b-4ff3-8eb6-318a2c506500",
        "meta": {
          "profile": [
            "http://hl7.eu/fhir/laboratory/StructureDefinition/Composition-eu-lab"
          ]
        },
        "identifier": {
          "assigner": {
            "display": "HL7 Europe"
          },
          "system": "urn:oid:2.16.840.1.113883.2.51.999",
          "value": "82b7d76f-dcaf-486a-918f-343e2b78a80a"
        },
        "author": [
          {
            "reference": "urn:uuid:427f1db2-3c76-4420-afe7-e53ec150b9ac"
          }
        ],
        "category": [
          {
            "coding": [
              {
                "code": "26436-6",
                "system": "http://loinc.org",
                "display": "Laboratory studies (set)"
              }
            ]
          }
        ],
        "type": {
          "coding": [
            {
              "code": "11502-2",
              "system": "http://loinc.org",
              "display": "Laboratory report"
            }
          ],
          "text": "Laboratory Report"
        },
        "section": [
          {
            "code": {
              "coding": [
                {
                  "code": "26436-6",
                  "system": "http://loinc.org",
                  "display": "Laboratory studies (set)"
                }
              ],
              "text": "Laboratory studies"
            },
            "section": [
              {
                "code": {
                  "coding": [
                    {
                      "code": "$18719-5",
                      "system": "http://loinc.org",
                      "display": "Chemistry studies (set)"
                    }
                  ],
                  "text": "Chemistry"
                },
                "entry": [
                  {
                    "reference": "urn:uuid:3a2aff3f-f661-4350-bf80-4543025b0333"
                  },
                  {
                    "reference": "urn:uuid:8982647d-ebf8-4402-acae-46b88263f006"
                  },
                  {
                    "reference": "urn:uuid:2049d402-6b39-46d1-9b64-650e03fad405"
                  },
                  {
                    "reference": "urn:uuid:e7464b19-a9db-4207-b82c-40b88c324c6c"
                  },
                  {
                    "reference": "urn:uuid:a609c2c3-3b3d-4006-8f35-dfdfd7c89711"
                  },
                  {
                    "reference": "urn:uuid:5c8681f7-2d9a-4a2f-a90f-5c9b02d55c06"
                  },
                  {
                    "reference": "urn:uuid:4549cf06-44c4-4c88-8978-c0647f9d86ef"
                  },
                  {
                    "reference": "urn:uuid:e5b37eb9-6c00-40da-9cbd-da38d084d939"
                  },
                  {
                    "reference": "urn:uuid:48b7e0ac-e2c6-4908-8819-74db27bb1a85"
                  },
                  {
                    "reference": "urn:uuid:546b27fa-b92c-48d3-a20e-b454b5c15222"
                  }
                ],
                "text": {
                  "status": "generated",
                  "div": "<div xmlns=\"http://www.w3.org/1999/xhtml\"><h3>Chemistry</h3><table class=\"hl7__eu__lab__report\"><thead><tr><th>Test</th><th>23-DEC-2024</th><th>Reference&#xA0;Range</th><th>Unit</th></tr></thead><tbody><tr><td>Glucose [Mass/volume] in Serum or Plasma</td><td><strong>66.2 L</strong></td><td>70 - 99</td><td>mg/dL</td></tr><tr><td>Urea nitrogen [Mass/volume] in Serum or Plasma</td><td>7.3</td><td>7 - 50</td><td>mg/dL</td></tr><tr><td>Creatinine [Mass/volume] in Serum or Plasma</td><td><strong>2.1 H</strong></td><td>0.6 - 1.1</td><td>mg/dL</td></tr><tr><td>Calcium [Mass/volume] in Serum or Plasma</td><td>10.0</td><td>8.6 - 10.4</td><td>mg/dL</td></tr><tr><td>Sodium [Moles/volume] in Serum or Plasma</td><td>137.3</td><td>135 - 145</td><td>mmol/L</td></tr><tr><td>Potassium [Moles/volume] in Serum or Plasma</td><td>4.8</td><td>3.5 - 5.1</td><td>mmol/L</td></tr><tr><td>Chloride [Moles/volume] in Serum or Plasma</td><td>105.7</td><td>98 - 108</td><td>mmol/L</td></tr><tr><td>Carbon dioxide, total [Moles/volume] in Serum or Plasma</td><td>28.0</td><td>22 - 32</td><td>mmol/L</td></tr><tr><td>Ketones [Presence] in Urine by Test strip</td><td>Urine ketone test = ++</td><td></td><td></td></tr><tr><td>Hemoglobin A1c/Hemoglobin.total in Blood</td><td>4.0</td><td>4 - 6.4</td><td>%</td></tr></tbody></table></div>"
                },
                "title": "Chemistry"
              },
              {
                "code": {
                  "coding": [
                    {
                      "code": "$18729-4",
                      "system": "http://loinc.org",
                      "display": "Urinalysis studies (set)"
                    }
                  ],
                  "text": "Urinalysis"
                },
                "entry": [
                  {
                    "reference": "urn:uuid:8a4466a6-89b1-4420-9bc0-2e0d78192ecf"
                  },
                  {
                    "reference": "urn:uuid:9660b8e8-30f8-49ca-856a-e64cd879e119"
                  },
                  {
                    "reference": "urn:uuid:485afc4b-7d4e-4d01-bcb3-0b6417fca030"
                  },
                  {
                    "reference": "urn:uuid:1ef82d86-f0d1-4f0b-a298-44b0d822512e"
                  },
                  {
                    "reference": "urn:uuid:e1d0e8d6-5382-46eb-90bd-3637321c4303"
                  },
                  {
                    "reference": "urn:uuid:181d6192-ce61-4523-a724-f1f127822c09"
                  },
                  {
                    "reference": "urn:uuid:393d30d9-2373-4a98-a5bb-00a28e6d4bc4"
                  },
                  {
                    "reference": "urn:uuid:615e5463-1a57-4fae-997e-f6051fac1f04"
                  },
                  {
                    "reference": "urn:uuid:ecb997cf-a01b-43c4-9416-003ccfb77bd7"
                  },
                  {
                    "reference": "urn:uuid:a09827a4-9760-4d94-ba57-19dea835c632"
                  },
                  {
                    "reference": "urn:uuid:bee1714a-0e1a-4077-83b5-60fb8639085b"
                  },
                  {
                    "reference": "urn:uuid:76da46bf-b02f-445c-a409-68f029211c1f"
                  }
                ],
                "text": {
                  "status": "generated",
                  "div": "<div xmlns=\"http://www.w3.org/1999/xhtml\"><h3>Urinalysis</h3><table class=\"hl7__eu__lab__report\"><thead><tr><th>Test</th><th>23-DEC-2024</th><th>Reference&#xA0;Range</th><th>Unit</th></tr></thead><tbody><tr><td>Glucose [Mass/volume] in Urine by Test strip</td><td><strong>1.0 H</strong></td><td>0.8 - 0</td><td>mg/dL</td></tr><tr><td>Glucose [Presence] in Urine by Test strip</td><td>++</td><td></td><td></td></tr><tr><td>Bilirubin.total [Mass/volume] in Urine by Test strip</td><td>1.0</td><td>0 - 1</td><td>mg/dL</td></tr><tr><td>Bilirubin.total [Presence] in Urine by Test strip</td><td>Finding of bilirubin in urine</td><td></td><td></td></tr><tr><td>Ketones [Mass/volume] in Urine by Test strip</td><td><strong>18.2 H</strong></td><td>0 - 4</td><td>mg/dL</td></tr><tr><td>Specific gravity of Urine by Test strip</td><td><strong>1.0 L</strong></td><td>1.005 - 1.03</td><td>{nominal}</td></tr><tr><td>pH of Urine by Test strip</td><td>5.6</td><td>4.6 - 7</td><td>pH</td></tr><tr><td>Protein [Mass/volume] in Urine by Test strip</td><td><strong>393.4 H</strong></td><td>0 - 14</td><td>mg/dL</td></tr><tr><td>Protein [Presence] in Urine by Test strip</td><td>Urine protein test = ++</td><td></td><td></td></tr><tr><td>Nitrite [Presence] in Urine by Test strip</td><td>Urine nitrite negative</td><td></td><td></td></tr><tr><td>Hemoglobin [Presence] in Urine by Test strip</td><td>Urine blood test = negative</td><td></td><td></td></tr><tr><td>Leukocyte esterase [Presence] in Urine by Test strip</td><td>Urine leukocyte test negative</td><td></td><td></td></tr></tbody></table></div>"
                },
                "title": "Urinalysis"
              },
              {
                "code": {
                  "coding": [
                    {
                      "code": "$LP7846-1",
                      "system": "http://loinc.org",
                      "display": "Specimen information"
                    }
                  ],
                  "text": "Specimen information"
                },
                "entry": [
                  {
                    "reference": "urn:uuid:11d488a8-bda6-45c2-a2b9-16e71db31ca7"
                  },
                  {
                    "reference": "urn:uuid:8c12f918-6c1c-425a-bc1c-9216f765df51"
                  },
                  {
                    "reference": "urn:uuid:729b9d41-6ffd-4f33-921c-be1b8f714938"
                  },
                  {
                    "reference": "urn:uuid:1ecba444-0ec3-4f44-860a-9b4388e9ce1d"
                  }
                ],
                "text": {
                  "status": "generated",
                  "div": "<div xmlns=\"http://www.w3.org/1999/xhtml\"><h3>Specimen information</h3><table class=\"hl7__eu__lab__report\"><thead><tr><th>Test</th><th>23-DEC-2024</th><th>Specimen</th><th></th></tr></thead><tbody><tr><td>Appearance of Urine</td><td>Cloudy urine</td><td>Urine</td><td></td></tr><tr><td>Odor of Urine</td><td>Urine smell ammoniacal</td><td>Urine</td><td></td></tr><tr><td>Clarity of Urine</td><td>Translucent</td><td>Urine</td><td></td></tr><tr><td>Color of Urine</td><td>Brown color</td><td>Urine</td><td></td></tr></tbody></table></div>"
                },
                "title": "Specimen information"
              }
            ],
            "title": "Laboratory Report"
          },
          {
            "text": {
              "status": "generated",
              "div": "<div xmlns=\"http://www.w3.org/1999/xhtml\"><h3>Annotation</h3><table class=\"hl7__eu__lab__report\"><tr><th>Conclusion and Recommendations based on this report and previous findings known to us</th></tr><tr><td>The patient shows mild hypoglycemia, elevated creatinine suggesting impaired renal function, and significant proteinuria, glycosuria, and ketonuria, indicating possible nephropathy and metabolic derangement. Urine is brown, cloudy, and has low specific gravity, further supporting renal involvement. No evidence of urinary tract infection. HbA1c is low-normal, arguing against chronic hyperglycemia. Recommend urgent clinical evaluation for acute or chronic kidney disease and possible metabolic or prerenal causes.</td></tr></table></div>"
            },
            "code": {
              "coding": [
                {
                  "system": "http://loinc.org",
                  "code": "48767-8",
                  "display": "Annotation comment"
                }
              ]
            },
            "title": "Annotation comment"
          }
        ],
        "status": "final",
        "subject": {
          "reference": "urn:uuid:63eb32f1-4747-4859-900a-d819a49d0316",
          "display": "Meaghan Neary"
        },
        "date": "2024-12-23T23:11:04Z",
        "title": "Laboratory Report",
        "confidentiality": "N"
      }
    },
    {
      "fullUrl": "urn:uuid:81d027bf-5340-4749-8af9-ff7e8a39c356",
      "resource": {
        "resourceType": "DiagnosticReport",
        "id": "81d027bf-5340-4749-8af9-ff7e8a39c356",
        "meta": {
          "profile": [
            "http://hl7.eu/fhir/laboratory/StructureDefinition/DiagnosticReport-eu-lab"
          ]
        },
        "identifier": [
          {
            "assigner": {
              "display": "HL7 Europe"
            },
            "system": "urn:oid:2.16.840.1.113883.2.51.999",
            "value": "b5b002d4-c3f0-43b7-bfa8-941cf933cbc3"
          }
        ],
        "extension": [
          {
            "url": "http://hl7.org/fhir/5.0/StructureDefinition/extension-DiagnosticReport.composition",
            "valueReference": {
              "reference": "urn:uuid:82b7d76f-dcaf-486a-918f-343e2b78a80a"
            }
          }
        ],
        "category": [
          {
            "coding": [
              {
                "code": "26436-6",
                "system": "http://loinc.org",
                "display": "Laboratory studies (set)"
              }
            ]
          }
        ],
        "specimen": [
          {
            "reference": "urn:uuid:5208ffda-f5f8-4602-96fe-73978ea7a7e3"
          },
          {
            "reference": "urn:uuid:1ebfd2f4-be63-4777-b0d8-ff5f800679e1"
          },
          {
            "reference": "urn:uuid:7cdbc3f2-2547-4cda-b5a4-545010aa0e1c"
          }
        ],
        "result": [
          {
            "reference": "urn:uuid:3a2aff3f-f661-4350-bf80-4543025b0333"
          },
          {
            "reference": "urn:uuid:8982647d-ebf8-4402-acae-46b88263f006"
          },
          {
            "reference": "urn:uuid:2049d402-6b39-46d1-9b64-650e03fad405"
          },
          {
            "reference": "urn:uuid:e7464b19-a9db-4207-b82c-40b88c324c6c"
          },
          {
            "reference": "urn:uuid:a609c2c3-3b3d-4006-8f35-dfdfd7c89711"
          },
          {
            "reference": "urn:uuid:5c8681f7-2d9a-4a2f-a90f-5c9b02d55c06"
          },
          {
            "reference": "urn:uuid:4549cf06-44c4-4c88-8978-c0647f9d86ef"
          },
          {
            "reference": "urn:uuid:e5b37eb9-6c00-40da-9cbd-da38d084d939"
          },
          {
            "reference": "urn:uuid:11d488a8-bda6-45c2-a2b9-16e71db31ca7"
          },
          {
            "reference": "urn:uuid:8c12f918-6c1c-425a-bc1c-9216f765df51"
          },
          {
            "reference": "urn:uuid:729b9d41-6ffd-4f33-921c-be1b8f714938"
          },
          {
            "reference": "urn:uuid:1ecba444-0ec3-4f44-860a-9b4388e9ce1d"
          },
          {
            "reference": "urn:uuid:8a4466a6-89b1-4420-9bc0-2e0d78192ecf"
          },
          {
            "reference": "urn:uuid:9660b8e8-30f8-49ca-856a-e64cd879e119"
          },
          {
            "reference": "urn:uuid:485afc4b-7d4e-4d01-bcb3-0b6417fca030"
          },
          {
            "reference": "urn:uuid:1ef82d86-f0d1-4f0b-a298-44b0d822512e"
          },
          {
            "reference": "urn:uuid:e1d0e8d6-5382-46eb-90bd-3637321c4303"
          },
          {
            "reference": "urn:uuid:48b7e0ac-e2c6-4908-8819-74db27bb1a85"
          },
          {
            "reference": "urn:uuid:181d6192-ce61-4523-a724-f1f127822c09"
          },
          {
            "reference": "urn:uuid:393d30d9-2373-4a98-a5bb-00a28e6d4bc4"
          },
          {
            "reference": "urn:uuid:615e5463-1a57-4fae-997e-f6051fac1f04"
          },
          {
            "reference": "urn:uuid:ecb997cf-a01b-43c4-9416-003ccfb77bd7"
          },
          {
            "reference": "urn:uuid:a09827a4-9760-4d94-ba57-19dea835c632"
          },
          {
            "reference": "urn:uuid:bee1714a-0e1a-4077-83b5-60fb8639085b"
          },
          {
            "reference": "urn:uuid:76da46bf-b02f-445c-a409-68f029211c1f"
          },
          {
            "reference": "urn:uuid:546b27fa-b92c-48d3-a20e-b454b5c15222"
          }
        ],
        "status": "registered",
        "code": {
          "coding": [
            {
              "code": "11502-2",
              "system": "http://loinc.org",
              "display": "Laboratory report"
            }
          ]
        },
        "subject": {
          "reference": "urn:uuid:63eb32f1-4747-4859-900a-d819a49d0316",
          "display": "Meaghan Neary"
        }
      }
    },
    {
      "fullUrl": "urn:uuid:63eb32f1-4747-4859-900a-d819a49d0316",
      "resource": {
        "resourceType": "Patient",
        "id": "63eb32f1-4747-4859-900a-d819a49d0316",
        "meta": {
          "security": [
            {
              "system": "http://terminology.hl7.org/CodeSystem/v3-ActReason",
              "code": "HTEST"
            },
            {
              "system": "http://terminology.hl7.org/CodeSystem/v3-ActReason",
              "code": "TRAIN"
            }
          ],
          "tag": [
            {
              "system": "https://synderai.net/fhir/CodeSystem/tags",
              "code": "synthetic",
              "display": "SYNDERAI Synthetic data"
            }
          ],
          "profile": [
            "http://hl7.eu/fhir/base/StructureDefinition/patient-eu-core"
          ]
        },
        "identifier": [
          {
            "type": {
              "coding": [
                {
                  "code": "PT",
                  "system": "http://terminology.hl7.org/CodeSystem/v2-0203"
                }
              ]
            },
            "system": "http://ec.europa.eu/identifier/eci",
            "value": "1586-567257-8"
          },
          {
            "type": {
              "coding": [
                {
                  "code": "MR",
                  "system": "http://terminology.hl7.org/CodeSystem/v2-0203"
                }
              ]
            },
            "system": "http://local.setting.eu/identifier",
            "value": "443e6379-f231-b364-3ccb-644740a1aa2a"
          }
        ],
        "name": [
          {
            "family": "Neary"
          },
          {
            "given": [
              "Meaghan"
            ]
          },
          {
            "text": "Meaghan Neary"
          }
        ],
        "address": [
          {
            "line": [
              "64 Linskey Street"
            ],
            "use": "home",
            "type": "physical",
            "postalCode": "D02",
            "city": "Dublin",
            "country": "Ireland"
          }
        ],
        "telecom": [
          {
            "system": "phone",
            "value": "001-967-573-0911x465"
          }
        ],
        "extension": [
          {
            "url": "http://hl7.org/fhir/StructureDefinition/patient-nationality",
            "valueCodeableConcept": {
              "coding": [
                {
                  "code": "IE",
                  "system": "http://hl7.org/fhir/ValueSet/country"
                }
              ]
            }
          }
        ],
        "text": {
          "status": "generated",
          "div": "<div xmlns=\"http://www.w3.org/1999/xhtml\"><table class=\"hl7__ips\"><tr><td>Meaghan Neary</td><td>female</td><td>19-Dec-1960</td></tr></table></div>"
        },
        "gender": "female",
        "birthDate": "1960-12-19"
      }
    },
    {
      "fullUrl": "urn:uuid:2fa13d66-69f9-435e-b5f3-c05ee838f880",
      "resource": {
        "resourceType": "ServiceRequest",
        "id": "2fa13d66-69f9-435e-b5f3-c05ee838f880",
        "meta": {
          "profile": [
            "http://hl7.eu/fhir/laboratory/StructureDefinition/ServiceRequest-eu-lab"
          ]
        },
        "identifier": [
          {
            "system": "http://example.org",
            "value": "d0d4ea27-ef87-4778-9f7d-ef6ade11e795"
          }
        ],
        "specimen": [
          {
            "reference": "urn:uuid:5208ffda-f5f8-4602-96fe-73978ea7a7e3"
          },
          {
            "reference": "urn:uuid:1ebfd2f4-be63-4777-b0d8-ff5f800679e1"
          },
          {
            "reference": "urn:uuid:7cdbc3f2-2547-4cda-b5a4-545010aa0e1c"
          }
        ],
        "reasonCode": [
          {
            "coding": [
              {
                "code": "55822004",
                "system": "http://snomed.info/sct",
                "display": "Hyperlipidemia"
              }
            ]
          },
          {
            "coding": [
              {
                "code": "433144002",
                "system": "http://snomed.info/sct",
                "display": "Chronic kidney disease stage 3"
              }
            ]
          },
          {
            "coding": [
              {
                "code": "157141000119108",
                "system": "http://snomed.info/sct",
                "display": "Proteinuria due to type 2 diabetes mellitus"
              }
            ]
          },
          {
            "coding": [
              {
                "code": "431856006",
                "system": "http://snomed.info/sct",
                "display": "Chronic kidney disease stage 2"
              }
            ]
          },
          {
            "coding": [
              {
                "code": "90781000119102",
                "system": "http://snomed.info/sct",
                "display": "Microalbuminuria due to type 2 diabetes mellitus"
              }
            ]
          },
          {
            "coding": [
              {
                "code": "127013003",
                "system": "http://snomed.info/sct",
                "display": "Disorder of kidney due to diabetes mellitus"
              }
            ]
          },
          {
            "coding": [
              {
                "code": "431855005",
                "system": "http://snomed.info/sct",
                "display": "Chronic kidney disease stage 1"
              }
            ]
          },
          {
            "coding": [
              {
                "code": "237602007",
                "system": "http://snomed.info/sct",
                "display": "Metabolic syndrome X"
              }
            ]
          },
          {
            "coding": [
              {
                "code": "271737000",
                "system": "http://snomed.info/sct",
                "display": "Anemia"
              }
            ]
          },
          {
            "coding": [
              {
                "code": "15777000",
                "system": "http://snomed.info/sct",
                "display": "Prediabetes"
              }
            ]
          },
          {
            "coding": [
              {
                "code": "59621000",
                "system": "http://snomed.info/sct",
                "display": "Essential hypertension"
              }
            ]
          }
        ],
        "status": "active",
        "intent": "order",
        "code": {
          "coding": [
            {
              "code": "108252007",
              "system": "http://snomed.info/sct",
              "display": "Laboratory procedure"
            }
          ]
        },
        "subject": {
          "reference": "urn:uuid:63eb32f1-4747-4859-900a-d819a49d0316",
          "display": "Meaghan Neary"
        },
        "requester": {
          "reference": "urn:uuid:0e46614c-39b9-4077-868b-62fdf1d0d800"
        }
      }
    },
    {
      "fullUrl": "urn:uuid:0e46614c-39b9-4077-868b-62fdf1d0d800",
      "resource": {
        "resourceType": "PractitionerRole",
        "id": "0e46614c-39b9-4077-868b-62fdf1d0d800",
        "meta": {
          "profile": [
            "http://hl7.eu/fhir/base/StructureDefinition/practitionerRole-eu"
          ]
        },
        "text": {
          "status": "generated",
          "div": "<div xmlns=\"http://www.w3.org/1999/xhtml\">Provider Role Id: 0e46614c-39b9-4077-868b-62fdf1d0d800</div>"
        },
        "organization": {
          "reference": "urn:uuid:d7cc1260-1ee7-44ae-994b-609c74342654"
        }
      }
    },
    {
      "fullUrl": "urn:uuid:d7cc1260-1ee7-44ae-994b-609c74342654",
      "resource": {
        "resourceType": "Organization",
        "id": "d7cc1260-1ee7-44ae-994b-609c74342654",
        "meta": {
          "profile": [
            "http://hl7.eu/fhir/base/StructureDefinition/organization-eu"
          ]
        },
        "identifier": [
          {
            "assigner": {
              "display": "HL7 Europe"
            },
            "system": "urn:oid:2.16.840.1.113883.2.51.999",
            "value": "d7b6b1d9-015a-4229-ba9e-d91508138120"
          }
        ],
        "address": [
          {
            "line": [
              "Parnell Square West nan"
            ],
            "city": "Dublin",
            "postalCode": "D01",
            "country": "Ireland"
          }
        ],
        "text": {
          "status": "generated",
          "div": "<div xmlns=\"http://www.w3.org/1999/xhtml\">Provider Organization: Rotunda Hospital</div>"
        },
        "name": "Rotunda Hospital"
      }
    },
    {
      "fullUrl": "urn:uuid:5208ffda-f5f8-4602-96fe-73978ea7a7e3",
      "resource": {
        "resourceType": "Specimen",
        "id": "5208ffda-f5f8-4602-96fe-73978ea7a7e3",
        "meta": {
          "profile": [
            "http://hl7.eu/fhir/laboratory/StructureDefinition/Specimen-eu-lab"
          ]
        },
        "collection": {
          "collectedDateTime": "2024-12-23"
        },
        "text": {
          "status": "generated",
          "div": "<div xmlns=\"http://www.w3.org/1999/xhtml\"><table class=\"hl7__eu__lab__report\"><tr><th>Specimen</th><th>Collection Date</th></tr><tr><td>Acellular blood (serum or plasma) specimen</td><td><span class=\"nb\">23-Dec-2024</span></td></tr></table></div>"
        },
        "type": {
          "coding": [
            {
              "code": "122592007",
              "system": "http://snomed.info/sct",
              "display": "Acellular blood (serum or plasma) specimen"
            }
          ]
        }
      }
    },
    {
      "fullUrl": "urn:uuid:1ebfd2f4-be63-4777-b0d8-ff5f800679e1",
      "resource": {
        "resourceType": "Specimen",
        "id": "1ebfd2f4-be63-4777-b0d8-ff5f800679e1",
        "meta": {
          "profile": [
            "http://hl7.eu/fhir/laboratory/StructureDefinition/Specimen-eu-lab"
          ]
        },
        "collection": {
          "collectedDateTime": "2024-12-23"
        },
        "text": {
          "status": "generated",
          "div": "<div xmlns=\"http://www.w3.org/1999/xhtml\"><table class=\"hl7__eu__lab__report\"><tr><th>Specimen</th><th>Collection Date</th></tr><tr><td>Urine specimen</td><td><span class=\"nb\">23-Dec-2024</span></td></tr></table></div>"
        },
        "type": {
          "coding": [
            {
              "code": "122575003",
              "system": "http://snomed.info/sct",
              "display": "Urine specimen"
            }
          ]
        }
      }
    },
    {
      "fullUrl": "urn:uuid:7cdbc3f2-2547-4cda-b5a4-545010aa0e1c",
      "resource": {
        "resourceType": "Specimen",
        "id": "7cdbc3f2-2547-4cda-b5a4-545010aa0e1c",
        "meta": {
          "profile": [
            "http://hl7.eu/fhir/laboratory/StructureDefinition/Specimen-eu-lab"
          ]
        },
        "collection": {
          "collectedDateTime": "2024-12-23"
        },
        "text": {
          "status": "generated",
          "div": "<div xmlns=\"http://www.w3.org/1999/xhtml\"><table class=\"hl7__eu__lab__report\"><tr><th>Specimen</th><th>Collection Date</th></tr><tr><td>Whole blood specimen (specimen)</td><td><span class=\"nb\">23-Dec-2024</span></td></tr></table></div>"
        },
        "type": {
          "coding": [
            {
              "code": "258580003",
              "system": "http://snomed.info/sct",
              "display": "Whole blood specimen (specimen)"
            }
          ]
        }
      }
    },
    {
      "fullUrl": "urn:uuid:3a2aff3f-f661-4350-bf80-4543025b0333",
      "resource": {
        "resourceType": "Observation",
        "id": "3a2aff3f-f661-4350-bf80-4543025b0333",
        "meta": {
          "profile": [
            "http://hl7.eu/fhir/laboratory/StructureDefinition/Observation-resultslab-eu-lab"
          ]
        },
        "performer": [
          {
            "display": "The Central European Lab"
          }
        ],
        "category": [
          {
            "coding": [
              {
                "system": "http://terminology.hl7.org/CodeSystem/observation-category",
                "code": "laboratory"
              }
            ]
          }
        ],
        "code": {
          "coding": [
            {
              "code": "2345-7",
              "system": "http://loinc.org",
              "display": "Glucose [Mass/volume] in Serum or Plasma"
            }
          ],
          "text": "Glucose [Mass/volume] in Serum or Plasma"
        },
        "valueQuantity": {
          "system": "http://unitsofmeasure.org",
          "value": 66.2,
          "unit": "mg/dL",
          "code": "mg/dL"
        },
        "referenceRange": [
          {
            "low": {
              "value": 70,
              "code": "mg/dL",
              "system": "http://unitsofmeasure.org"
            }
          },
          {
            "high": {
              "value": 99,
              "code": "mg/dL",
              "system": "http://unitsofmeasure.org"
            }
          }
        ],
        "interpretation": [
          {
            "coding": [
              {
                "code": "L",
                "system": "http://terminology.hl7.org/CodeSystem/v3-ObservationInterpretation",
                "display": "Low"
              }
            ]
          }
        ],
        "text": {
          "status": "generated",
          "div": "<div xmlns=\"http://www.w3.org/1999/xhtml\"><table class=\"hl7__eu__lab__report\"><tr><th>Test</th><th>23-Dec-2024</th><th>Reference&#xA0;Range</th><th>Unit</th></tr><tr><td>Glucose [Mass/volume] in Serum or Plasma</td><td>66.2</td><td>70 - 99</td><td>L</td><td>mg/dL</td></tr></table></div>"
        },
        "status": "final",
        "subject": {
          "reference": "urn:uuid:63eb32f1-4747-4859-900a-d819a49d0316",
          "display": "Meaghan Neary"
        },
        "effectiveDateTime": "2024-12-23T22:11:04Z",
        "specimen": {
          "reference": "urn:uuid:5208ffda-f5f8-4602-96fe-73978ea7a7e3"
        }
      }
    },
    {
      "fullUrl": "urn:uuid:8982647d-ebf8-4402-acae-46b88263f006",
      "resource": {
        "resourceType": "Observation",
        "id": "8982647d-ebf8-4402-acae-46b88263f006",
        "meta": {
          "profile": [
            "http://hl7.eu/fhir/laboratory/StructureDefinition/Observation-resultslab-eu-lab"
          ]
        },
        "performer": [
          {
            "display": "The Central European Lab"
          }
        ],
        "category": [
          {
            "coding": [
              {
                "system": "http://terminology.hl7.org/CodeSystem/observation-category",
                "code": "laboratory"
              }
            ]
          }
        ],
        "code": {
          "coding": [
            {
              "code": "3094-0",
              "system": "http://loinc.org",
              "display": "Urea nitrogen [Mass/volume] in Serum or Plasma"
            }
          ],
          "text": "Urea nitrogen [Mass/volume] in Serum or Plasma"
        },
        "valueQuantity": {
          "system": "http://unitsofmeasure.org",
          "value": 7.3,
          "unit": "mg/dL",
          "code": "mg/dL"
        },
        "referenceRange": [
          {
            "low": {
              "value": 7,
              "code": "mg/dL",
              "system": "http://unitsofmeasure.org"
            }
          },
          {
            "high": {
              "value": 50,
              "code": "mg/dL",
              "system": "http://unitsofmeasure.org"
            }
          }
        ],
        "text": {
          "status": "generated",
          "div": "<div xmlns=\"http://www.w3.org/1999/xhtml\"><table class=\"hl7__eu__lab__report\"><tr><th>Test</th><th>23-Dec-2024</th><th>Reference&#xA0;Range</th><th>Unit</th></tr><tr><td>Urea nitrogen [Mass/volume] in Serum or Plasma</td><td>7.3</td><td>7 - 50</td><td></td><td>mg/dL</td></tr></table></div>"
        },
        "status": "final",
        "subject": {
          "reference": "urn:uuid:63eb32f1-4747-4859-900a-d819a49d0316",
          "display": "Meaghan Neary"
        },
        "effectiveDateTime": "2024-12-23T22:11:04Z",
        "specimen": {
          "reference": "urn:uuid:5208ffda-f5f8-4602-96fe-73978ea7a7e3"
        }
      }
    },
    {
      "fullUrl": "urn:uuid:2049d402-6b39-46d1-9b64-650e03fad405",
      "resource": {
        "resourceType": "Observation",
        "id": "2049d402-6b39-46d1-9b64-650e03fad405",
        "meta": {
          "profile": [
            "http://hl7.eu/fhir/laboratory/StructureDefinition/Observation-resultslab-eu-lab"
          ]
        },
        "performer": [
          {
            "display": "The Central European Lab"
          }
        ],
        "category": [
          {
            "coding": [
              {
                "system": "http://terminology.hl7.org/CodeSystem/observation-category",
                "code": "laboratory"
              }
            ]
          }
        ],
        "code": {
          "coding": [
            {
              "code": "2160-0",
              "system": "http://loinc.org",
              "display": "Creatinine [Mass/volume] in Serum or Plasma"
            }
          ],
          "text": "Creatinine [Mass/volume] in Serum or Plasma"
        },
        "valueQuantity": {
          "system": "http://unitsofmeasure.org",
          "value": 2.1,
          "unit": "mg/dL",
          "code": "mg/dL"
        },
        "referenceRange": [
          {
            "low": {
              "value": 0.6,
              "code": "mg/dL",
              "system": "http://unitsofmeasure.org"
            }
          },
          {
            "high": {
              "value": 1.1,
              "code": "mg/dL",
              "system": "http://unitsofmeasure.org"
            }
          }
        ],
        "interpretation": [
          {
            "coding": [
              {
                "code": "H",
                "system": "http://terminology.hl7.org/CodeSystem/v3-ObservationInterpretation",
                "display": "High"
              }
            ]
          }
        ],
        "text": {
          "status": "generated",
          "div": "<div xmlns=\"http://www.w3.org/1999/xhtml\"><table class=\"hl7__eu__lab__report\"><tr><th>Test</th><th>23-Dec-2024</th><th>Reference&#xA0;Range</th><th>Unit</th></tr><tr><td>Creatinine [Mass/volume] in Serum or Plasma</td><td>2.1</td><td>0.6 - 1.1</td><td>H</td><td>mg/dL</td></tr></table></div>"
        },
        "status": "final",
        "subject": {
          "reference": "urn:uuid:63eb32f1-4747-4859-900a-d819a49d0316",
          "display": "Meaghan Neary"
        },
        "effectiveDateTime": "2024-12-23T22:11:04Z",
        "specimen": {
          "reference": "urn:uuid:5208ffda-f5f8-4602-96fe-73978ea7a7e3"
        }
      }
    },
    {
      "fullUrl": "urn:uuid:e7464b19-a9db-4207-b82c-40b88c324c6c",
      "resource": {
        "resourceType": "Observation",
        "id": "e7464b19-a9db-4207-b82c-40b88c324c6c",
        "meta": {
          "profile": [
            "http://hl7.eu/fhir/laboratory/StructureDefinition/Observation-resultslab-eu-lab"
          ]
        },
        "performer": [
          {
            "display": "The Central European Lab"
          }
        ],
        "category": [
          {
            "coding": [
              {
                "system": "http://terminology.hl7.org/CodeSystem/observation-category",
                "code": "laboratory"
              }
            ]
          }
        ],
        "code": {
          "coding": [
            {
              "code": "17861-6",
              "system": "http://loinc.org",
              "display": "Calcium [Mass/volume] in Serum or Plasma"
            }
          ],
          "text": "Calcium [Mass/volume] in Serum or Plasma"
        },
        "valueQuantity": {
          "system": "http://unitsofmeasure.org",
          "value": 10,
          "unit": "mg/dL",
          "code": "mg/dL"
        },
        "referenceRange": [
          {
            "low": {
              "value": 8.6,
              "code": "mg/dL",
              "system": "http://unitsofmeasure.org"
            }
          },
          {
            "high": {
              "value": 10.4,
              "code": "mg/dL",
              "system": "http://unitsofmeasure.org"
            }
          }
        ],
        "text": {
          "status": "generated",
          "div": "<div xmlns=\"http://www.w3.org/1999/xhtml\"><table class=\"hl7__eu__lab__report\"><tr><th>Test</th><th>23-Dec-2024</th><th>Reference&#xA0;Range</th><th>Unit</th></tr><tr><td>Calcium [Mass/volume] in Serum or Plasma</td><td>10.0</td><td>8.6 - 10.4</td><td></td><td>mg/dL</td></tr></table></div>"
        },
        "status": "final",
        "subject": {
          "reference": "urn:uuid:63eb32f1-4747-4859-900a-d819a49d0316",
          "display": "Meaghan Neary"
        },
        "effectiveDateTime": "2024-12-23T22:11:04Z",
        "specimen": {
          "reference": "urn:uuid:5208ffda-f5f8-4602-96fe-73978ea7a7e3"
        }
      }
    },
    {
      "fullUrl": "urn:uuid:a609c2c3-3b3d-4006-8f35-dfdfd7c89711",
      "resource": {
        "resourceType": "Observation",
        "id": "a609c2c3-3b3d-4006-8f35-dfdfd7c89711",
        "meta": {
          "profile": [
            "http://hl7.eu/fhir/laboratory/StructureDefinition/Observation-resultslab-eu-lab"
          ]
        },
        "performer": [
          {
            "display": "The Central European Lab"
          }
        ],
        "category": [
          {
            "coding": [
              {
                "system": "http://terminology.hl7.org/CodeSystem/observation-category",
                "code": "laboratory"
              }
            ]
          }
        ],
        "code": {
          "coding": [
            {
              "code": "2951-2",
              "system": "http://loinc.org",
              "display": "Sodium [Moles/volume] in Serum or Plasma"
            }
          ],
          "text": "Sodium [Moles/volume] in Serum or Plasma"
        },
        "valueQuantity": {
          "system": "http://unitsofmeasure.org",
          "value": 137.3,
          "unit": "mmol/L",
          "code": "mmol/L"
        },
        "referenceRange": [
          {
            "low": {
              "value": 135,
              "code": "mmol/L",
              "system": "http://unitsofmeasure.org"
            }
          },
          {
            "high": {
              "value": 145,
              "code": "mmol/L",
              "system": "http://unitsofmeasure.org"
            }
          }
        ],
        "text": {
          "status": "generated",
          "div": "<div xmlns=\"http://www.w3.org/1999/xhtml\"><table class=\"hl7__eu__lab__report\"><tr><th>Test</th><th>23-Dec-2024</th><th>Reference&#xA0;Range</th><th>Unit</th></tr><tr><td>Sodium [Moles/volume] in Serum or Plasma</td><td>137.3</td><td>135 - 145</td><td></td><td>mmol/L</td></tr></table></div>"
        },
        "status": "final",
        "subject": {
          "reference": "urn:uuid:63eb32f1-4747-4859-900a-d819a49d0316",
          "display": "Meaghan Neary"
        },
        "effectiveDateTime": "2024-12-23T22:11:04Z",
        "specimen": {
          "reference": "urn:uuid:5208ffda-f5f8-4602-96fe-73978ea7a7e3"
        }
      }
    },
    {
      "fullUrl": "urn:uuid:5c8681f7-2d9a-4a2f-a90f-5c9b02d55c06",
      "resource": {
        "resourceType": "Observation",
        "id": "5c8681f7-2d9a-4a2f-a90f-5c9b02d55c06",
        "meta": {
          "profile": [
            "http://hl7.eu/fhir/laboratory/StructureDefinition/Observation-resultslab-eu-lab"
          ]
        },
        "performer": [
          {
            "display": "The Central European Lab"
          }
        ],
        "category": [
          {
            "coding": [
              {
                "system": "http://terminology.hl7.org/CodeSystem/observation-category",
                "code": "laboratory"
              }
            ]
          }
        ],
        "code": {
          "coding": [
            {
              "code": "2823-3",
              "system": "http://loinc.org",
              "display": "Potassium [Moles/volume] in Serum or Plasma"
            }
          ],
          "text": "Potassium [Moles/volume] in Serum or Plasma"
        },
        "valueQuantity": {
          "system": "http://unitsofmeasure.org",
          "value": 4.8,
          "unit": "mmol/L",
          "code": "mmol/L"
        },
        "referenceRange": [
          {
            "low": {
              "value": 3.5,
              "code": "mmol/L",
              "system": "http://unitsofmeasure.org"
            }
          },
          {
            "high": {
              "value": 5.1,
              "code": "mmol/L",
              "system": "http://unitsofmeasure.org"
            }
          }
        ],
        "text": {
          "status": "generated",
          "div": "<div xmlns=\"http://www.w3.org/1999/xhtml\"><table class=\"hl7__eu__lab__report\"><tr><th>Test</th><th>23-Dec-2024</th><th>Reference&#xA0;Range</th><th>Unit</th></tr><tr><td>Potassium [Moles/volume] in Serum or Plasma</td><td>4.8</td><td>3.5 - 5.1</td><td></td><td>mmol/L</td></tr></table></div>"
        },
        "status": "final",
        "subject": {
          "reference": "urn:uuid:63eb32f1-4747-4859-900a-d819a49d0316",
          "display": "Meaghan Neary"
        },
        "effectiveDateTime": "2024-12-23T22:11:04Z",
        "specimen": {
          "reference": "urn:uuid:5208ffda-f5f8-4602-96fe-73978ea7a7e3"
        }
      }
    },
    {
      "fullUrl": "urn:uuid:4549cf06-44c4-4c88-8978-c0647f9d86ef",
      "resource": {
        "resourceType": "Observation",
        "id": "4549cf06-44c4-4c88-8978-c0647f9d86ef",
        "meta": {
          "profile": [
            "http://hl7.eu/fhir/laboratory/StructureDefinition/Observation-resultslab-eu-lab"
          ]
        },
        "performer": [
          {
            "display": "The Central European Lab"
          }
        ],
        "category": [
          {
            "coding": [
              {
                "system": "http://terminology.hl7.org/CodeSystem/observation-category",
                "code": "laboratory"
              }
            ]
          }
        ],
        "code": {
          "coding": [
            {
              "code": "2075-0",
              "system": "http://loinc.org",
              "display": "Chloride [Moles/volume] in Serum or Plasma"
            }
          ],
          "text": "Chloride [Moles/volume] in Serum or Plasma"
        },
        "valueQuantity": {
          "system": "http://unitsofmeasure.org",
          "value": 105.7,
          "unit": "mmol/L",
          "code": "mmol/L"
        },
        "referenceRange": [
          {
            "low": {
              "value": 98,
              "code": "mmol/L",
              "system": "http://unitsofmeasure.org"
            }
          },
          {
            "high": {
              "value": 108,
              "code": "mmol/L",
              "system": "http://unitsofmeasure.org"
            }
          }
        ],
        "text": {
          "status": "generated",
          "div": "<div xmlns=\"http://www.w3.org/1999/xhtml\"><table class=\"hl7__eu__lab__report\"><tr><th>Test</th><th>23-Dec-2024</th><th>Reference&#xA0;Range</th><th>Unit</th></tr><tr><td>Chloride [Moles/volume] in Serum or Plasma</td><td>105.7</td><td>98 - 108</td><td></td><td>mmol/L</td></tr></table></div>"
        },
        "status": "final",
        "subject": {
          "reference": "urn:uuid:63eb32f1-4747-4859-900a-d819a49d0316",
          "display": "Meaghan Neary"
        },
        "effectiveDateTime": "2024-12-23T22:11:04Z",
        "specimen": {
          "reference": "urn:uuid:5208ffda-f5f8-4602-96fe-73978ea7a7e3"
        }
      }
    },
    {
      "fullUrl": "urn:uuid:e5b37eb9-6c00-40da-9cbd-da38d084d939",
      "resource": {
        "resourceType": "Observation",
        "id": "e5b37eb9-6c00-40da-9cbd-da38d084d939",
        "meta": {
          "profile": [
            "http://hl7.eu/fhir/laboratory/StructureDefinition/Observation-resultslab-eu-lab"
          ]
        },
        "performer": [
          {
            "display": "The Central European Lab"
          }
        ],
        "category": [
          {
            "coding": [
              {
                "system": "http://terminology.hl7.org/CodeSystem/observation-category",
                "code": "laboratory"
              }
            ]
          }
        ],
        "code": {
          "coding": [
            {
              "code": "2028-9",
              "system": "http://loinc.org",
              "display": "Carbon dioxide, total [Moles/volume] in Serum or Plasma"
            }
          ],
          "text": "Carbon dioxide, total [Moles/volume] in Serum or Plasma"
        },
        "valueQuantity": {
          "system": "http://unitsofmeasure.org",
          "value": 28,
          "unit": "mmol/L",
          "code": "mmol/L"
        },
        "referenceRange": [
          {
            "low": {
              "value": 22,
              "code": "mmol/L",
              "system": "http://unitsofmeasure.org"
            }
          },
          {
            "high": {
              "value": 32,
              "code": "mmol/L",
              "system": "http://unitsofmeasure.org"
            }
          }
        ],
        "text": {
          "status": "generated",
          "div": "<div xmlns=\"http://www.w3.org/1999/xhtml\"><table class=\"hl7__eu__lab__report\"><tr><th>Test</th><th>23-Dec-2024</th><th>Reference&#xA0;Range</th><th>Unit</th></tr><tr><td>Carbon dioxide, total [Moles/volume] in Serum or Plasma</td><td>28.0</td><td>22 - 32</td><td></td><td>mmol/L</td></tr></table></div>"
        },
        "status": "final",
        "subject": {
          "reference": "urn:uuid:63eb32f1-4747-4859-900a-d819a49d0316",
          "display": "Meaghan Neary"
        },
        "effectiveDateTime": "2024-12-23T22:11:04Z",
        "specimen": {
          "reference": "urn:uuid:5208ffda-f5f8-4602-96fe-73978ea7a7e3"
        }
      }
    },
    {
      "fullUrl": "urn:uuid:11d488a8-bda6-45c2-a2b9-16e71db31ca7",
      "resource": {
        "resourceType": "Observation",
        "id": "11d488a8-bda6-45c2-a2b9-16e71db31ca7",
        "meta": {
          "profile": [
            "http://hl7.eu/fhir/laboratory/StructureDefinition/Observation-resultslab-eu-lab"
          ]
        },
        "performer": [
          {
            "display": "The Central European Lab"
          }
        ],
        "category": [
          {
            "coding": [
              {
                "system": "http://terminology.hl7.org/CodeSystem/observation-category",
                "code": "laboratory"
              }
            ]
          }
        ],
        "code": {
          "coding": [
            {
              "code": "5767-9",
              "system": "http://loinc.org",
              "display": "Appearance of Urine"
            }
          ],
          "text": "Appearance of Urine"
        },
        "text": {
          "status": "generated",
          "div": "<div xmlns=\"http://www.w3.org/1999/xhtml\"><table class=\"hl7__eu__lab__report\"><tr><th>Test</th><th>23-Dec-2024</th><th>Reference&#xA0;Range</th><th>Unit</th></tr><tr><td>Appearance of Urine</td></tr></table></div>"
        },
        "status": "final",
        "subject": {
          "reference": "urn:uuid:63eb32f1-4747-4859-900a-d819a49d0316",
          "display": "Meaghan Neary"
        },
        "effectiveDateTime": "2024-12-23T22:11:04Z",
        "specimen": {
          "reference": "urn:uuid:1ebfd2f4-be63-4777-b0d8-ff5f800679e1"
        }
      }
    },
    {
      "fullUrl": "urn:uuid:8c12f918-6c1c-425a-bc1c-9216f765df51",
      "resource": {
        "resourceType": "Observation",
        "id": "8c12f918-6c1c-425a-bc1c-9216f765df51",
        "meta": {
          "profile": [
            "http://hl7.eu/fhir/laboratory/StructureDefinition/Observation-resultslab-eu-lab"
          ]
        },
        "performer": [
          {
            "display": "The Central European Lab"
          }
        ],
        "category": [
          {
            "coding": [
              {
                "system": "http://terminology.hl7.org/CodeSystem/observation-category",
                "code": "laboratory"
              }
            ]
          }
        ],
        "code": {
          "coding": [
            {
              "code": "34533-0",
              "system": "http://loinc.org",
              "display": "Odor of Urine"
            }
          ],
          "text": "Odor of Urine"
        },
        "text": {
          "status": "generated",
          "div": "<div xmlns=\"http://www.w3.org/1999/xhtml\"><table class=\"hl7__eu__lab__report\"><tr><th>Test</th><th>23-Dec-2024</th><th>Reference&#xA0;Range</th><th>Unit</th></tr><tr><td>Odor of Urine</td></tr></table></div>"
        },
        "status": "final",
        "subject": {
          "reference": "urn:uuid:63eb32f1-4747-4859-900a-d819a49d0316",
          "display": "Meaghan Neary"
        },
        "effectiveDateTime": "2024-12-23T22:11:04Z",
        "specimen": {
          "reference": "urn:uuid:1ebfd2f4-be63-4777-b0d8-ff5f800679e1"
        }
      }
    },
    {
      "fullUrl": "urn:uuid:729b9d41-6ffd-4f33-921c-be1b8f714938",
      "resource": {
        "resourceType": "Observation",
        "id": "729b9d41-6ffd-4f33-921c-be1b8f714938",
        "meta": {
          "profile": [
            "http://hl7.eu/fhir/laboratory/StructureDefinition/Observation-resultslab-eu-lab"
          ]
        },
        "performer": [
          {
            "display": "The Central European Lab"
          }
        ],
        "category": [
          {
            "coding": [
              {
                "system": "http://terminology.hl7.org/CodeSystem/observation-category",
                "code": "laboratory"
              }
            ]
          }
        ],
        "code": {
          "coding": [
            {
              "code": "32167-9",
              "system": "http://loinc.org",
              "display": "Clarity of Urine"
            }
          ],
          "text": "Clarity of Urine"
        },
        "text": {
          "status": "generated",
          "div": "<div xmlns=\"http://www.w3.org/1999/xhtml\"><table class=\"hl7__eu__lab__report\"><tr><th>Test</th><th>23-Dec-2024</th><th>Reference&#xA0;Range</th><th>Unit</th></tr><tr><td>Clarity of Urine</td></tr></table></div>"
        },
        "status": "final",
        "subject": {
          "reference": "urn:uuid:63eb32f1-4747-4859-900a-d819a49d0316",
          "display": "Meaghan Neary"
        },
        "effectiveDateTime": "2024-12-23T22:11:04Z",
        "specimen": {
          "reference": "urn:uuid:1ebfd2f4-be63-4777-b0d8-ff5f800679e1"
        }
      }
    },
    {
      "fullUrl": "urn:uuid:1ecba444-0ec3-4f44-860a-9b4388e9ce1d",
      "resource": {
        "resourceType": "Observation",
        "id": "1ecba444-0ec3-4f44-860a-9b4388e9ce1d",
        "meta": {
          "profile": [
            "http://hl7.eu/fhir/laboratory/StructureDefinition/Observation-resultslab-eu-lab"
          ]
        },
        "performer": [
          {
            "display": "The Central European Lab"
          }
        ],
        "category": [
          {
            "coding": [
              {
                "system": "http://terminology.hl7.org/CodeSystem/observation-category",
                "code": "laboratory"
              }
            ]
          }
        ],
        "code": {
          "coding": [
            {
              "code": "5778-6",
              "system": "http://loinc.org",
              "display": "Color of Urine"
            }
          ],
          "text": "Color of Urine"
        },
        "text": {
          "status": "generated",
          "div": "<div xmlns=\"http://www.w3.org/1999/xhtml\"><table class=\"hl7__eu__lab__report\"><tr><th>Test</th><th>23-Dec-2024</th><th>Reference&#xA0;Range</th><th>Unit</th></tr><tr><td>Color of Urine</td></tr></table></div>"
        },
        "status": "final",
        "subject": {
          "reference": "urn:uuid:63eb32f1-4747-4859-900a-d819a49d0316",
          "display": "Meaghan Neary"
        },
        "effectiveDateTime": "2024-12-23T22:11:04Z",
        "specimen": {
          "reference": "urn:uuid:1ebfd2f4-be63-4777-b0d8-ff5f800679e1"
        }
      }
    },
    {
      "fullUrl": "urn:uuid:8a4466a6-89b1-4420-9bc0-2e0d78192ecf",
      "resource": {
        "resourceType": "Observation",
        "id": "8a4466a6-89b1-4420-9bc0-2e0d78192ecf",
        "meta": {
          "profile": [
            "http://hl7.eu/fhir/laboratory/StructureDefinition/Observation-resultslab-eu-lab"
          ]
        },
        "performer": [
          {
            "display": "The Central European Lab"
          }
        ],
        "category": [
          {
            "coding": [
              {
                "system": "http://terminology.hl7.org/CodeSystem/observation-category",
                "code": "laboratory"
              }
            ]
          }
        ],
        "code": {
          "coding": [
            {
              "code": "5792-7",
              "system": "http://loinc.org",
              "display": "Glucose [Mass/volume] in Urine by Test strip"
            }
          ],
          "text": "Glucose [Mass/volume] in Urine by Test strip"
        },
        "valueQuantity": {
          "system": "http://unitsofmeasure.org",
          "value": 1,
          "unit": "mg/dL",
          "code": "mg/dL"
        },
        "referenceRange": [
          {
            "low": {
              "value": 0.8,
              "code": "mg/dL",
              "system": "http://unitsofmeasure.org"
            }
          },
          {
            "high": {
              "value": 0,
              "code": "mg/dL",
              "system": "http://unitsofmeasure.org"
            }
          }
        ],
        "interpretation": [
          {
            "coding": [
              {
                "code": "H",
                "system": "http://terminology.hl7.org/CodeSystem/v3-ObservationInterpretation",
                "display": "High"
              }
            ]
          }
        ],
        "text": {
          "status": "generated",
          "div": "<div xmlns=\"http://www.w3.org/1999/xhtml\"><table class=\"hl7__eu__lab__report\"><tr><th>Test</th><th>23-Dec-2024</th><th>Reference&#xA0;Range</th><th>Unit</th></tr><tr><td>Glucose [Mass/volume] in Urine by Test strip</td><td>1.0</td><td>0.8 - 0</td><td>H</td><td>mg/dL</td></tr></table></div>"
        },
        "status": "final",
        "subject": {
          "reference": "urn:uuid:63eb32f1-4747-4859-900a-d819a49d0316",
          "display": "Meaghan Neary"
        },
        "effectiveDateTime": "2024-12-23T22:11:04Z",
        "specimen": {
          "reference": "urn:uuid:1ebfd2f4-be63-4777-b0d8-ff5f800679e1"
        }
      }
    },
    {
      "fullUrl": "urn:uuid:9660b8e8-30f8-49ca-856a-e64cd879e119",
      "resource": {
        "resourceType": "Observation",
        "id": "9660b8e8-30f8-49ca-856a-e64cd879e119",
        "meta": {
          "profile": [
            "http://hl7.eu/fhir/laboratory/StructureDefinition/Observation-resultslab-eu-lab"
          ]
        },
        "performer": [
          {
            "display": "The Central European Lab"
          }
        ],
        "category": [
          {
            "coding": [
              {
                "system": "http://terminology.hl7.org/CodeSystem/observation-category",
                "code": "laboratory"
              }
            ]
          }
        ],
        "code": {
          "coding": [
            {
              "code": "25428-4",
              "system": "http://loinc.org",
              "display": "Glucose [Presence] in Urine by Test strip"
            }
          ],
          "text": "Glucose [Presence] in Urine by Test strip"
        },
        "text": {
          "status": "generated",
          "div": "<div xmlns=\"http://www.w3.org/1999/xhtml\"><table class=\"hl7__eu__lab__report\"><tr><th>Test</th><th>23-Dec-2024</th><th>Reference&#xA0;Range</th><th>Unit</th></tr><tr><td>Glucose [Presence] in Urine by Test strip</td></tr></table></div>"
        },
        "status": "final",
        "subject": {
          "reference": "urn:uuid:63eb32f1-4747-4859-900a-d819a49d0316",
          "display": "Meaghan Neary"
        },
        "effectiveDateTime": "2024-12-23T22:11:04Z",
        "specimen": {
          "reference": "urn:uuid:1ebfd2f4-be63-4777-b0d8-ff5f800679e1"
        }
      }
    },
    {
      "fullUrl": "urn:uuid:485afc4b-7d4e-4d01-bcb3-0b6417fca030",
      "resource": {
        "resourceType": "Observation",
        "id": "485afc4b-7d4e-4d01-bcb3-0b6417fca030",
        "meta": {
          "profile": [
            "http://hl7.eu/fhir/laboratory/StructureDefinition/Observation-resultslab-eu-lab"
          ]
        },
        "performer": [
          {
            "display": "The Central European Lab"
          }
        ],
        "category": [
          {
            "coding": [
              {
                "system": "http://terminology.hl7.org/CodeSystem/observation-category",
                "code": "laboratory"
              }
            ]
          }
        ],
        "code": {
          "coding": [
            {
              "code": "20505-4",
              "system": "http://loinc.org",
              "display": "Bilirubin.total [Mass/volume] in Urine by Test strip"
            }
          ],
          "text": "Bilirubin.total [Mass/volume] in Urine by Test strip"
        },
        "valueQuantity": {
          "system": "http://unitsofmeasure.org",
          "value": 1,
          "unit": "mg/dL",
          "code": "mg/dL"
        },
        "referenceRange": [
          {
            "low": {
              "value": 0,
              "code": "mg/dL",
              "system": "http://unitsofmeasure.org"
            }
          },
          {
            "high": {
              "value": 1,
              "code": "mg/dL",
              "system": "http://unitsofmeasure.org"
            }
          }
        ],
        "text": {
          "status": "generated",
          "div": "<div xmlns=\"http://www.w3.org/1999/xhtml\"><table class=\"hl7__eu__lab__report\"><tr><th>Test</th><th>23-Dec-2024</th><th>Reference&#xA0;Range</th><th>Unit</th></tr><tr><td>Bilirubin.total [Mass/volume] in Urine by Test strip</td><td>1.0</td><td>0 - 1</td><td></td><td>mg/dL</td></tr></table></div>"
        },
        "status": "final",
        "subject": {
          "reference": "urn:uuid:63eb32f1-4747-4859-900a-d819a49d0316",
          "display": "Meaghan Neary"
        },
        "effectiveDateTime": "2024-12-23T22:11:04Z",
        "specimen": {
          "reference": "urn:uuid:1ebfd2f4-be63-4777-b0d8-ff5f800679e1"
        }
      }
    },
    {
      "fullUrl": "urn:uuid:1ef82d86-f0d1-4f0b-a298-44b0d822512e",
      "resource": {
        "resourceType": "Observation",
        "id": "1ef82d86-f0d1-4f0b-a298-44b0d822512e",
        "meta": {
          "profile": [
            "http://hl7.eu/fhir/laboratory/StructureDefinition/Observation-resultslab-eu-lab"
          ]
        },
        "performer": [
          {
            "display": "The Central European Lab"
          }
        ],
        "category": [
          {
            "coding": [
              {
                "system": "http://terminology.hl7.org/CodeSystem/observation-category",
                "code": "laboratory"
              }
            ]
          }
        ],
        "code": {
          "coding": [
            {
              "code": "5770-3",
              "system": "http://loinc.org",
              "display": "Bilirubin.total [Presence] in Urine by Test strip"
            }
          ],
          "text": "Bilirubin.total [Presence] in Urine by Test strip"
        },
        "text": {
          "status": "generated",
          "div": "<div xmlns=\"http://www.w3.org/1999/xhtml\"><table class=\"hl7__eu__lab__report\"><tr><th>Test</th><th>23-Dec-2024</th><th>Reference&#xA0;Range</th><th>Unit</th></tr><tr><td>Bilirubin.total [Presence] in Urine by Test strip</td></tr></table></div>"
        },
        "status": "final",
        "subject": {
          "reference": "urn:uuid:63eb32f1-4747-4859-900a-d819a49d0316",
          "display": "Meaghan Neary"
        },
        "effectiveDateTime": "2024-12-23T22:11:04Z",
        "specimen": {
          "reference": "urn:uuid:1ebfd2f4-be63-4777-b0d8-ff5f800679e1"
        }
      }
    },
    {
      "fullUrl": "urn:uuid:e1d0e8d6-5382-46eb-90bd-3637321c4303",
      "resource": {
        "resourceType": "Observation",
        "id": "e1d0e8d6-5382-46eb-90bd-3637321c4303",
        "meta": {
          "profile": [
            "http://hl7.eu/fhir/laboratory/StructureDefinition/Observation-resultslab-eu-lab"
          ]
        },
        "performer": [
          {
            "display": "The Central European Lab"
          }
        ],
        "category": [
          {
            "coding": [
              {
                "system": "http://terminology.hl7.org/CodeSystem/observation-category",
                "code": "laboratory"
              }
            ]
          }
        ],
        "code": {
          "coding": [
            {
              "code": "5797-6",
              "system": "http://loinc.org",
              "display": "Ketones [Mass/volume] in Urine by Test strip"
            }
          ],
          "text": "Ketones [Mass/volume] in Urine by Test strip"
        },
        "valueQuantity": {
          "system": "http://unitsofmeasure.org",
          "value": 18.2,
          "unit": "mg/dL",
          "code": "mg/dL"
        },
        "referenceRange": [
          {
            "low": {
              "value": 0,
              "code": "mg/dL",
              "system": "http://unitsofmeasure.org"
            }
          },
          {
            "high": {
              "value": 4,
              "code": "mg/dL",
              "system": "http://unitsofmeasure.org"
            }
          }
        ],
        "interpretation": [
          {
            "coding": [
              {
                "code": "H",
                "system": "http://terminology.hl7.org/CodeSystem/v3-ObservationInterpretation",
                "display": "High"
              }
            ]
          }
        ],
        "text": {
          "status": "generated",
          "div": "<div xmlns=\"http://www.w3.org/1999/xhtml\"><table class=\"hl7__eu__lab__report\"><tr><th>Test</th><th>23-Dec-2024</th><th>Reference&#xA0;Range</th><th>Unit</th></tr><tr><td>Ketones [Mass/volume] in Urine by Test strip</td><td>18.2</td><td>0 - 4</td><td>H</td><td>mg/dL</td></tr></table></div>"
        },
        "status": "final",
        "subject": {
          "reference": "urn:uuid:63eb32f1-4747-4859-900a-d819a49d0316",
          "display": "Meaghan Neary"
        },
        "effectiveDateTime": "2024-12-23T22:11:04Z",
        "specimen": {
          "reference": "urn:uuid:1ebfd2f4-be63-4777-b0d8-ff5f800679e1"
        }
      }
    },
    {
      "fullUrl": "urn:uuid:48b7e0ac-e2c6-4908-8819-74db27bb1a85",
      "resource": {
        "resourceType": "Observation",
        "id": "48b7e0ac-e2c6-4908-8819-74db27bb1a85",
        "meta": {
          "profile": [
            "http://hl7.eu/fhir/laboratory/StructureDefinition/Observation-resultslab-eu-lab"
          ]
        },
        "performer": [
          {
            "display": "The Central European Lab"
          }
        ],
        "category": [
          {
            "coding": [
              {
                "system": "http://terminology.hl7.org/CodeSystem/observation-category",
                "code": "laboratory"
              }
            ]
          }
        ],
        "code": {
          "coding": [
            {
              "code": "2514-8",
              "system": "http://loinc.org",
              "display": "Ketones [Presence] in Urine by Test strip"
            }
          ],
          "text": "Ketones [Presence] in Urine by Test strip"
        },
        "text": {
          "status": "generated",
          "div": "<div xmlns=\"http://www.w3.org/1999/xhtml\"><table class=\"hl7__eu__lab__report\"><tr><th>Test</th><th>23-Dec-2024</th><th>Reference&#xA0;Range</th><th>Unit</th></tr><tr><td>Ketones [Presence] in Urine by Test strip</td></tr></table></div>"
        },
        "status": "final",
        "subject": {
          "reference": "urn:uuid:63eb32f1-4747-4859-900a-d819a49d0316",
          "display": "Meaghan Neary"
        },
        "effectiveDateTime": "2024-12-23T22:11:04Z",
        "specimen": {
          "reference": "urn:uuid:1ebfd2f4-be63-4777-b0d8-ff5f800679e1"
        }
      }
    },
    {
      "fullUrl": "urn:uuid:181d6192-ce61-4523-a724-f1f127822c09",
      "resource": {
        "resourceType": "Observation",
        "id": "181d6192-ce61-4523-a724-f1f127822c09",
        "meta": {
          "profile": [
            "http://hl7.eu/fhir/laboratory/StructureDefinition/Observation-resultslab-eu-lab"
          ]
        },
        "performer": [
          {
            "display": "The Central European Lab"
          }
        ],
        "category": [
          {
            "coding": [
              {
                "system": "http://terminology.hl7.org/CodeSystem/observation-category",
                "code": "laboratory"
              }
            ]
          }
        ],
        "code": {
          "coding": [
            {
              "code": "5811-5",
              "system": "http://loinc.org",
              "display": "Specific gravity of Urine by Test strip"
            }
          ],
          "text": "Specific gravity of Urine by Test strip"
        },
        "valueQuantity": {
          "system": "http://unitsofmeasure.org",
          "value": 1,
          "unit": "{nominal}",
          "code": "{nominal}"
        },
        "referenceRange": [
          {
            "low": {
              "value": 1.005,
              "code": "g/mL",
              "system": "http://unitsofmeasure.org"
            }
          },
          {
            "high": {
              "value": 1.03,
              "code": "g/mL",
              "system": "http://unitsofmeasure.org"
            }
          }
        ],
        "interpretation": [
          {
            "coding": [
              {
                "code": "L",
                "system": "http://terminology.hl7.org/CodeSystem/v3-ObservationInterpretation",
                "display": "Low"
              }
            ]
          }
        ],
        "text": {
          "status": "generated",
          "div": "<div xmlns=\"http://www.w3.org/1999/xhtml\"><table class=\"hl7__eu__lab__report\"><tr><th>Test</th><th>23-Dec-2024</th><th>Reference&#xA0;Range</th><th>Unit</th></tr><tr><td>Specific gravity of Urine by Test strip</td><td>1.0</td><td>1.005 - 1.03</td><td>L</td><td>{nominal}</td></tr></table></div>"
        },
        "status": "final",
        "subject": {
          "reference": "urn:uuid:63eb32f1-4747-4859-900a-d819a49d0316",
          "display": "Meaghan Neary"
        },
        "effectiveDateTime": "2024-12-23T22:11:04Z",
        "specimen": {
          "reference": "urn:uuid:1ebfd2f4-be63-4777-b0d8-ff5f800679e1"
        }
      }
    },
    {
      "fullUrl": "urn:uuid:393d30d9-2373-4a98-a5bb-00a28e6d4bc4",
      "resource": {
        "resourceType": "Observation",
        "id": "393d30d9-2373-4a98-a5bb-00a28e6d4bc4",
        "meta": {
          "profile": [
            "http://hl7.eu/fhir/laboratory/StructureDefinition/Observation-resultslab-eu-lab"
          ]
        },
        "performer": [
          {
            "display": "The Central European Lab"
          }
        ],
        "category": [
          {
            "coding": [
              {
                "system": "http://terminology.hl7.org/CodeSystem/observation-category",
                "code": "laboratory"
              }
            ]
          }
        ],
        "code": {
          "coding": [
            {
              "code": "5803-2",
              "system": "http://loinc.org",
              "display": "pH of Urine by Test strip"
            }
          ],
          "text": "pH of Urine by Test strip"
        },
        "valueQuantity": {
          "system": "http://unitsofmeasure.org",
          "value": 5.6,
          "unit": "pH",
          "code": "pH"
        },
        "referenceRange": [
          {
            "low": {
              "value": 4.6,
              "code": "pH",
              "system": "http://unitsofmeasure.org"
            }
          },
          {
            "high": {
              "value": 7,
              "code": "pH",
              "system": "http://unitsofmeasure.org"
            }
          }
        ],
        "text": {
          "status": "generated",
          "div": "<div xmlns=\"http://www.w3.org/1999/xhtml\"><table class=\"hl7__eu__lab__report\"><tr><th>Test</th><th>23-Dec-2024</th><th>Reference&#xA0;Range</th><th>Unit</th></tr><tr><td>pH of Urine by Test strip</td><td>5.6</td><td>4.6 - 7</td><td></td><td>pH</td></tr></table></div>"
        },
        "status": "final",
        "subject": {
          "reference": "urn:uuid:63eb32f1-4747-4859-900a-d819a49d0316",
          "display": "Meaghan Neary"
        },
        "effectiveDateTime": "2024-12-23T22:11:04Z",
        "specimen": {
          "reference": "urn:uuid:1ebfd2f4-be63-4777-b0d8-ff5f800679e1"
        }
      }
    },
    {
      "fullUrl": "urn:uuid:615e5463-1a57-4fae-997e-f6051fac1f04",
      "resource": {
        "resourceType": "Observation",
        "id": "615e5463-1a57-4fae-997e-f6051fac1f04",
        "meta": {
          "profile": [
            "http://hl7.eu/fhir/laboratory/StructureDefinition/Observation-resultslab-eu-lab"
          ]
        },
        "performer": [
          {
            "display": "The Central European Lab"
          }
        ],
        "category": [
          {
            "coding": [
              {
                "system": "http://terminology.hl7.org/CodeSystem/observation-category",
                "code": "laboratory"
              }
            ]
          }
        ],
        "code": {
          "coding": [
            {
              "code": "5804-0",
              "system": "http://loinc.org",
              "display": "Protein [Mass/volume] in Urine by Test strip"
            }
          ],
          "text": "Protein [Mass/volume] in Urine by Test strip"
        },
        "valueQuantity": {
          "system": "http://unitsofmeasure.org",
          "value": 393.4,
          "unit": "mg/dL",
          "code": "mg/dL"
        },
        "referenceRange": [
          {
            "low": {
              "value": 0,
              "code": "mg/dL",
              "system": "http://unitsofmeasure.org"
            }
          },
          {
            "high": {
              "value": 14,
              "code": "mg/dL",
              "system": "http://unitsofmeasure.org"
            }
          }
        ],
        "interpretation": [
          {
            "coding": [
              {
                "code": "H",
                "system": "http://terminology.hl7.org/CodeSystem/v3-ObservationInterpretation",
                "display": "High"
              }
            ]
          }
        ],
        "text": {
          "status": "generated",
          "div": "<div xmlns=\"http://www.w3.org/1999/xhtml\"><table class=\"hl7__eu__lab__report\"><tr><th>Test</th><th>23-Dec-2024</th><th>Reference&#xA0;Range</th><th>Unit</th></tr><tr><td>Protein [Mass/volume] in Urine by Test strip</td><td>393.4</td><td>0 - 14</td><td>H</td><td>mg/dL</td></tr></table></div>"
        },
        "status": "final",
        "subject": {
          "reference": "urn:uuid:63eb32f1-4747-4859-900a-d819a49d0316",
          "display": "Meaghan Neary"
        },
        "effectiveDateTime": "2024-12-23T22:11:04Z",
        "specimen": {
          "reference": "urn:uuid:1ebfd2f4-be63-4777-b0d8-ff5f800679e1"
        }
      }
    },
    {
      "fullUrl": "urn:uuid:ecb997cf-a01b-43c4-9416-003ccfb77bd7",
      "resource": {
        "resourceType": "Observation",
        "id": "ecb997cf-a01b-43c4-9416-003ccfb77bd7",
        "meta": {
          "profile": [
            "http://hl7.eu/fhir/laboratory/StructureDefinition/Observation-resultslab-eu-lab"
          ]
        },
        "performer": [
          {
            "display": "The Central European Lab"
          }
        ],
        "category": [
          {
            "coding": [
              {
                "system": "http://terminology.hl7.org/CodeSystem/observation-category",
                "code": "laboratory"
              }
            ]
          }
        ],
        "code": {
          "coding": [
            {
              "code": "20454-5",
              "system": "http://loinc.org",
              "display": "Protein [Presence] in Urine by Test strip"
            }
          ],
          "text": "Protein [Presence] in Urine by Test strip"
        },
        "text": {
          "status": "generated",
          "div": "<div xmlns=\"http://www.w3.org/1999/xhtml\"><table class=\"hl7__eu__lab__report\"><tr><th>Test</th><th>23-Dec-2024</th><th>Reference&#xA0;Range</th><th>Unit</th></tr><tr><td>Protein [Presence] in Urine by Test strip</td></tr></table></div>"
        },
        "status": "final",
        "subject": {
          "reference": "urn:uuid:63eb32f1-4747-4859-900a-d819a49d0316",
          "display": "Meaghan Neary"
        },
        "effectiveDateTime": "2024-12-23T22:11:04Z",
        "specimen": {
          "reference": "urn:uuid:1ebfd2f4-be63-4777-b0d8-ff5f800679e1"
        }
      }
    },
    {
      "fullUrl": "urn:uuid:a09827a4-9760-4d94-ba57-19dea835c632",
      "resource": {
        "resourceType": "Observation",
        "id": "a09827a4-9760-4d94-ba57-19dea835c632",
        "meta": {
          "profile": [
            "http://hl7.eu/fhir/laboratory/StructureDefinition/Observation-resultslab-eu-lab"
          ]
        },
        "performer": [
          {
            "display": "The Central European Lab"
          }
        ],
        "category": [
          {
            "coding": [
              {
                "system": "http://terminology.hl7.org/CodeSystem/observation-category",
                "code": "laboratory"
              }
            ]
          }
        ],
        "code": {
          "coding": [
            {
              "code": "5802-4",
              "system": "http://loinc.org",
              "display": "Nitrite [Presence] in Urine by Test strip"
            }
          ],
          "text": "Nitrite [Presence] in Urine by Test strip"
        },
        "text": {
          "status": "generated",
          "div": "<div xmlns=\"http://www.w3.org/1999/xhtml\"><table class=\"hl7__eu__lab__report\"><tr><th>Test</th><th>23-Dec-2024</th><th>Reference&#xA0;Range</th><th>Unit</th></tr><tr><td>Nitrite [Presence] in Urine by Test strip</td></tr></table></div>"
        },
        "status": "final",
        "subject": {
          "reference": "urn:uuid:63eb32f1-4747-4859-900a-d819a49d0316",
          "display": "Meaghan Neary"
        },
        "effectiveDateTime": "2024-12-23T22:11:04Z",
        "specimen": {
          "reference": "urn:uuid:1ebfd2f4-be63-4777-b0d8-ff5f800679e1"
        }
      }
    },
    {
      "fullUrl": "urn:uuid:bee1714a-0e1a-4077-83b5-60fb8639085b",
      "resource": {
        "resourceType": "Observation",
        "id": "bee1714a-0e1a-4077-83b5-60fb8639085b",
        "meta": {
          "profile": [
            "http://hl7.eu/fhir/laboratory/StructureDefinition/Observation-resultslab-eu-lab"
          ]
        },
        "performer": [
          {
            "display": "The Central European Lab"
          }
        ],
        "category": [
          {
            "coding": [
              {
                "system": "http://terminology.hl7.org/CodeSystem/observation-category",
                "code": "laboratory"
              }
            ]
          }
        ],
        "code": {
          "coding": [
            {
              "code": "5794-3",
              "system": "http://loinc.org",
              "display": "Hemoglobin [Presence] in Urine by Test strip"
            }
          ],
          "text": "Hemoglobin [Presence] in Urine by Test strip"
        },
        "text": {
          "status": "generated",
          "div": "<div xmlns=\"http://www.w3.org/1999/xhtml\"><table class=\"hl7__eu__lab__report\"><tr><th>Test</th><th>23-Dec-2024</th><th>Reference&#xA0;Range</th><th>Unit</th></tr><tr><td>Hemoglobin [Presence] in Urine by Test strip</td></tr></table></div>"
        },
        "status": "final",
        "subject": {
          "reference": "urn:uuid:63eb32f1-4747-4859-900a-d819a49d0316",
          "display": "Meaghan Neary"
        },
        "effectiveDateTime": "2024-12-23T22:11:04Z",
        "specimen": {
          "reference": "urn:uuid:1ebfd2f4-be63-4777-b0d8-ff5f800679e1"
        }
      }
    },
    {
      "fullUrl": "urn:uuid:76da46bf-b02f-445c-a409-68f029211c1f",
      "resource": {
        "resourceType": "Observation",
        "id": "76da46bf-b02f-445c-a409-68f029211c1f",
        "meta": {
          "profile": [
            "http://hl7.eu/fhir/laboratory/StructureDefinition/Observation-resultslab-eu-lab"
          ]
        },
        "performer": [
          {
            "display": "The Central European Lab"
          }
        ],
        "category": [
          {
            "coding": [
              {
                "system": "http://terminology.hl7.org/CodeSystem/observation-category",
                "code": "laboratory"
              }
            ]
          }
        ],
        "code": {
          "coding": [
            {
              "code": "5799-2",
              "system": "http://loinc.org",
              "display": "Leukocyte esterase [Presence] in Urine by Test strip"
            }
          ],
          "text": "Leukocyte esterase [Presence] in Urine by Test strip"
        },
        "text": {
          "status": "generated",
          "div": "<div xmlns=\"http://www.w3.org/1999/xhtml\"><table class=\"hl7__eu__lab__report\"><tr><th>Test</th><th>23-Dec-2024</th><th>Reference&#xA0;Range</th><th>Unit</th></tr><tr><td>Leukocyte esterase [Presence] in Urine by Test strip</td></tr></table></div>"
        },
        "status": "final",
        "subject": {
          "reference": "urn:uuid:63eb32f1-4747-4859-900a-d819a49d0316",
          "display": "Meaghan Neary"
        },
        "effectiveDateTime": "2024-12-23T22:11:04Z",
        "specimen": {
          "reference": "urn:uuid:1ebfd2f4-be63-4777-b0d8-ff5f800679e1"
        }
      }
    },
    {
      "fullUrl": "urn:uuid:546b27fa-b92c-48d3-a20e-b454b5c15222",
      "resource": {
        "resourceType": "Observation",
        "id": "546b27fa-b92c-48d3-a20e-b454b5c15222",
        "meta": {
          "profile": [
            "http://hl7.eu/fhir/laboratory/StructureDefinition/Observation-resultslab-eu-lab"
          ]
        },
        "performer": [
          {
            "display": "The Central European Lab"
          }
        ],
        "category": [
          {
            "coding": [
              {
                "system": "http://terminology.hl7.org/CodeSystem/observation-category",
                "code": "laboratory"
              }
            ]
          }
        ],
        "code": {
          "coding": [
            {
              "code": "4548-4",
              "system": "http://loinc.org",
              "display": "Hemoglobin A1c/Hemoglobin.total in Blood"
            }
          ],
          "text": "Hemoglobin A1c/Hemoglobin.total in Blood"
        },
        "valueQuantity": {
          "system": "http://unitsofmeasure.org",
          "value": 4,
          "unit": "%",
          "code": "%"
        },
        "referenceRange": [
          {
            "low": {
              "value": 4,
              "code": "%",
              "system": "http://unitsofmeasure.org"
            }
          },
          {
            "high": {
              "value": 6.4,
              "code": "%",
              "system": "http://unitsofmeasure.org"
            }
          }
        ],
        "text": {
          "status": "generated",
          "div": "<div xmlns=\"http://www.w3.org/1999/xhtml\"><table class=\"hl7__eu__lab__report\"><tr><th>Test</th><th>23-Dec-2024</th><th>Reference&#xA0;Range</th><th>Unit</th></tr><tr><td>Hemoglobin A1c/Hemoglobin.total in Blood</td><td>4.0</td><td>4 - 6.4</td><td></td><td>%</td></tr></table></div>"
        },
        "status": "final",
        "subject": {
          "reference": "urn:uuid:63eb32f1-4747-4859-900a-d819a49d0316",
          "display": "Meaghan Neary"
        },
        "effectiveDateTime": "2024-12-23T22:11:04Z",
        "specimen": {
          "reference": "urn:uuid:7cdbc3f2-2547-4cda-b5a4-545010aa0e1c"
        }
      }
    },
    {
      "fullUrl": "urn:uuid:c557fe20-c2c5-4728-8ec9-4d1d7a317cb5",
      "resource": {
        "resourceType": "Device",
        "id": "c557fe20-c2c5-4728-8ec9-4d1d7a317cb5",
        "deviceName": [
          {
            "name": "SYNDERAI Synthetic Generator",
            "type": "manufacturer-name"
          }
        ],
        "version": [
          {
            "value": "5.0"
          }
        ],
        "text": {
          "status": "generated",
          "div": "<div xmlns=\"http://www.w3.org/1999/xhtml\">SYNDERAI Synthetic Generator v5.0</div>"
        },
        "status": "active\"",
        "distinctIdentifier": "synderai-generator-50",
        "manufacturer": "SYNDERAI Project"
      }
    },
    {
      "fullUrl": "urn:uuid:61d202de-fb66-4891-bf4e-39b0cbebed41",
      "resource": {
        "resourceType": "Provenance",
        "id": "61d202de-fb66-4891-bf4e-39b0cbebed41",
        "target": [
          {
            "reference": "Patient/63eb32f1-4747-4859-900a-d819a49d0316"
          },
          {
            "reference": "Bundle/512f8455-59c4-49cb-a43b-bcc63d7663a2"
          },
          {
            "reference": "Composition/166e0c51-d42b-4ff3-8eb6-318a2c506500"
          },
          {
            "reference": "PractitionerRole/427f1db2-3c76-4420-afe7-e53ec150b9ac"
          },
          {
            "reference": "Practitioner/eb6e0195-3c40-4efd-bafa-ee47db2a69cb"
          },
          {
            "reference": "PractitionerRole/0e46614c-39b9-4077-868b-62fdf1d0d800"
          },
          {
            "reference": "Organization/d7cc1260-1ee7-44ae-994b-609c74342654"
          }
        ],
        "activity": {
          "text": "Synthetic Example Data Generation"
        },
        "policy": [
          "https://synderai.net/synderai-synthetic-data-policy"
        ],
        "agent": [
          {
            "type": {
              "text": "author"
            },
            "who": {
              "reference": "Device/c557fe20-c2c5-4728-8ec9-4d1d7a317cb5"
            }
          }
        ],
        "reason": [
          {
            "text": "Interoperability Testing and Training (non-clinical use)"
          }
        ],
        "text": {
          "status": "generated",
          "div": "<div xmlns=\"http://www.w3.org/1999/xhtml\">Provenance for SYNDERAI Synthetic Example Data Resource</div>"
        },
        "recorded": "2024-12-23T23:11:04Z"
      }
    },
    {
      "fullUrl": "urn:uuid:427f1db2-3c76-4420-afe7-e53ec150b9ac",
      "resource": {
        "resourceType": "PractitionerRole",
        "id": "427f1db2-3c76-4420-afe7-e53ec150b9ac",
        "meta": {
          "profile": [
            "http://hl7.eu/fhir/base/StructureDefinition/practitionerRole-eu"
          ]
        },
        "text": {
          "status": "generated",
          "div": "<div xmlns=\"http://www.w3.org/1999/xhtml\">Laboratory Role Id: 427f1db2-3c76-4420-afe7-e53ec150b9ac</div>"
        },
        "practitioner": {
          "reference": "urn:uuid:eb6e0195-3c40-4efd-bafa-ee47db2a69cb"
        }
      }
    },
    {
      "fullUrl": "urn:uuid:eb6e0195-3c40-4efd-bafa-ee47db2a69cb",
      "resource": {
        "resourceType": "Practitioner",
        "id": "eb6e0195-3c40-4efd-bafa-ee47db2a69cb",
        "meta": {
          "profile": [
            "http://hl7.eu/fhir/base/StructureDefinition/practitioner-eu"
          ]
        },
        "identifier": [
          {
            "assigner": {
              "display": "HL7 Europe"
            },
            "system": "urn:oid:2.16.840.1.113883.2.51.999",
            "value": "8558bebf-7e01-40e2-b5fa-d5c424ae9844"
          }
        ],
        "name": [
          {
            "prefix": [
              "dr"
            ],
            "given": [
              "Ex"
            ],
            "family": "Ample"
          }
        ],
        "address": [
          {
            "line": [
              "Laboratoire Central Europenne",
              "Boulevard du Jardin Botanique 32"
            ],
            "postalCode": "1000",
            "city": "Brussels",
            "country": "Belgium"
          }
        ],
        "text": {
          "status": "generated",
          "div": "<div xmlns=\"http://www.w3.org/1999/xhtml\">Laboratory: Laboratoire Central Europenne, 1000 Brussels, Belgium</div>"
        }
      }
    }
  ],
  "type": "document",
  "timestamp": "2024-12-23T23:11:04Z"
}
