{
  "resourceType": "Bundle",
  "id": "72a505c1-7925-43c2-971a-f13b1268de82",
  "meta": {
    "profile": [
      "http://hl7.eu/fhir/laboratory/StructureDefinition/Bundle-eu-lab"
    ]
  },
  "identifier": {
    "assigner": {
      "display": "HL7 Europe"
    },
    "system": "urn:oid:2.16.840.1.113883.2.51.999",
    "value": "a579bd81-8aaf-4803-b6db-dac34d216c4a"
  },
  "entry": [
    {
      "fullUrl": "urn:uuid:79ea3424-8eb4-4cbc-983b-d54328f59ad5",
      "resource": {
        "resourceType": "Composition",
        "id": "79ea3424-8eb4-4cbc-983b-d54328f59ad5",
        "meta": {
          "profile": [
            "http://hl7.eu/fhir/laboratory/StructureDefinition/Composition-eu-lab"
          ]
        },
        "identifier": {
          "assigner": {
            "display": "HL7 Europe"
          },
          "system": "urn:oid:2.16.840.1.113883.2.51.999",
          "value": "4d512eb0-abcd-425d-bcb0-78b79175bb86"
        },
        "author": [
          {
            "reference": "urn:uuid:a1aed880-a991-44e8-adac-b282d8ae6dce"
          }
        ],
        "category": [
          {
            "coding": [
              {
                "code": "26436-6",
                "system": "http://loinc.org",
                "display": "Laboratory studies (set)"
              }
            ]
          }
        ],
        "type": {
          "coding": [
            {
              "code": "11502-2",
              "system": "http://loinc.org",
              "display": "Laboratory report"
            }
          ],
          "text": "Laboratory Report"
        },
        "section": [
          {
            "code": {
              "coding": [
                {
                  "code": "26436-6",
                  "system": "http://loinc.org",
                  "display": "Laboratory studies (set)"
                }
              ],
              "text": "Laboratory studies"
            },
            "section": [
              {
                "code": {
                  "coding": [
                    {
                      "code": "$18719-5",
                      "system": "http://loinc.org",
                      "display": "Chemistry studies (set)"
                    }
                  ],
                  "text": "Chemistry"
                },
                "entry": [
                  {
                    "reference": "urn:uuid:bf3957df-0132-4e8e-8935-56c3bfd6789d"
                  },
                  {
                    "reference": "urn:uuid:1281edd8-41a1-4956-8963-6ea40146477a"
                  },
                  {
                    "reference": "urn:uuid:c7465592-d58b-417b-a12c-ccad343be24c"
                  },
                  {
                    "reference": "urn:uuid:2261abe2-83a7-43b0-b0f3-9b8d556bd0c6"
                  },
                  {
                    "reference": "urn:uuid:9b65c969-3388-4e0a-9a5a-ce8654bc718d"
                  },
                  {
                    "reference": "urn:uuid:ced0a73d-6850-415a-83ea-b0c64df9e120"
                  },
                  {
                    "reference": "urn:uuid:939488b7-03fc-4677-9926-38a7b3b88f07"
                  },
                  {
                    "reference": "urn:uuid:fda6e34f-6613-4916-95a9-bee1d1fe8b33"
                  },
                  {
                    "reference": "urn:uuid:481943ff-c894-42b8-9270-64ebe4d73883"
                  },
                  {
                    "reference": "urn:uuid:3bbed9b7-3ebd-44e5-ab31-b6ccdd563b58"
                  },
                  {
                    "reference": "urn:uuid:fe300df7-ce5e-452d-bbd5-0385d32379d9"
                  },
                  {
                    "reference": "urn:uuid:6d99e96d-db29-41c2-bcaf-a7351b1a9476"
                  },
                  {
                    "reference": "urn:uuid:55a70c41-4c36-4596-867b-61b7cac704af"
                  },
                  {
                    "reference": "urn:uuid:12e82830-6f91-4cae-b0d5-663921ed6db9"
                  },
                  {
                    "reference": "urn:uuid:9cd63660-1a32-457f-8eb5-88c992d48249"
                  },
                  {
                    "reference": "urn:uuid:0099e7a7-de97-408a-bf76-71fc49edf9b9"
                  }
                ],
                "text": {
                  "status": "generated",
                  "div": "<div xmlns=\"http://www.w3.org/1999/xhtml\"><h3>Chemistry</h3><table class=\"hl7__eu__lab__report\"><thead><tr><th>Test</th><th>30-OCT-2017</th><th>Reference&#xA0;Range</th><th>Unit</th></tr></thead><tbody><tr><td>Glucose [Mass/volume] in Blood</td><td><strong>64.6 L</strong></td><td>70 - 140</td><td>mg/dL</td></tr><tr><td>Urea nitrogen [Mass/volume] in Blood</td><td>13.8</td><td>7 - 30</td><td>mg/dL</td></tr><tr><td>Creatinine [Mass/volume] in Blood</td><td><strong>2.5 H</strong></td><td>0.5 - 1.3</td><td>mg/dL</td></tr><tr><td>Calcium [Mass/volume] in Blood</td><td>8.8</td><td>8.6 - 10.2</td><td>mg/dL</td></tr><tr><td>Sodium [Moles/volume] in Blood</td><td>141.5</td><td>135 - 145</td><td>mmol/L</td></tr><tr><td>Potassium [Moles/volume] in Blood</td><td>4.3</td><td>3.5 - 5.1</td><td>mmol/L</td></tr><tr><td>Chloride [Moles/volume] in Blood</td><td>103.2</td><td>98 - 114</td><td>mmol/L</td></tr><tr><td>Carbon dioxide, total [Moles/volume] in Blood</td><td>25.7</td><td>22 - 32</td><td>mmol/L</td></tr><tr><td>Protein [Mass/volume] in Serum or Plasma</td><td>6.5</td><td>6 - 8.3</td><td>g/dL</td></tr><tr><td>Albumin [Mass/volume] in Serum or Plasma</td><td>4.0</td><td>3.5 - 5.5</td><td>g/dL</td></tr><tr><td>Globulin [Mass/volume] in Serum by calculation</td><td>3.5</td><td>2 - 3.5</td><td>g/L</td></tr><tr><td>Bilirubin.total [Mass/volume] in Serum or Plasma</td><td>0.7</td><td>0.3 - 1.2</td><td>mg/dL</td></tr><tr><td>Alkaline phosphatase [Enzymatic activity/volume] in Serum or Plasma</td><td>65.9</td><td>44 - 142</td><td>U/L</td></tr><tr><td>Alanine aminotransferase [Enzymatic activity/volume] in Serum or Plasma</td><td>28.7</td><td>7 - 40</td><td>U/L</td></tr><tr><td>Aspartate aminotransferase [Enzymatic activity/volume] in Serum or Plasma</td><td><strong>8.1 L</strong></td><td>10 - 40</td><td>U/L</td></tr><tr><td>Ketones [Presence] in Urine by Test strip</td><td>Urine ketone test = +++</td><td></td><td></td></tr></tbody></table></div>"
                },
                "title": "Chemistry"
              },
              {
                "code": {
                  "coding": [
                    {
                      "code": "$18729-4",
                      "system": "http://loinc.org",
                      "display": "Urinalysis studies (set)"
                    }
                  ],
                  "text": "Urinalysis"
                },
                "entry": [
                  {
                    "reference": "urn:uuid:d377a18f-aad9-41dc-8343-728a1ae6cb51"
                  },
                  {
                    "reference": "urn:uuid:da0cdbab-8477-4ea8-a447-00455ddcd70e"
                  },
                  {
                    "reference": "urn:uuid:ede8672a-c1f4-49a0-be90-cf66ba503169"
                  },
                  {
                    "reference": "urn:uuid:f298eef0-180d-496a-929d-2ee7d0a0e246"
                  },
                  {
                    "reference": "urn:uuid:3a339b03-5ceb-46f3-a413-4455aac08106"
                  },
                  {
                    "reference": "urn:uuid:3df29ba9-caf3-4b26-9eed-e7d384257940"
                  },
                  {
                    "reference": "urn:uuid:9f88736e-0739-486b-abc0-eefc72a93475"
                  },
                  {
                    "reference": "urn:uuid:ade1cf46-9229-4715-bcea-2cae3da75d24"
                  },
                  {
                    "reference": "urn:uuid:d701c4a9-5900-4d38-be14-c7b1ed5fee07"
                  },
                  {
                    "reference": "urn:uuid:aa980639-e89b-45a1-8bc0-481a3ae42f29"
                  },
                  {
                    "reference": "urn:uuid:d703ab34-4fe0-4834-b58c-babb3f708221"
                  },
                  {
                    "reference": "urn:uuid:b2e7f733-dace-4f6d-a2fd-7fecc3d0c60a"
                  }
                ],
                "text": {
                  "status": "generated",
                  "div": "<div xmlns=\"http://www.w3.org/1999/xhtml\"><h3>Urinalysis</h3><table class=\"hl7__eu__lab__report\"><thead><tr><th>Test</th><th>30-OCT-2017</th><th>Reference&#xA0;Range</th><th>Unit</th></tr></thead><tbody><tr><td>Glucose [Mass/volume] in Urine by Test strip</td><td><strong>1.8 H</strong></td><td>0.8 - 0</td><td>mg/dL</td></tr><tr><td>Glucose [Presence] in Urine by Test strip</td><td>++</td><td></td><td></td></tr><tr><td>Bilirubin.total [Mass/volume] in Urine by Test strip</td><td>1.1</td><td>0 - 1.5</td><td>mg/dL</td></tr><tr><td>Bilirubin.total [Presence] in Urine by Test strip</td><td>Finding of bilirubin in urine</td><td></td><td></td></tr><tr><td>Ketones [Mass/volume] in Urine by Test strip</td><td><strong>9.0 H</strong></td><td>0 - 8</td><td>mg/dL</td></tr><tr><td>Specific gravity of Urine by Test strip</td><td><strong>1.0 L</strong></td><td>1.01 - 1.03</td><td>{nominal}</td></tr><tr><td>pH of Urine by Test strip</td><td>5.6</td><td>4.6 - 7.5</td><td>pH</td></tr><tr><td>Protein [Mass/volume] in Urine by Test strip</td><td><strong>302.2 H</strong></td><td>0 - 14</td><td>mg/dL</td></tr><tr><td>Protein [Presence] in Urine by Test strip</td><td>Urine protein test = +++</td><td></td><td></td></tr><tr><td>Nitrite [Presence] in Urine by Test strip</td><td>Urine nitrite negative</td><td></td><td></td></tr><tr><td>Hemoglobin [Presence] in Urine by Test strip</td><td>Urine blood test = negative</td><td></td><td></td></tr><tr><td>Leukocyte esterase [Presence] in Urine by Test strip</td><td>Urine leukocyte test negative</td><td></td><td></td></tr></tbody></table></div>"
                },
                "title": "Urinalysis"
              },
              {
                "code": {
                  "coding": [
                    {
                      "code": "$LP7846-1",
                      "system": "http://loinc.org",
                      "display": "Specimen information"
                    }
                  ],
                  "text": "Specimen information"
                },
                "entry": [
                  {
                    "reference": "urn:uuid:cfd52ee5-fbfc-43b7-8381-0cc12cf04dae"
                  },
                  {
                    "reference": "urn:uuid:cb2d1c05-3b9b-4c37-8be4-84513e560480"
                  },
                  {
                    "reference": "urn:uuid:5d408111-8afa-456d-a1e4-b5ca09c25f53"
                  },
                  {
                    "reference": "urn:uuid:aa52579c-cbf6-4737-97f4-6b87dec236b6"
                  }
                ],
                "text": {
                  "status": "generated",
                  "div": "<div xmlns=\"http://www.w3.org/1999/xhtml\"><h3>Specimen information</h3><table class=\"hl7__eu__lab__report\"><thead><tr><th>Test</th><th>30-OCT-2017</th><th>Specimen</th><th></th></tr></thead><tbody><tr><td>Appearance of Urine</td><td>Cloudy urine</td><td>Urine</td><td></td></tr><tr><td>Odor of Urine</td><td>Urine smell ammoniacal</td><td>Urine</td><td></td></tr><tr><td>Clarity of Urine</td><td>Translucent</td><td>Urine</td><td></td></tr><tr><td>Color of Urine</td><td>Brown color</td><td>Urine</td><td></td></tr></tbody></table></div>"
                },
                "title": "Specimen information"
              }
            ],
            "title": "Laboratory Report"
          },
          {
            "text": {
              "status": "generated",
              "div": "<div xmlns=\"http://www.w3.org/1999/xhtml\"><h3>Annotation</h3><table class=\"hl7__eu__lab__report\"><tr><th>Conclusion and Recommendations based on this report and previous findings known to us</th></tr><tr><td>The patient shows hypoglycemia, elevated creatinine indicating impaired renal function, and significant proteinuria, glycosuria, and ketonuria, suggesting possible diabetic nephropathy or another renal pathology with poor glycemic control. Urine is cloudy, brown, and dilute, but without evidence of infection (negative nitrites/leukocytes). Further clinical correlation and nephrology evaluation are recommended.</td></tr></table></div>"
            },
            "code": {
              "coding": [
                {
                  "system": "http://loinc.org",
                  "code": "48767-8",
                  "display": "Annotation comment"
                }
              ]
            },
            "title": "Annotation comment"
          }
        ],
        "status": "final",
        "subject": {
          "reference": "urn:uuid:66e05901-c156-4763-b294-f500bb44c47d",
          "display": "Maria Nohlmans"
        },
        "date": "2017-10-30T01:27:39Z",
        "title": "Laboratory Report",
        "confidentiality": "N"
      }
    },
    {
      "fullUrl": "urn:uuid:f0f29a8b-9c5a-44e2-8eee-2fbc49ec2cf1",
      "resource": {
        "resourceType": "DiagnosticReport",
        "id": "f0f29a8b-9c5a-44e2-8eee-2fbc49ec2cf1",
        "meta": {
          "profile": [
            "http://hl7.eu/fhir/laboratory/StructureDefinition/DiagnosticReport-eu-lab"
          ]
        },
        "identifier": [
          {
            "assigner": {
              "display": "HL7 Europe"
            },
            "system": "urn:oid:2.16.840.1.113883.2.51.999",
            "value": "c56227b6-5d9a-49ae-beb7-d552cef0eb75"
          }
        ],
        "extension": [
          {
            "url": "http://hl7.org/fhir/5.0/StructureDefinition/extension-DiagnosticReport.composition",
            "valueReference": {
              "reference": "urn:uuid:4d512eb0-abcd-425d-bcb0-78b79175bb86"
            }
          }
        ],
        "category": [
          {
            "coding": [
              {
                "code": "26436-6",
                "system": "http://loinc.org",
                "display": "Laboratory studies (set)"
              }
            ]
          }
        ],
        "specimen": [
          {
            "reference": "urn:uuid:5cb5d458-609a-45e4-93c6-7a7509bc378b"
          },
          {
            "reference": "urn:uuid:80998c75-e187-46fa-b353-c8dfa74f4d36"
          },
          {
            "reference": "urn:uuid:e549c0e4-53e9-44cb-9061-80cc4e22f919"
          },
          {
            "reference": "urn:uuid:45365082-9656-4718-9912-d6632ad30dcc"
          }
        ],
        "result": [
          {
            "reference": "urn:uuid:bf3957df-0132-4e8e-8935-56c3bfd6789d"
          },
          {
            "reference": "urn:uuid:1281edd8-41a1-4956-8963-6ea40146477a"
          },
          {
            "reference": "urn:uuid:c7465592-d58b-417b-a12c-ccad343be24c"
          },
          {
            "reference": "urn:uuid:2261abe2-83a7-43b0-b0f3-9b8d556bd0c6"
          },
          {
            "reference": "urn:uuid:9b65c969-3388-4e0a-9a5a-ce8654bc718d"
          },
          {
            "reference": "urn:uuid:ced0a73d-6850-415a-83ea-b0c64df9e120"
          },
          {
            "reference": "urn:uuid:939488b7-03fc-4677-9926-38a7b3b88f07"
          },
          {
            "reference": "urn:uuid:fda6e34f-6613-4916-95a9-bee1d1fe8b33"
          },
          {
            "reference": "urn:uuid:481943ff-c894-42b8-9270-64ebe4d73883"
          },
          {
            "reference": "urn:uuid:3bbed9b7-3ebd-44e5-ab31-b6ccdd563b58"
          },
          {
            "reference": "urn:uuid:fe300df7-ce5e-452d-bbd5-0385d32379d9"
          },
          {
            "reference": "urn:uuid:6d99e96d-db29-41c2-bcaf-a7351b1a9476"
          },
          {
            "reference": "urn:uuid:55a70c41-4c36-4596-867b-61b7cac704af"
          },
          {
            "reference": "urn:uuid:12e82830-6f91-4cae-b0d5-663921ed6db9"
          },
          {
            "reference": "urn:uuid:9cd63660-1a32-457f-8eb5-88c992d48249"
          },
          {
            "reference": "urn:uuid:cfd52ee5-fbfc-43b7-8381-0cc12cf04dae"
          },
          {
            "reference": "urn:uuid:cb2d1c05-3b9b-4c37-8be4-84513e560480"
          },
          {
            "reference": "urn:uuid:5d408111-8afa-456d-a1e4-b5ca09c25f53"
          },
          {
            "reference": "urn:uuid:aa52579c-cbf6-4737-97f4-6b87dec236b6"
          },
          {
            "reference": "urn:uuid:d377a18f-aad9-41dc-8343-728a1ae6cb51"
          },
          {
            "reference": "urn:uuid:da0cdbab-8477-4ea8-a447-00455ddcd70e"
          },
          {
            "reference": "urn:uuid:ede8672a-c1f4-49a0-be90-cf66ba503169"
          },
          {
            "reference": "urn:uuid:f298eef0-180d-496a-929d-2ee7d0a0e246"
          },
          {
            "reference": "urn:uuid:3a339b03-5ceb-46f3-a413-4455aac08106"
          },
          {
            "reference": "urn:uuid:0099e7a7-de97-408a-bf76-71fc49edf9b9"
          },
          {
            "reference": "urn:uuid:3df29ba9-caf3-4b26-9eed-e7d384257940"
          },
          {
            "reference": "urn:uuid:9f88736e-0739-486b-abc0-eefc72a93475"
          },
          {
            "reference": "urn:uuid:ade1cf46-9229-4715-bcea-2cae3da75d24"
          },
          {
            "reference": "urn:uuid:d701c4a9-5900-4d38-be14-c7b1ed5fee07"
          },
          {
            "reference": "urn:uuid:aa980639-e89b-45a1-8bc0-481a3ae42f29"
          },
          {
            "reference": "urn:uuid:d703ab34-4fe0-4834-b58c-babb3f708221"
          },
          {
            "reference": "urn:uuid:b2e7f733-dace-4f6d-a2fd-7fecc3d0c60a"
          }
        ],
        "status": "registered",
        "code": {
          "coding": [
            {
              "code": "11502-2",
              "system": "http://loinc.org",
              "display": "Laboratory report"
            }
          ]
        },
        "subject": {
          "reference": "urn:uuid:66e05901-c156-4763-b294-f500bb44c47d",
          "display": "Maria Nohlmans"
        }
      }
    },
    {
      "fullUrl": "urn:uuid:66e05901-c156-4763-b294-f500bb44c47d",
      "resource": {
        "resourceType": "Patient",
        "id": "66e05901-c156-4763-b294-f500bb44c47d",
        "meta": {
          "security": [
            {
              "system": "http://terminology.hl7.org/CodeSystem/v3-ActReason",
              "code": "HTEST"
            },
            {
              "system": "http://terminology.hl7.org/CodeSystem/v3-ActReason",
              "code": "TRAIN"
            }
          ],
          "tag": [
            {
              "system": "https://synderai.net/fhir/CodeSystem/tags",
              "code": "synthetic",
              "display": "SYNDERAI Synthetic data"
            }
          ],
          "profile": [
            "http://hl7.eu/fhir/base/StructureDefinition/patient-eu-core"
          ]
        },
        "identifier": [
          {
            "type": {
              "coding": [
                {
                  "code": "PT",
                  "system": "http://terminology.hl7.org/CodeSystem/v2-0203"
                }
              ]
            },
            "system": "http://ec.europa.eu/identifier/eci",
            "value": "6886-506417-1"
          },
          {
            "type": {
              "coding": [
                {
                  "code": "MR",
                  "system": "http://terminology.hl7.org/CodeSystem/v2-0203"
                }
              ]
            },
            "system": "http://local.setting.eu/identifier",
            "value": "2cb21ed6-b617-b1f3-2290-589a710de5ee"
          }
        ],
        "name": [
          {
            "family": "Nohlmans"
          },
          {
            "given": [
              "Maria"
            ]
          },
          {
            "text": "Maria Nohlmans"
          }
        ],
        "address": [
          {
            "line": [
              "Alfons-Wulff-Weg 1"
            ],
            "use": "home",
            "type": "physical",
            "postalCode": "25813",
            "city": "Husum",
            "country": "Germany"
          }
        ],
        "telecom": [
          {
            "system": "phone",
            "value": "+49(0)1911 105501"
          }
        ],
        "extension": [
          {
            "url": "http://hl7.org/fhir/StructureDefinition/patient-nationality",
            "valueCodeableConcept": {
              "coding": [
                {
                  "code": "DE",
                  "system": "http://hl7.org/fhir/ValueSet/country"
                }
              ]
            }
          }
        ],
        "text": {
          "status": "generated",
          "div": "<div xmlns=\"http://www.w3.org/1999/xhtml\"><table class=\"hl7__ips\"><tr><td>Maria Nohlmans</td><td>female</td><td>11-Jun-1947</td></tr></table></div>"
        },
        "gender": "female",
        "birthDate": "1947-06-11"
      }
    },
    {
      "fullUrl": "urn:uuid:25c460e2-49b6-42e6-8b2c-ebac3773d357",
      "resource": {
        "resourceType": "ServiceRequest",
        "id": "25c460e2-49b6-42e6-8b2c-ebac3773d357",
        "meta": {
          "profile": [
            "http://hl7.eu/fhir/laboratory/StructureDefinition/ServiceRequest-eu-lab"
          ]
        },
        "identifier": [
          {
            "system": "http://example.org",
            "value": "af27a8aa-61af-44e5-9069-feb128494fb0"
          }
        ],
        "specimen": [
          {
            "reference": "urn:uuid:5cb5d458-609a-45e4-93c6-7a7509bc378b"
          },
          {
            "reference": "urn:uuid:80998c75-e187-46fa-b353-c8dfa74f4d36"
          },
          {
            "reference": "urn:uuid:e549c0e4-53e9-44cb-9061-80cc4e22f919"
          },
          {
            "reference": "urn:uuid:45365082-9656-4718-9912-d6632ad30dcc"
          }
        ],
        "reasonCode": [
          {
            "coding": [
              {
                "code": "401314000",
                "system": "http://snomed.info/sct",
                "display": "Acute non-ST segment elevation myocardial infarction"
              }
            ]
          },
          {
            "coding": [
              {
                "code": "157141000119108",
                "system": "http://snomed.info/sct",
                "display": "Proteinuria due to type 2 diabetes mellitus"
              }
            ]
          },
          {
            "coding": [
              {
                "code": "237602007",
                "system": "http://snomed.info/sct",
                "display": "Metabolic syndrome X"
              }
            ]
          },
          {
            "coding": [
              {
                "code": "90781000119102",
                "system": "http://snomed.info/sct",
                "display": "Microalbuminuria due to type 2 diabetes mellitus"
              }
            ]
          },
          {
            "coding": [
              {
                "code": "127013003",
                "system": "http://snomed.info/sct",
                "display": "Disorder of kidney due to diabetes mellitus"
              }
            ]
          },
          {
            "coding": [
              {
                "code": "59621000",
                "system": "http://snomed.info/sct",
                "display": "Essential hypertension"
              }
            ]
          },
          {
            "coding": [
              {
                "code": "271737000",
                "system": "http://snomed.info/sct",
                "display": "Anemia"
              }
            ]
          },
          {
            "coding": [
              {
                "code": "15777000",
                "system": "http://snomed.info/sct",
                "display": "Prediabetes"
              }
            ]
          }
        ],
        "status": "active",
        "intent": "order",
        "code": {
          "coding": [
            {
              "code": "108252007",
              "system": "http://snomed.info/sct",
              "display": "Laboratory procedure"
            }
          ]
        },
        "subject": {
          "reference": "urn:uuid:66e05901-c156-4763-b294-f500bb44c47d",
          "display": "Maria Nohlmans"
        },
        "requester": {
          "reference": "urn:uuid:ec50a78f-7a4a-4c15-9a87-36c07571e8e9"
        }
      }
    },
    {
      "fullUrl": "urn:uuid:ec50a78f-7a4a-4c15-9a87-36c07571e8e9",
      "resource": {
        "resourceType": "PractitionerRole",
        "id": "ec50a78f-7a4a-4c15-9a87-36c07571e8e9",
        "meta": {
          "profile": [
            "http://hl7.eu/fhir/base/StructureDefinition/practitionerRole-eu"
          ]
        },
        "text": {
          "status": "generated",
          "div": "<div xmlns=\"http://www.w3.org/1999/xhtml\">Provider Role Id: ec50a78f-7a4a-4c15-9a87-36c07571e8e9</div>"
        },
        "organization": {
          "reference": "urn:uuid:38c0d3a1-685f-4958-b881-92a6981b1a63"
        }
      }
    },
    {
      "fullUrl": "urn:uuid:38c0d3a1-685f-4958-b881-92a6981b1a63",
      "resource": {
        "resourceType": "Organization",
        "id": "38c0d3a1-685f-4958-b881-92a6981b1a63",
        "meta": {
          "profile": [
            "http://hl7.eu/fhir/base/StructureDefinition/organization-eu"
          ]
        },
        "identifier": [
          {
            "assigner": {
              "display": "HL7 Europe"
            },
            "system": "urn:oid:2.16.840.1.113883.2.51.999",
            "value": "621d36f7-4878-4cae-a95e-d964cfe15fdb"
          }
        ],
        "address": [
          {
            "line": [
              "Brinckmannstraße 35"
            ],
            "city": "Husum",
            "postalCode": "25813",
            "country": "Germany"
          }
        ],
        "text": {
          "status": "generated",
          "div": "<div xmlns=\"http://www.w3.org/1999/xhtml\">Provider Organization: Dr. Wolfram Hussels Kieferorthopäde</div>"
        },
        "name": "Dr. Wolfram Hussels Kieferorthopäde"
      }
    },
    {
      "fullUrl": "urn:uuid:5cb5d458-609a-45e4-93c6-7a7509bc378b",
      "resource": {
        "resourceType": "Specimen",
        "id": "5cb5d458-609a-45e4-93c6-7a7509bc378b",
        "meta": {
          "profile": [
            "http://hl7.eu/fhir/laboratory/StructureDefinition/Specimen-eu-lab"
          ]
        },
        "collection": {
          "collectedDateTime": "2017-10-30"
        },
        "text": {
          "status": "generated",
          "div": "<div xmlns=\"http://www.w3.org/1999/xhtml\"><table class=\"hl7__eu__lab__report\"><tr><th>Specimen</th><th>Collection Date</th></tr><tr><td>Whole blood specimen (specimen)</td><td><span class=\"nb\">30-Oct-2017</span></td></tr></table></div>"
        },
        "type": {
          "coding": [
            {
              "code": "258580003",
              "system": "http://snomed.info/sct",
              "display": "Whole blood specimen (specimen)"
            }
          ]
        }
      }
    },
    {
      "fullUrl": "urn:uuid:80998c75-e187-46fa-b353-c8dfa74f4d36",
      "resource": {
        "resourceType": "Specimen",
        "id": "80998c75-e187-46fa-b353-c8dfa74f4d36",
        "meta": {
          "profile": [
            "http://hl7.eu/fhir/laboratory/StructureDefinition/Specimen-eu-lab"
          ]
        },
        "collection": {
          "collectedDateTime": "2017-10-30"
        },
        "text": {
          "status": "generated",
          "div": "<div xmlns=\"http://www.w3.org/1999/xhtml\"><table class=\"hl7__eu__lab__report\"><tr><th>Specimen</th><th>Collection Date</th></tr><tr><td>Acellular blood (serum or plasma) specimen</td><td><span class=\"nb\">30-Oct-2017</span></td></tr></table></div>"
        },
        "type": {
          "coding": [
            {
              "code": "122592007",
              "system": "http://snomed.info/sct",
              "display": "Acellular blood (serum or plasma) specimen"
            }
          ]
        }
      }
    },
    {
      "fullUrl": "urn:uuid:e549c0e4-53e9-44cb-9061-80cc4e22f919",
      "resource": {
        "resourceType": "Specimen",
        "id": "e549c0e4-53e9-44cb-9061-80cc4e22f919",
        "meta": {
          "profile": [
            "http://hl7.eu/fhir/laboratory/StructureDefinition/Specimen-eu-lab"
          ]
        },
        "collection": {
          "collectedDateTime": "2017-10-30"
        },
        "text": {
          "status": "generated",
          "div": "<div xmlns=\"http://www.w3.org/1999/xhtml\"><table class=\"hl7__eu__lab__report\"><tr><th>Specimen</th><th>Collection Date</th></tr><tr><td>Serum specimen</td><td><span class=\"nb\">30-Oct-2017</span></td></tr></table></div>"
        },
        "type": {
          "coding": [
            {
              "code": "119364003",
              "system": "http://snomed.info/sct",
              "display": "Serum specimen"
            }
          ]
        }
      }
    },
    {
      "fullUrl": "urn:uuid:45365082-9656-4718-9912-d6632ad30dcc",
      "resource": {
        "resourceType": "Specimen",
        "id": "45365082-9656-4718-9912-d6632ad30dcc",
        "meta": {
          "profile": [
            "http://hl7.eu/fhir/laboratory/StructureDefinition/Specimen-eu-lab"
          ]
        },
        "collection": {
          "collectedDateTime": "2017-10-30"
        },
        "text": {
          "status": "generated",
          "div": "<div xmlns=\"http://www.w3.org/1999/xhtml\"><table class=\"hl7__eu__lab__report\"><tr><th>Specimen</th><th>Collection Date</th></tr><tr><td>Urine specimen</td><td><span class=\"nb\">30-Oct-2017</span></td></tr></table></div>"
        },
        "type": {
          "coding": [
            {
              "code": "122575003",
              "system": "http://snomed.info/sct",
              "display": "Urine specimen"
            }
          ]
        }
      }
    },
    {
      "fullUrl": "urn:uuid:bf3957df-0132-4e8e-8935-56c3bfd6789d",
      "resource": {
        "resourceType": "Observation",
        "id": "bf3957df-0132-4e8e-8935-56c3bfd6789d",
        "meta": {
          "profile": [
            "http://hl7.eu/fhir/laboratory/StructureDefinition/Observation-resultslab-eu-lab"
          ]
        },
        "performer": [
          {
            "display": "The Central European Lab"
          }
        ],
        "category": [
          {
            "coding": [
              {
                "system": "http://terminology.hl7.org/CodeSystem/observation-category",
                "code": "laboratory"
              }
            ]
          }
        ],
        "code": {
          "coding": [
            {
              "code": "2339-0",
              "system": "http://loinc.org",
              "display": "Glucose [Mass/volume] in Blood"
            }
          ],
          "text": "Glucose [Mass/volume] in Blood"
        },
        "valueQuantity": {
          "system": "http://unitsofmeasure.org",
          "value": 64.6,
          "unit": "mg/dL",
          "code": "mg/dL"
        },
        "referenceRange": [
          {
            "low": {
              "value": 70,
              "code": "mg/dL",
              "system": "http://unitsofmeasure.org"
            }
          },
          {
            "high": {
              "value": 140,
              "code": "mg/dL",
              "system": "http://unitsofmeasure.org"
            }
          }
        ],
        "interpretation": [
          {
            "coding": [
              {
                "code": "L",
                "system": "http://terminology.hl7.org/CodeSystem/v3-ObservationInterpretation",
                "display": "Low"
              }
            ]
          }
        ],
        "text": {
          "status": "generated",
          "div": "<div xmlns=\"http://www.w3.org/1999/xhtml\"><table class=\"hl7__eu__lab__report\"><tr><th>Test</th><th>30-Oct-2017</th><th>Reference&#xA0;Range</th><th>Unit</th></tr><tr><td>Glucose [Mass/volume] in Blood</td><td>64.6</td><td>70 - 140</td><td>L</td><td>mg/dL</td></tr></table></div>"
        },
        "status": "final",
        "subject": {
          "reference": "urn:uuid:66e05901-c156-4763-b294-f500bb44c47d",
          "display": "Maria Nohlmans"
        },
        "effectiveDateTime": "2017-10-30T00:27:39Z",
        "specimen": {
          "reference": "urn:uuid:5cb5d458-609a-45e4-93c6-7a7509bc378b"
        }
      }
    },
    {
      "fullUrl": "urn:uuid:1281edd8-41a1-4956-8963-6ea40146477a",
      "resource": {
        "resourceType": "Observation",
        "id": "1281edd8-41a1-4956-8963-6ea40146477a",
        "meta": {
          "profile": [
            "http://hl7.eu/fhir/laboratory/StructureDefinition/Observation-resultslab-eu-lab"
          ]
        },
        "performer": [
          {
            "display": "The Central European Lab"
          }
        ],
        "category": [
          {
            "coding": [
              {
                "system": "http://terminology.hl7.org/CodeSystem/observation-category",
                "code": "laboratory"
              }
            ]
          }
        ],
        "code": {
          "coding": [
            {
              "code": "6299-2",
              "system": "http://loinc.org",
              "display": "Urea nitrogen [Mass/volume] in Blood"
            }
          ],
          "text": "Urea nitrogen [Mass/volume] in Blood"
        },
        "valueQuantity": {
          "system": "http://unitsofmeasure.org",
          "value": 13.8,
          "unit": "mg/dL",
          "code": "mg/dL"
        },
        "referenceRange": [
          {
            "low": {
              "value": 7,
              "code": "mg/dL",
              "system": "http://unitsofmeasure.org"
            }
          },
          {
            "high": {
              "value": 30,
              "code": "mg/dL",
              "system": "http://unitsofmeasure.org"
            }
          }
        ],
        "text": {
          "status": "generated",
          "div": "<div xmlns=\"http://www.w3.org/1999/xhtml\"><table class=\"hl7__eu__lab__report\"><tr><th>Test</th><th>30-Oct-2017</th><th>Reference&#xA0;Range</th><th>Unit</th></tr><tr><td>Urea nitrogen [Mass/volume] in Blood</td><td>13.8</td><td>7 - 30</td><td></td><td>mg/dL</td></tr></table></div>"
        },
        "status": "final",
        "subject": {
          "reference": "urn:uuid:66e05901-c156-4763-b294-f500bb44c47d",
          "display": "Maria Nohlmans"
        },
        "effectiveDateTime": "2017-10-30T00:27:39Z",
        "specimen": {
          "reference": "urn:uuid:5cb5d458-609a-45e4-93c6-7a7509bc378b"
        }
      }
    },
    {
      "fullUrl": "urn:uuid:c7465592-d58b-417b-a12c-ccad343be24c",
      "resource": {
        "resourceType": "Observation",
        "id": "c7465592-d58b-417b-a12c-ccad343be24c",
        "meta": {
          "profile": [
            "http://hl7.eu/fhir/laboratory/StructureDefinition/Observation-resultslab-eu-lab"
          ]
        },
        "performer": [
          {
            "display": "The Central European Lab"
          }
        ],
        "category": [
          {
            "coding": [
              {
                "system": "http://terminology.hl7.org/CodeSystem/observation-category",
                "code": "laboratory"
              }
            ]
          }
        ],
        "code": {
          "coding": [
            {
              "code": "38483-4",
              "system": "http://loinc.org",
              "display": "Creatinine [Mass/volume] in Blood"
            }
          ],
          "text": "Creatinine [Mass/volume] in Blood"
        },
        "valueQuantity": {
          "system": "http://unitsofmeasure.org",
          "value": 2.5,
          "unit": "mg/dL",
          "code": "mg/dL"
        },
        "referenceRange": [
          {
            "low": {
              "value": 0.5,
              "code": "mg/dL",
              "system": "http://unitsofmeasure.org"
            }
          },
          {
            "high": {
              "value": 1.3,
              "code": "mg/dL",
              "system": "http://unitsofmeasure.org"
            }
          }
        ],
        "interpretation": [
          {
            "coding": [
              {
                "code": "H",
                "system": "http://terminology.hl7.org/CodeSystem/v3-ObservationInterpretation",
                "display": "High"
              }
            ]
          }
        ],
        "text": {
          "status": "generated",
          "div": "<div xmlns=\"http://www.w3.org/1999/xhtml\"><table class=\"hl7__eu__lab__report\"><tr><th>Test</th><th>30-Oct-2017</th><th>Reference&#xA0;Range</th><th>Unit</th></tr><tr><td>Creatinine [Mass/volume] in Blood</td><td>2.5</td><td>0.5 - 1.3</td><td>H</td><td>mg/dL</td></tr></table></div>"
        },
        "status": "final",
        "subject": {
          "reference": "urn:uuid:66e05901-c156-4763-b294-f500bb44c47d",
          "display": "Maria Nohlmans"
        },
        "effectiveDateTime": "2017-10-30T00:27:39Z",
        "specimen": {
          "reference": "urn:uuid:5cb5d458-609a-45e4-93c6-7a7509bc378b"
        }
      }
    },
    {
      "fullUrl": "urn:uuid:2261abe2-83a7-43b0-b0f3-9b8d556bd0c6",
      "resource": {
        "resourceType": "Observation",
        "id": "2261abe2-83a7-43b0-b0f3-9b8d556bd0c6",
        "meta": {
          "profile": [
            "http://hl7.eu/fhir/laboratory/StructureDefinition/Observation-resultslab-eu-lab"
          ]
        },
        "performer": [
          {
            "display": "The Central European Lab"
          }
        ],
        "category": [
          {
            "coding": [
              {
                "system": "http://terminology.hl7.org/CodeSystem/observation-category",
                "code": "laboratory"
              }
            ]
          }
        ],
        "code": {
          "coding": [
            {
              "code": "49765-1",
              "system": "http://loinc.org",
              "display": "Calcium [Mass/volume] in Blood"
            }
          ],
          "text": "Calcium [Mass/volume] in Blood"
        },
        "valueQuantity": {
          "system": "http://unitsofmeasure.org",
          "value": 8.8,
          "unit": "mg/dL",
          "code": "mg/dL"
        },
        "referenceRange": [
          {
            "low": {
              "value": 8.6,
              "code": "mg/dL",
              "system": "http://unitsofmeasure.org"
            }
          },
          {
            "high": {
              "value": 10.2,
              "code": "mg/dL",
              "system": "http://unitsofmeasure.org"
            }
          }
        ],
        "text": {
          "status": "generated",
          "div": "<div xmlns=\"http://www.w3.org/1999/xhtml\"><table class=\"hl7__eu__lab__report\"><tr><th>Test</th><th>30-Oct-2017</th><th>Reference&#xA0;Range</th><th>Unit</th></tr><tr><td>Calcium [Mass/volume] in Blood</td><td>8.8</td><td>8.6 - 10.2</td><td></td><td>mg/dL</td></tr></table></div>"
        },
        "status": "final",
        "subject": {
          "reference": "urn:uuid:66e05901-c156-4763-b294-f500bb44c47d",
          "display": "Maria Nohlmans"
        },
        "effectiveDateTime": "2017-10-30T00:27:39Z",
        "specimen": {
          "reference": "urn:uuid:5cb5d458-609a-45e4-93c6-7a7509bc378b"
        }
      }
    },
    {
      "fullUrl": "urn:uuid:9b65c969-3388-4e0a-9a5a-ce8654bc718d",
      "resource": {
        "resourceType": "Observation",
        "id": "9b65c969-3388-4e0a-9a5a-ce8654bc718d",
        "meta": {
          "profile": [
            "http://hl7.eu/fhir/laboratory/StructureDefinition/Observation-resultslab-eu-lab"
          ]
        },
        "performer": [
          {
            "display": "The Central European Lab"
          }
        ],
        "category": [
          {
            "coding": [
              {
                "system": "http://terminology.hl7.org/CodeSystem/observation-category",
                "code": "laboratory"
              }
            ]
          }
        ],
        "code": {
          "coding": [
            {
              "code": "2947-0",
              "system": "http://loinc.org",
              "display": "Sodium [Moles/volume] in Blood"
            }
          ],
          "text": "Sodium [Moles/volume] in Blood"
        },
        "valueQuantity": {
          "system": "http://unitsofmeasure.org",
          "value": 141.5,
          "unit": "mmol/L",
          "code": "mmol/L"
        },
        "referenceRange": [
          {
            "low": {
              "value": 135,
              "code": "mmol/L",
              "system": "http://unitsofmeasure.org"
            }
          },
          {
            "high": {
              "value": 145,
              "code": "mmol/L",
              "system": "http://unitsofmeasure.org"
            }
          }
        ],
        "text": {
          "status": "generated",
          "div": "<div xmlns=\"http://www.w3.org/1999/xhtml\"><table class=\"hl7__eu__lab__report\"><tr><th>Test</th><th>30-Oct-2017</th><th>Reference&#xA0;Range</th><th>Unit</th></tr><tr><td>Sodium [Moles/volume] in Blood</td><td>141.5</td><td>135 - 145</td><td></td><td>mmol/L</td></tr></table></div>"
        },
        "status": "final",
        "subject": {
          "reference": "urn:uuid:66e05901-c156-4763-b294-f500bb44c47d",
          "display": "Maria Nohlmans"
        },
        "effectiveDateTime": "2017-10-30T00:27:39Z",
        "specimen": {
          "reference": "urn:uuid:5cb5d458-609a-45e4-93c6-7a7509bc378b"
        }
      }
    },
    {
      "fullUrl": "urn:uuid:ced0a73d-6850-415a-83ea-b0c64df9e120",
      "resource": {
        "resourceType": "Observation",
        "id": "ced0a73d-6850-415a-83ea-b0c64df9e120",
        "meta": {
          "profile": [
            "http://hl7.eu/fhir/laboratory/StructureDefinition/Observation-resultslab-eu-lab"
          ]
        },
        "performer": [
          {
            "display": "The Central European Lab"
          }
        ],
        "category": [
          {
            "coding": [
              {
                "system": "http://terminology.hl7.org/CodeSystem/observation-category",
                "code": "laboratory"
              }
            ]
          }
        ],
        "code": {
          "coding": [
            {
              "code": "6298-4",
              "system": "http://loinc.org",
              "display": "Potassium [Moles/volume] in Blood"
            }
          ],
          "text": "Potassium [Moles/volume] in Blood"
        },
        "valueQuantity": {
          "system": "http://unitsofmeasure.org",
          "value": 4.3,
          "unit": "mmol/L",
          "code": "mmol/L"
        },
        "referenceRange": [
          {
            "low": {
              "value": 3.5,
              "code": "mmol/L",
              "system": "http://unitsofmeasure.org"
            }
          },
          {
            "high": {
              "value": 5.1,
              "code": "mmol/L",
              "system": "http://unitsofmeasure.org"
            }
          }
        ],
        "text": {
          "status": "generated",
          "div": "<div xmlns=\"http://www.w3.org/1999/xhtml\"><table class=\"hl7__eu__lab__report\"><tr><th>Test</th><th>30-Oct-2017</th><th>Reference&#xA0;Range</th><th>Unit</th></tr><tr><td>Potassium [Moles/volume] in Blood</td><td>4.3</td><td>3.5 - 5.1</td><td></td><td>mmol/L</td></tr></table></div>"
        },
        "status": "final",
        "subject": {
          "reference": "urn:uuid:66e05901-c156-4763-b294-f500bb44c47d",
          "display": "Maria Nohlmans"
        },
        "effectiveDateTime": "2017-10-30T00:27:39Z",
        "specimen": {
          "reference": "urn:uuid:5cb5d458-609a-45e4-93c6-7a7509bc378b"
        }
      }
    },
    {
      "fullUrl": "urn:uuid:939488b7-03fc-4677-9926-38a7b3b88f07",
      "resource": {
        "resourceType": "Observation",
        "id": "939488b7-03fc-4677-9926-38a7b3b88f07",
        "meta": {
          "profile": [
            "http://hl7.eu/fhir/laboratory/StructureDefinition/Observation-resultslab-eu-lab"
          ]
        },
        "performer": [
          {
            "display": "The Central European Lab"
          }
        ],
        "category": [
          {
            "coding": [
              {
                "system": "http://terminology.hl7.org/CodeSystem/observation-category",
                "code": "laboratory"
              }
            ]
          }
        ],
        "code": {
          "coding": [
            {
              "code": "2069-3",
              "system": "http://loinc.org",
              "display": "Chloride [Moles/volume] in Blood"
            }
          ],
          "text": "Chloride [Moles/volume] in Blood"
        },
        "valueQuantity": {
          "system": "http://unitsofmeasure.org",
          "value": 103.2,
          "unit": "mmol/L",
          "code": "mmol/L"
        },
        "referenceRange": [
          {
            "low": {
              "value": 98,
              "code": "mmol/L",
              "system": "http://unitsofmeasure.org"
            }
          },
          {
            "high": {
              "value": 114,
              "code": "mmol/L",
              "system": "http://unitsofmeasure.org"
            }
          }
        ],
        "text": {
          "status": "generated",
          "div": "<div xmlns=\"http://www.w3.org/1999/xhtml\"><table class=\"hl7__eu__lab__report\"><tr><th>Test</th><th>30-Oct-2017</th><th>Reference&#xA0;Range</th><th>Unit</th></tr><tr><td>Chloride [Moles/volume] in Blood</td><td>103.2</td><td>98 - 114</td><td></td><td>mmol/L</td></tr></table></div>"
        },
        "status": "final",
        "subject": {
          "reference": "urn:uuid:66e05901-c156-4763-b294-f500bb44c47d",
          "display": "Maria Nohlmans"
        },
        "effectiveDateTime": "2017-10-30T00:27:39Z",
        "specimen": {
          "reference": "urn:uuid:5cb5d458-609a-45e4-93c6-7a7509bc378b"
        }
      }
    },
    {
      "fullUrl": "urn:uuid:fda6e34f-6613-4916-95a9-bee1d1fe8b33",
      "resource": {
        "resourceType": "Observation",
        "id": "fda6e34f-6613-4916-95a9-bee1d1fe8b33",
        "meta": {
          "profile": [
            "http://hl7.eu/fhir/laboratory/StructureDefinition/Observation-resultslab-eu-lab"
          ]
        },
        "performer": [
          {
            "display": "The Central European Lab"
          }
        ],
        "category": [
          {
            "coding": [
              {
                "system": "http://terminology.hl7.org/CodeSystem/observation-category",
                "code": "laboratory"
              }
            ]
          }
        ],
        "code": {
          "coding": [
            {
              "code": "20565-8",
              "system": "http://loinc.org",
              "display": "Carbon dioxide, total [Moles/volume] in Blood"
            }
          ],
          "text": "Carbon dioxide, total [Moles/volume] in Blood"
        },
        "valueQuantity": {
          "system": "http://unitsofmeasure.org",
          "value": 25.7,
          "unit": "mmol/L",
          "code": "mmol/L"
        },
        "referenceRange": [
          {
            "low": {
              "value": 22,
              "code": "mmol/L",
              "system": "http://unitsofmeasure.org"
            }
          },
          {
            "high": {
              "value": 32,
              "code": "mmol/L",
              "system": "http://unitsofmeasure.org"
            }
          }
        ],
        "text": {
          "status": "generated",
          "div": "<div xmlns=\"http://www.w3.org/1999/xhtml\"><table class=\"hl7__eu__lab__report\"><tr><th>Test</th><th>30-Oct-2017</th><th>Reference&#xA0;Range</th><th>Unit</th></tr><tr><td>Carbon dioxide, total [Moles/volume] in Blood</td><td>25.7</td><td>22 - 32</td><td></td><td>mmol/L</td></tr></table></div>"
        },
        "status": "final",
        "subject": {
          "reference": "urn:uuid:66e05901-c156-4763-b294-f500bb44c47d",
          "display": "Maria Nohlmans"
        },
        "effectiveDateTime": "2017-10-30T00:27:39Z",
        "specimen": {
          "reference": "urn:uuid:5cb5d458-609a-45e4-93c6-7a7509bc378b"
        }
      }
    },
    {
      "fullUrl": "urn:uuid:481943ff-c894-42b8-9270-64ebe4d73883",
      "resource": {
        "resourceType": "Observation",
        "id": "481943ff-c894-42b8-9270-64ebe4d73883",
        "meta": {
          "profile": [
            "http://hl7.eu/fhir/laboratory/StructureDefinition/Observation-resultslab-eu-lab"
          ]
        },
        "performer": [
          {
            "display": "The Central European Lab"
          }
        ],
        "category": [
          {
            "coding": [
              {
                "system": "http://terminology.hl7.org/CodeSystem/observation-category",
                "code": "laboratory"
              }
            ]
          }
        ],
        "code": {
          "coding": [
            {
              "code": "2885-2",
              "system": "http://loinc.org",
              "display": "Protein [Mass/volume] in Serum or Plasma"
            }
          ],
          "text": "Protein [Mass/volume] in Serum or Plasma"
        },
        "valueQuantity": {
          "system": "http://unitsofmeasure.org",
          "value": 6.5,
          "unit": "g/dL",
          "code": "g/dL"
        },
        "referenceRange": [
          {
            "low": {
              "value": 6,
              "code": "g/dL",
              "system": "http://unitsofmeasure.org"
            }
          },
          {
            "high": {
              "value": 8.3,
              "code": "g/dL",
              "system": "http://unitsofmeasure.org"
            }
          }
        ],
        "text": {
          "status": "generated",
          "div": "<div xmlns=\"http://www.w3.org/1999/xhtml\"><table class=\"hl7__eu__lab__report\"><tr><th>Test</th><th>30-Oct-2017</th><th>Reference&#xA0;Range</th><th>Unit</th></tr><tr><td>Protein [Mass/volume] in Serum or Plasma</td><td>6.5</td><td>6 - 8.3</td><td></td><td>g/dL</td></tr></table></div>"
        },
        "status": "final",
        "subject": {
          "reference": "urn:uuid:66e05901-c156-4763-b294-f500bb44c47d",
          "display": "Maria Nohlmans"
        },
        "effectiveDateTime": "2017-10-30T00:27:39Z",
        "specimen": {
          "reference": "urn:uuid:80998c75-e187-46fa-b353-c8dfa74f4d36"
        }
      }
    },
    {
      "fullUrl": "urn:uuid:3bbed9b7-3ebd-44e5-ab31-b6ccdd563b58",
      "resource": {
        "resourceType": "Observation",
        "id": "3bbed9b7-3ebd-44e5-ab31-b6ccdd563b58",
        "meta": {
          "profile": [
            "http://hl7.eu/fhir/laboratory/StructureDefinition/Observation-resultslab-eu-lab"
          ]
        },
        "performer": [
          {
            "display": "The Central European Lab"
          }
        ],
        "category": [
          {
            "coding": [
              {
                "system": "http://terminology.hl7.org/CodeSystem/observation-category",
                "code": "laboratory"
              }
            ]
          }
        ],
        "code": {
          "coding": [
            {
              "code": "1751-7",
              "system": "http://loinc.org",
              "display": "Albumin [Mass/volume] in Serum or Plasma"
            }
          ],
          "text": "Albumin [Mass/volume] in Serum or Plasma"
        },
        "valueQuantity": {
          "system": "http://unitsofmeasure.org",
          "value": 4,
          "unit": "g/dL",
          "code": "g/dL"
        },
        "referenceRange": [
          {
            "low": {
              "value": 3.5,
              "code": "g/dL",
              "system": "http://unitsofmeasure.org"
            }
          },
          {
            "high": {
              "value": 5.5,
              "code": "g/dL",
              "system": "http://unitsofmeasure.org"
            }
          }
        ],
        "text": {
          "status": "generated",
          "div": "<div xmlns=\"http://www.w3.org/1999/xhtml\"><table class=\"hl7__eu__lab__report\"><tr><th>Test</th><th>30-Oct-2017</th><th>Reference&#xA0;Range</th><th>Unit</th></tr><tr><td>Albumin [Mass/volume] in Serum or Plasma</td><td>4.0</td><td>3.5 - 5.5</td><td></td><td>g/dL</td></tr></table></div>"
        },
        "status": "final",
        "subject": {
          "reference": "urn:uuid:66e05901-c156-4763-b294-f500bb44c47d",
          "display": "Maria Nohlmans"
        },
        "effectiveDateTime": "2017-10-30T00:27:39Z",
        "specimen": {
          "reference": "urn:uuid:80998c75-e187-46fa-b353-c8dfa74f4d36"
        }
      }
    },
    {
      "fullUrl": "urn:uuid:fe300df7-ce5e-452d-bbd5-0385d32379d9",
      "resource": {
        "resourceType": "Observation",
        "id": "fe300df7-ce5e-452d-bbd5-0385d32379d9",
        "meta": {
          "profile": [
            "http://hl7.eu/fhir/laboratory/StructureDefinition/Observation-resultslab-eu-lab"
          ]
        },
        "performer": [
          {
            "display": "The Central European Lab"
          }
        ],
        "category": [
          {
            "coding": [
              {
                "system": "http://terminology.hl7.org/CodeSystem/observation-category",
                "code": "laboratory"
              }
            ]
          }
        ],
        "code": {
          "coding": [
            {
              "code": "10834-0",
              "system": "http://loinc.org",
              "display": "Globulin [Mass/volume] in Serum by calculation"
            }
          ],
          "text": "Globulin [Mass/volume] in Serum by calculation"
        },
        "valueQuantity": {
          "system": "http://unitsofmeasure.org",
          "value": 3.5,
          "unit": "g/L",
          "code": "g/L"
        },
        "referenceRange": [
          {
            "low": {
              "value": 2,
              "code": "g/L",
              "system": "http://unitsofmeasure.org"
            }
          },
          {
            "high": {
              "value": 3.5,
              "code": "g/L",
              "system": "http://unitsofmeasure.org"
            }
          }
        ],
        "text": {
          "status": "generated",
          "div": "<div xmlns=\"http://www.w3.org/1999/xhtml\"><table class=\"hl7__eu__lab__report\"><tr><th>Test</th><th>30-Oct-2017</th><th>Reference&#xA0;Range</th><th>Unit</th></tr><tr><td>Globulin [Mass/volume] in Serum by calculation</td><td>3.5</td><td>2 - 3.5</td><td></td><td>g/L</td></tr></table></div>"
        },
        "status": "final",
        "subject": {
          "reference": "urn:uuid:66e05901-c156-4763-b294-f500bb44c47d",
          "display": "Maria Nohlmans"
        },
        "effectiveDateTime": "2017-10-30T00:27:39Z",
        "specimen": {
          "reference": "urn:uuid:e549c0e4-53e9-44cb-9061-80cc4e22f919"
        }
      }
    },
    {
      "fullUrl": "urn:uuid:6d99e96d-db29-41c2-bcaf-a7351b1a9476",
      "resource": {
        "resourceType": "Observation",
        "id": "6d99e96d-db29-41c2-bcaf-a7351b1a9476",
        "meta": {
          "profile": [
            "http://hl7.eu/fhir/laboratory/StructureDefinition/Observation-resultslab-eu-lab"
          ]
        },
        "performer": [
          {
            "display": "The Central European Lab"
          }
        ],
        "category": [
          {
            "coding": [
              {
                "system": "http://terminology.hl7.org/CodeSystem/observation-category",
                "code": "laboratory"
              }
            ]
          }
        ],
        "code": {
          "coding": [
            {
              "code": "1975-2",
              "system": "http://loinc.org",
              "display": "Bilirubin.total [Mass/volume] in Serum or Plasma"
            }
          ],
          "text": "Bilirubin.total [Mass/volume] in Serum or Plasma"
        },
        "valueQuantity": {
          "system": "http://unitsofmeasure.org",
          "value": 0.7,
          "unit": "mg/dL",
          "code": "mg/dL"
        },
        "referenceRange": [
          {
            "low": {
              "value": 0.3,
              "code": "mg/dL",
              "system": "http://unitsofmeasure.org"
            }
          },
          {
            "high": {
              "value": 1.2,
              "code": "mg/dL",
              "system": "http://unitsofmeasure.org"
            }
          }
        ],
        "text": {
          "status": "generated",
          "div": "<div xmlns=\"http://www.w3.org/1999/xhtml\"><table class=\"hl7__eu__lab__report\"><tr><th>Test</th><th>30-Oct-2017</th><th>Reference&#xA0;Range</th><th>Unit</th></tr><tr><td>Bilirubin.total [Mass/volume] in Serum or Plasma</td><td>0.7</td><td>0.3 - 1.2</td><td></td><td>mg/dL</td></tr></table></div>"
        },
        "status": "final",
        "subject": {
          "reference": "urn:uuid:66e05901-c156-4763-b294-f500bb44c47d",
          "display": "Maria Nohlmans"
        },
        "effectiveDateTime": "2017-10-30T00:27:39Z",
        "specimen": {
          "reference": "urn:uuid:80998c75-e187-46fa-b353-c8dfa74f4d36"
        }
      }
    },
    {
      "fullUrl": "urn:uuid:55a70c41-4c36-4596-867b-61b7cac704af",
      "resource": {
        "resourceType": "Observation",
        "id": "55a70c41-4c36-4596-867b-61b7cac704af",
        "meta": {
          "profile": [
            "http://hl7.eu/fhir/laboratory/StructureDefinition/Observation-resultslab-eu-lab"
          ]
        },
        "performer": [
          {
            "display": "The Central European Lab"
          }
        ],
        "category": [
          {
            "coding": [
              {
                "system": "http://terminology.hl7.org/CodeSystem/observation-category",
                "code": "laboratory"
              }
            ]
          }
        ],
        "code": {
          "coding": [
            {
              "code": "6768-6",
              "system": "http://loinc.org",
              "display": "Alkaline phosphatase [Enzymatic activity/volume] in Serum or Plasma"
            }
          ],
          "text": "Alkaline phosphatase [Enzymatic activity/volume] in Serum or Plasma"
        },
        "valueQuantity": {
          "system": "http://unitsofmeasure.org",
          "value": 65.9,
          "unit": "U/L",
          "code": "U/L"
        },
        "referenceRange": [
          {
            "low": {
              "value": 44,
              "code": "U/L",
              "system": "http://unitsofmeasure.org"
            }
          },
          {
            "high": {
              "value": 142,
              "code": "U/L",
              "system": "http://unitsofmeasure.org"
            }
          }
        ],
        "text": {
          "status": "generated",
          "div": "<div xmlns=\"http://www.w3.org/1999/xhtml\"><table class=\"hl7__eu__lab__report\"><tr><th>Test</th><th>30-Oct-2017</th><th>Reference&#xA0;Range</th><th>Unit</th></tr><tr><td>Alkaline phosphatase [Enzymatic activity/volume] in Serum or Plasma</td><td>65.9</td><td>44 - 142</td><td></td><td>U/L</td></tr></table></div>"
        },
        "status": "final",
        "subject": {
          "reference": "urn:uuid:66e05901-c156-4763-b294-f500bb44c47d",
          "display": "Maria Nohlmans"
        },
        "effectiveDateTime": "2017-10-30T00:27:39Z",
        "specimen": {
          "reference": "urn:uuid:80998c75-e187-46fa-b353-c8dfa74f4d36"
        }
      }
    },
    {
      "fullUrl": "urn:uuid:12e82830-6f91-4cae-b0d5-663921ed6db9",
      "resource": {
        "resourceType": "Observation",
        "id": "12e82830-6f91-4cae-b0d5-663921ed6db9",
        "meta": {
          "profile": [
            "http://hl7.eu/fhir/laboratory/StructureDefinition/Observation-resultslab-eu-lab"
          ]
        },
        "performer": [
          {
            "display": "The Central European Lab"
          }
        ],
        "category": [
          {
            "coding": [
              {
                "system": "http://terminology.hl7.org/CodeSystem/observation-category",
                "code": "laboratory"
              }
            ]
          }
        ],
        "code": {
          "coding": [
            {
              "code": "1742-6",
              "system": "http://loinc.org",
              "display": "Alanine aminotransferase [Enzymatic activity/volume] in Serum or Plasma"
            }
          ],
          "text": "Alanine aminotransferase [Enzymatic activity/volume] in Serum or Plasma"
        },
        "valueQuantity": {
          "system": "http://unitsofmeasure.org",
          "value": 28.7,
          "unit": "U/L",
          "code": "U/L"
        },
        "referenceRange": [
          {
            "low": {
              "value": 7,
              "code": "U/L",
              "system": "http://unitsofmeasure.org"
            }
          },
          {
            "high": {
              "value": 40,
              "code": "U/L",
              "system": "http://unitsofmeasure.org"
            }
          }
        ],
        "text": {
          "status": "generated",
          "div": "<div xmlns=\"http://www.w3.org/1999/xhtml\"><table class=\"hl7__eu__lab__report\"><tr><th>Test</th><th>30-Oct-2017</th><th>Reference&#xA0;Range</th><th>Unit</th></tr><tr><td>Alanine aminotransferase [Enzymatic activity/volume] in Serum or Plasma</td><td>28.7</td><td>7 - 40</td><td></td><td>U/L</td></tr></table></div>"
        },
        "status": "final",
        "subject": {
          "reference": "urn:uuid:66e05901-c156-4763-b294-f500bb44c47d",
          "display": "Maria Nohlmans"
        },
        "effectiveDateTime": "2017-10-30T00:27:39Z",
        "specimen": {
          "reference": "urn:uuid:80998c75-e187-46fa-b353-c8dfa74f4d36"
        }
      }
    },
    {
      "fullUrl": "urn:uuid:9cd63660-1a32-457f-8eb5-88c992d48249",
      "resource": {
        "resourceType": "Observation",
        "id": "9cd63660-1a32-457f-8eb5-88c992d48249",
        "meta": {
          "profile": [
            "http://hl7.eu/fhir/laboratory/StructureDefinition/Observation-resultslab-eu-lab"
          ]
        },
        "performer": [
          {
            "display": "The Central European Lab"
          }
        ],
        "category": [
          {
            "coding": [
              {
                "system": "http://terminology.hl7.org/CodeSystem/observation-category",
                "code": "laboratory"
              }
            ]
          }
        ],
        "code": {
          "coding": [
            {
              "code": "1920-8",
              "system": "http://loinc.org",
              "display": "Aspartate aminotransferase [Enzymatic activity/volume] in Serum or Plasma"
            }
          ],
          "text": "Aspartate aminotransferase [Enzymatic activity/volume] in Serum or Plasma"
        },
        "valueQuantity": {
          "system": "http://unitsofmeasure.org",
          "value": 8.1,
          "unit": "U/L",
          "code": "U/L"
        },
        "referenceRange": [
          {
            "low": {
              "value": 10,
              "code": "U/L",
              "system": "http://unitsofmeasure.org"
            }
          },
          {
            "high": {
              "value": 40,
              "code": "U/L",
              "system": "http://unitsofmeasure.org"
            }
          }
        ],
        "interpretation": [
          {
            "coding": [
              {
                "code": "L",
                "system": "http://terminology.hl7.org/CodeSystem/v3-ObservationInterpretation",
                "display": "Low"
              }
            ]
          }
        ],
        "text": {
          "status": "generated",
          "div": "<div xmlns=\"http://www.w3.org/1999/xhtml\"><table class=\"hl7__eu__lab__report\"><tr><th>Test</th><th>30-Oct-2017</th><th>Reference&#xA0;Range</th><th>Unit</th></tr><tr><td>Aspartate aminotransferase [Enzymatic activity/volume] in Serum or Plasma</td><td>8.1</td><td>10 - 40</td><td>L</td><td>U/L</td></tr></table></div>"
        },
        "status": "final",
        "subject": {
          "reference": "urn:uuid:66e05901-c156-4763-b294-f500bb44c47d",
          "display": "Maria Nohlmans"
        },
        "effectiveDateTime": "2017-10-30T00:27:39Z",
        "specimen": {
          "reference": "urn:uuid:80998c75-e187-46fa-b353-c8dfa74f4d36"
        }
      }
    },
    {
      "fullUrl": "urn:uuid:cfd52ee5-fbfc-43b7-8381-0cc12cf04dae",
      "resource": {
        "resourceType": "Observation",
        "id": "cfd52ee5-fbfc-43b7-8381-0cc12cf04dae",
        "meta": {
          "profile": [
            "http://hl7.eu/fhir/laboratory/StructureDefinition/Observation-resultslab-eu-lab"
          ]
        },
        "performer": [
          {
            "display": "The Central European Lab"
          }
        ],
        "category": [
          {
            "coding": [
              {
                "system": "http://terminology.hl7.org/CodeSystem/observation-category",
                "code": "laboratory"
              }
            ]
          }
        ],
        "code": {
          "coding": [
            {
              "code": "5767-9",
              "system": "http://loinc.org",
              "display": "Appearance of Urine"
            }
          ],
          "text": "Appearance of Urine"
        },
        "text": {
          "status": "generated",
          "div": "<div xmlns=\"http://www.w3.org/1999/xhtml\"><table class=\"hl7__eu__lab__report\"><tr><th>Test</th><th>30-Oct-2017</th><th>Reference&#xA0;Range</th><th>Unit</th></tr><tr><td>Appearance of Urine</td></tr></table></div>"
        },
        "status": "final",
        "subject": {
          "reference": "urn:uuid:66e05901-c156-4763-b294-f500bb44c47d",
          "display": "Maria Nohlmans"
        },
        "effectiveDateTime": "2017-10-30T00:27:39Z",
        "specimen": {
          "reference": "urn:uuid:45365082-9656-4718-9912-d6632ad30dcc"
        }
      }
    },
    {
      "fullUrl": "urn:uuid:cb2d1c05-3b9b-4c37-8be4-84513e560480",
      "resource": {
        "resourceType": "Observation",
        "id": "cb2d1c05-3b9b-4c37-8be4-84513e560480",
        "meta": {
          "profile": [
            "http://hl7.eu/fhir/laboratory/StructureDefinition/Observation-resultslab-eu-lab"
          ]
        },
        "performer": [
          {
            "display": "The Central European Lab"
          }
        ],
        "category": [
          {
            "coding": [
              {
                "system": "http://terminology.hl7.org/CodeSystem/observation-category",
                "code": "laboratory"
              }
            ]
          }
        ],
        "code": {
          "coding": [
            {
              "code": "34533-0",
              "system": "http://loinc.org",
              "display": "Odor of Urine"
            }
          ],
          "text": "Odor of Urine"
        },
        "text": {
          "status": "generated",
          "div": "<div xmlns=\"http://www.w3.org/1999/xhtml\"><table class=\"hl7__eu__lab__report\"><tr><th>Test</th><th>30-Oct-2017</th><th>Reference&#xA0;Range</th><th>Unit</th></tr><tr><td>Odor of Urine</td></tr></table></div>"
        },
        "status": "final",
        "subject": {
          "reference": "urn:uuid:66e05901-c156-4763-b294-f500bb44c47d",
          "display": "Maria Nohlmans"
        },
        "effectiveDateTime": "2017-10-30T00:27:39Z",
        "specimen": {
          "reference": "urn:uuid:45365082-9656-4718-9912-d6632ad30dcc"
        }
      }
    },
    {
      "fullUrl": "urn:uuid:5d408111-8afa-456d-a1e4-b5ca09c25f53",
      "resource": {
        "resourceType": "Observation",
        "id": "5d408111-8afa-456d-a1e4-b5ca09c25f53",
        "meta": {
          "profile": [
            "http://hl7.eu/fhir/laboratory/StructureDefinition/Observation-resultslab-eu-lab"
          ]
        },
        "performer": [
          {
            "display": "The Central European Lab"
          }
        ],
        "category": [
          {
            "coding": [
              {
                "system": "http://terminology.hl7.org/CodeSystem/observation-category",
                "code": "laboratory"
              }
            ]
          }
        ],
        "code": {
          "coding": [
            {
              "code": "32167-9",
              "system": "http://loinc.org",
              "display": "Clarity of Urine"
            }
          ],
          "text": "Clarity of Urine"
        },
        "text": {
          "status": "generated",
          "div": "<div xmlns=\"http://www.w3.org/1999/xhtml\"><table class=\"hl7__eu__lab__report\"><tr><th>Test</th><th>30-Oct-2017</th><th>Reference&#xA0;Range</th><th>Unit</th></tr><tr><td>Clarity of Urine</td></tr></table></div>"
        },
        "status": "final",
        "subject": {
          "reference": "urn:uuid:66e05901-c156-4763-b294-f500bb44c47d",
          "display": "Maria Nohlmans"
        },
        "effectiveDateTime": "2017-10-30T00:27:39Z",
        "specimen": {
          "reference": "urn:uuid:45365082-9656-4718-9912-d6632ad30dcc"
        }
      }
    },
    {
      "fullUrl": "urn:uuid:aa52579c-cbf6-4737-97f4-6b87dec236b6",
      "resource": {
        "resourceType": "Observation",
        "id": "aa52579c-cbf6-4737-97f4-6b87dec236b6",
        "meta": {
          "profile": [
            "http://hl7.eu/fhir/laboratory/StructureDefinition/Observation-resultslab-eu-lab"
          ]
        },
        "performer": [
          {
            "display": "The Central European Lab"
          }
        ],
        "category": [
          {
            "coding": [
              {
                "system": "http://terminology.hl7.org/CodeSystem/observation-category",
                "code": "laboratory"
              }
            ]
          }
        ],
        "code": {
          "coding": [
            {
              "code": "5778-6",
              "system": "http://loinc.org",
              "display": "Color of Urine"
            }
          ],
          "text": "Color of Urine"
        },
        "text": {
          "status": "generated",
          "div": "<div xmlns=\"http://www.w3.org/1999/xhtml\"><table class=\"hl7__eu__lab__report\"><tr><th>Test</th><th>30-Oct-2017</th><th>Reference&#xA0;Range</th><th>Unit</th></tr><tr><td>Color of Urine</td></tr></table></div>"
        },
        "status": "final",
        "subject": {
          "reference": "urn:uuid:66e05901-c156-4763-b294-f500bb44c47d",
          "display": "Maria Nohlmans"
        },
        "effectiveDateTime": "2017-10-30T00:27:39Z",
        "specimen": {
          "reference": "urn:uuid:45365082-9656-4718-9912-d6632ad30dcc"
        }
      }
    },
    {
      "fullUrl": "urn:uuid:d377a18f-aad9-41dc-8343-728a1ae6cb51",
      "resource": {
        "resourceType": "Observation",
        "id": "d377a18f-aad9-41dc-8343-728a1ae6cb51",
        "meta": {
          "profile": [
            "http://hl7.eu/fhir/laboratory/StructureDefinition/Observation-resultslab-eu-lab"
          ]
        },
        "performer": [
          {
            "display": "The Central European Lab"
          }
        ],
        "category": [
          {
            "coding": [
              {
                "system": "http://terminology.hl7.org/CodeSystem/observation-category",
                "code": "laboratory"
              }
            ]
          }
        ],
        "code": {
          "coding": [
            {
              "code": "5792-7",
              "system": "http://loinc.org",
              "display": "Glucose [Mass/volume] in Urine by Test strip"
            }
          ],
          "text": "Glucose [Mass/volume] in Urine by Test strip"
        },
        "valueQuantity": {
          "system": "http://unitsofmeasure.org",
          "value": 1.8,
          "unit": "mg/dL",
          "code": "mg/dL"
        },
        "referenceRange": [
          {
            "low": {
              "value": 0.8,
              "code": "mg/dL",
              "system": "http://unitsofmeasure.org"
            }
          },
          {
            "high": {
              "value": 0,
              "code": "mg/dL",
              "system": "http://unitsofmeasure.org"
            }
          }
        ],
        "interpretation": [
          {
            "coding": [
              {
                "code": "H",
                "system": "http://terminology.hl7.org/CodeSystem/v3-ObservationInterpretation",
                "display": "High"
              }
            ]
          }
        ],
        "text": {
          "status": "generated",
          "div": "<div xmlns=\"http://www.w3.org/1999/xhtml\"><table class=\"hl7__eu__lab__report\"><tr><th>Test</th><th>30-Oct-2017</th><th>Reference&#xA0;Range</th><th>Unit</th></tr><tr><td>Glucose [Mass/volume] in Urine by Test strip</td><td>1.8</td><td>0.8 - 0</td><td>H</td><td>mg/dL</td></tr></table></div>"
        },
        "status": "final",
        "subject": {
          "reference": "urn:uuid:66e05901-c156-4763-b294-f500bb44c47d",
          "display": "Maria Nohlmans"
        },
        "effectiveDateTime": "2017-10-30T00:27:39Z",
        "specimen": {
          "reference": "urn:uuid:45365082-9656-4718-9912-d6632ad30dcc"
        }
      }
    },
    {
      "fullUrl": "urn:uuid:da0cdbab-8477-4ea8-a447-00455ddcd70e",
      "resource": {
        "resourceType": "Observation",
        "id": "da0cdbab-8477-4ea8-a447-00455ddcd70e",
        "meta": {
          "profile": [
            "http://hl7.eu/fhir/laboratory/StructureDefinition/Observation-resultslab-eu-lab"
          ]
        },
        "performer": [
          {
            "display": "The Central European Lab"
          }
        ],
        "category": [
          {
            "coding": [
              {
                "system": "http://terminology.hl7.org/CodeSystem/observation-category",
                "code": "laboratory"
              }
            ]
          }
        ],
        "code": {
          "coding": [
            {
              "code": "25428-4",
              "system": "http://loinc.org",
              "display": "Glucose [Presence] in Urine by Test strip"
            }
          ],
          "text": "Glucose [Presence] in Urine by Test strip"
        },
        "text": {
          "status": "generated",
          "div": "<div xmlns=\"http://www.w3.org/1999/xhtml\"><table class=\"hl7__eu__lab__report\"><tr><th>Test</th><th>30-Oct-2017</th><th>Reference&#xA0;Range</th><th>Unit</th></tr><tr><td>Glucose [Presence] in Urine by Test strip</td></tr></table></div>"
        },
        "status": "final",
        "subject": {
          "reference": "urn:uuid:66e05901-c156-4763-b294-f500bb44c47d",
          "display": "Maria Nohlmans"
        },
        "effectiveDateTime": "2017-10-30T00:27:39Z",
        "specimen": {
          "reference": "urn:uuid:45365082-9656-4718-9912-d6632ad30dcc"
        }
      }
    },
    {
      "fullUrl": "urn:uuid:ede8672a-c1f4-49a0-be90-cf66ba503169",
      "resource": {
        "resourceType": "Observation",
        "id": "ede8672a-c1f4-49a0-be90-cf66ba503169",
        "meta": {
          "profile": [
            "http://hl7.eu/fhir/laboratory/StructureDefinition/Observation-resultslab-eu-lab"
          ]
        },
        "performer": [
          {
            "display": "The Central European Lab"
          }
        ],
        "category": [
          {
            "coding": [
              {
                "system": "http://terminology.hl7.org/CodeSystem/observation-category",
                "code": "laboratory"
              }
            ]
          }
        ],
        "code": {
          "coding": [
            {
              "code": "20505-4",
              "system": "http://loinc.org",
              "display": "Bilirubin.total [Mass/volume] in Urine by Test strip"
            }
          ],
          "text": "Bilirubin.total [Mass/volume] in Urine by Test strip"
        },
        "valueQuantity": {
          "system": "http://unitsofmeasure.org",
          "value": 1.1,
          "unit": "mg/dL",
          "code": "mg/dL"
        },
        "referenceRange": [
          {
            "low": {
              "value": 0,
              "code": "mg/dL",
              "system": "http://unitsofmeasure.org"
            }
          },
          {
            "high": {
              "value": 1.5,
              "code": "mg/dL",
              "system": "http://unitsofmeasure.org"
            }
          }
        ],
        "text": {
          "status": "generated",
          "div": "<div xmlns=\"http://www.w3.org/1999/xhtml\"><table class=\"hl7__eu__lab__report\"><tr><th>Test</th><th>30-Oct-2017</th><th>Reference&#xA0;Range</th><th>Unit</th></tr><tr><td>Bilirubin.total [Mass/volume] in Urine by Test strip</td><td>1.1</td><td>0 - 1.5</td><td></td><td>mg/dL</td></tr></table></div>"
        },
        "status": "final",
        "subject": {
          "reference": "urn:uuid:66e05901-c156-4763-b294-f500bb44c47d",
          "display": "Maria Nohlmans"
        },
        "effectiveDateTime": "2017-10-30T00:27:39Z",
        "specimen": {
          "reference": "urn:uuid:45365082-9656-4718-9912-d6632ad30dcc"
        }
      }
    },
    {
      "fullUrl": "urn:uuid:f298eef0-180d-496a-929d-2ee7d0a0e246",
      "resource": {
        "resourceType": "Observation",
        "id": "f298eef0-180d-496a-929d-2ee7d0a0e246",
        "meta": {
          "profile": [
            "http://hl7.eu/fhir/laboratory/StructureDefinition/Observation-resultslab-eu-lab"
          ]
        },
        "performer": [
          {
            "display": "The Central European Lab"
          }
        ],
        "category": [
          {
            "coding": [
              {
                "system": "http://terminology.hl7.org/CodeSystem/observation-category",
                "code": "laboratory"
              }
            ]
          }
        ],
        "code": {
          "coding": [
            {
              "code": "5770-3",
              "system": "http://loinc.org",
              "display": "Bilirubin.total [Presence] in Urine by Test strip"
            }
          ],
          "text": "Bilirubin.total [Presence] in Urine by Test strip"
        },
        "text": {
          "status": "generated",
          "div": "<div xmlns=\"http://www.w3.org/1999/xhtml\"><table class=\"hl7__eu__lab__report\"><tr><th>Test</th><th>30-Oct-2017</th><th>Reference&#xA0;Range</th><th>Unit</th></tr><tr><td>Bilirubin.total [Presence] in Urine by Test strip</td></tr></table></div>"
        },
        "status": "final",
        "subject": {
          "reference": "urn:uuid:66e05901-c156-4763-b294-f500bb44c47d",
          "display": "Maria Nohlmans"
        },
        "effectiveDateTime": "2017-10-30T00:27:39Z",
        "specimen": {
          "reference": "urn:uuid:45365082-9656-4718-9912-d6632ad30dcc"
        }
      }
    },
    {
      "fullUrl": "urn:uuid:3a339b03-5ceb-46f3-a413-4455aac08106",
      "resource": {
        "resourceType": "Observation",
        "id": "3a339b03-5ceb-46f3-a413-4455aac08106",
        "meta": {
          "profile": [
            "http://hl7.eu/fhir/laboratory/StructureDefinition/Observation-resultslab-eu-lab"
          ]
        },
        "performer": [
          {
            "display": "The Central European Lab"
          }
        ],
        "category": [
          {
            "coding": [
              {
                "system": "http://terminology.hl7.org/CodeSystem/observation-category",
                "code": "laboratory"
              }
            ]
          }
        ],
        "code": {
          "coding": [
            {
              "code": "5797-6",
              "system": "http://loinc.org",
              "display": "Ketones [Mass/volume] in Urine by Test strip"
            }
          ],
          "text": "Ketones [Mass/volume] in Urine by Test strip"
        },
        "valueQuantity": {
          "system": "http://unitsofmeasure.org",
          "value": 9,
          "unit": "mg/dL",
          "code": "mg/dL"
        },
        "referenceRange": [
          {
            "low": {
              "value": 0,
              "code": "mg/dL",
              "system": "http://unitsofmeasure.org"
            }
          },
          {
            "high": {
              "value": 8,
              "code": "mg/dL",
              "system": "http://unitsofmeasure.org"
            }
          }
        ],
        "interpretation": [
          {
            "coding": [
              {
                "code": "H",
                "system": "http://terminology.hl7.org/CodeSystem/v3-ObservationInterpretation",
                "display": "High"
              }
            ]
          }
        ],
        "text": {
          "status": "generated",
          "div": "<div xmlns=\"http://www.w3.org/1999/xhtml\"><table class=\"hl7__eu__lab__report\"><tr><th>Test</th><th>30-Oct-2017</th><th>Reference&#xA0;Range</th><th>Unit</th></tr><tr><td>Ketones [Mass/volume] in Urine by Test strip</td><td>9.0</td><td>0 - 8</td><td>H</td><td>mg/dL</td></tr></table></div>"
        },
        "status": "final",
        "subject": {
          "reference": "urn:uuid:66e05901-c156-4763-b294-f500bb44c47d",
          "display": "Maria Nohlmans"
        },
        "effectiveDateTime": "2017-10-30T00:27:39Z",
        "specimen": {
          "reference": "urn:uuid:45365082-9656-4718-9912-d6632ad30dcc"
        }
      }
    },
    {
      "fullUrl": "urn:uuid:0099e7a7-de97-408a-bf76-71fc49edf9b9",
      "resource": {
        "resourceType": "Observation",
        "id": "0099e7a7-de97-408a-bf76-71fc49edf9b9",
        "meta": {
          "profile": [
            "http://hl7.eu/fhir/laboratory/StructureDefinition/Observation-resultslab-eu-lab"
          ]
        },
        "performer": [
          {
            "display": "The Central European Lab"
          }
        ],
        "category": [
          {
            "coding": [
              {
                "system": "http://terminology.hl7.org/CodeSystem/observation-category",
                "code": "laboratory"
              }
            ]
          }
        ],
        "code": {
          "coding": [
            {
              "code": "2514-8",
              "system": "http://loinc.org",
              "display": "Ketones [Presence] in Urine by Test strip"
            }
          ],
          "text": "Ketones [Presence] in Urine by Test strip"
        },
        "text": {
          "status": "generated",
          "div": "<div xmlns=\"http://www.w3.org/1999/xhtml\"><table class=\"hl7__eu__lab__report\"><tr><th>Test</th><th>30-Oct-2017</th><th>Reference&#xA0;Range</th><th>Unit</th></tr><tr><td>Ketones [Presence] in Urine by Test strip</td></tr></table></div>"
        },
        "status": "final",
        "subject": {
          "reference": "urn:uuid:66e05901-c156-4763-b294-f500bb44c47d",
          "display": "Maria Nohlmans"
        },
        "effectiveDateTime": "2017-10-30T00:27:39Z",
        "specimen": {
          "reference": "urn:uuid:45365082-9656-4718-9912-d6632ad30dcc"
        }
      }
    },
    {
      "fullUrl": "urn:uuid:3df29ba9-caf3-4b26-9eed-e7d384257940",
      "resource": {
        "resourceType": "Observation",
        "id": "3df29ba9-caf3-4b26-9eed-e7d384257940",
        "meta": {
          "profile": [
            "http://hl7.eu/fhir/laboratory/StructureDefinition/Observation-resultslab-eu-lab"
          ]
        },
        "performer": [
          {
            "display": "The Central European Lab"
          }
        ],
        "category": [
          {
            "coding": [
              {
                "system": "http://terminology.hl7.org/CodeSystem/observation-category",
                "code": "laboratory"
              }
            ]
          }
        ],
        "code": {
          "coding": [
            {
              "code": "5811-5",
              "system": "http://loinc.org",
              "display": "Specific gravity of Urine by Test strip"
            }
          ],
          "text": "Specific gravity of Urine by Test strip"
        },
        "valueQuantity": {
          "system": "http://unitsofmeasure.org",
          "value": 1,
          "unit": "{nominal}",
          "code": "{nominal}"
        },
        "referenceRange": [
          {
            "low": {
              "value": 1.01,
              "code": "g/mL",
              "system": "http://unitsofmeasure.org"
            }
          },
          {
            "high": {
              "value": 1.03,
              "code": "g/mL",
              "system": "http://unitsofmeasure.org"
            }
          }
        ],
        "interpretation": [
          {
            "coding": [
              {
                "code": "L",
                "system": "http://terminology.hl7.org/CodeSystem/v3-ObservationInterpretation",
                "display": "Low"
              }
            ]
          }
        ],
        "text": {
          "status": "generated",
          "div": "<div xmlns=\"http://www.w3.org/1999/xhtml\"><table class=\"hl7__eu__lab__report\"><tr><th>Test</th><th>30-Oct-2017</th><th>Reference&#xA0;Range</th><th>Unit</th></tr><tr><td>Specific gravity of Urine by Test strip</td><td>1.0</td><td>1.01 - 1.03</td><td>L</td><td>{nominal}</td></tr></table></div>"
        },
        "status": "final",
        "subject": {
          "reference": "urn:uuid:66e05901-c156-4763-b294-f500bb44c47d",
          "display": "Maria Nohlmans"
        },
        "effectiveDateTime": "2017-10-30T00:27:39Z",
        "specimen": {
          "reference": "urn:uuid:45365082-9656-4718-9912-d6632ad30dcc"
        }
      }
    },
    {
      "fullUrl": "urn:uuid:9f88736e-0739-486b-abc0-eefc72a93475",
      "resource": {
        "resourceType": "Observation",
        "id": "9f88736e-0739-486b-abc0-eefc72a93475",
        "meta": {
          "profile": [
            "http://hl7.eu/fhir/laboratory/StructureDefinition/Observation-resultslab-eu-lab"
          ]
        },
        "performer": [
          {
            "display": "The Central European Lab"
          }
        ],
        "category": [
          {
            "coding": [
              {
                "system": "http://terminology.hl7.org/CodeSystem/observation-category",
                "code": "laboratory"
              }
            ]
          }
        ],
        "code": {
          "coding": [
            {
              "code": "5803-2",
              "system": "http://loinc.org",
              "display": "pH of Urine by Test strip"
            }
          ],
          "text": "pH of Urine by Test strip"
        },
        "valueQuantity": {
          "system": "http://unitsofmeasure.org",
          "value": 5.6,
          "unit": "pH",
          "code": "pH"
        },
        "referenceRange": [
          {
            "low": {
              "value": 4.6,
              "code": "pH",
              "system": "http://unitsofmeasure.org"
            }
          },
          {
            "high": {
              "value": 7.5,
              "code": "pH",
              "system": "http://unitsofmeasure.org"
            }
          }
        ],
        "text": {
          "status": "generated",
          "div": "<div xmlns=\"http://www.w3.org/1999/xhtml\"><table class=\"hl7__eu__lab__report\"><tr><th>Test</th><th>30-Oct-2017</th><th>Reference&#xA0;Range</th><th>Unit</th></tr><tr><td>pH of Urine by Test strip</td><td>5.6</td><td>4.6 - 7.5</td><td></td><td>pH</td></tr></table></div>"
        },
        "status": "final",
        "subject": {
          "reference": "urn:uuid:66e05901-c156-4763-b294-f500bb44c47d",
          "display": "Maria Nohlmans"
        },
        "effectiveDateTime": "2017-10-30T00:27:39Z",
        "specimen": {
          "reference": "urn:uuid:45365082-9656-4718-9912-d6632ad30dcc"
        }
      }
    },
    {
      "fullUrl": "urn:uuid:ade1cf46-9229-4715-bcea-2cae3da75d24",
      "resource": {
        "resourceType": "Observation",
        "id": "ade1cf46-9229-4715-bcea-2cae3da75d24",
        "meta": {
          "profile": [
            "http://hl7.eu/fhir/laboratory/StructureDefinition/Observation-resultslab-eu-lab"
          ]
        },
        "performer": [
          {
            "display": "The Central European Lab"
          }
        ],
        "category": [
          {
            "coding": [
              {
                "system": "http://terminology.hl7.org/CodeSystem/observation-category",
                "code": "laboratory"
              }
            ]
          }
        ],
        "code": {
          "coding": [
            {
              "code": "5804-0",
              "system": "http://loinc.org",
              "display": "Protein [Mass/volume] in Urine by Test strip"
            }
          ],
          "text": "Protein [Mass/volume] in Urine by Test strip"
        },
        "valueQuantity": {
          "system": "http://unitsofmeasure.org",
          "value": 302.2,
          "unit": "mg/dL",
          "code": "mg/dL"
        },
        "referenceRange": [
          {
            "low": {
              "value": 0,
              "code": "mg/dL",
              "system": "http://unitsofmeasure.org"
            }
          },
          {
            "high": {
              "value": 14,
              "code": "mg/dL",
              "system": "http://unitsofmeasure.org"
            }
          }
        ],
        "interpretation": [
          {
            "coding": [
              {
                "code": "H",
                "system": "http://terminology.hl7.org/CodeSystem/v3-ObservationInterpretation",
                "display": "High"
              }
            ]
          }
        ],
        "text": {
          "status": "generated",
          "div": "<div xmlns=\"http://www.w3.org/1999/xhtml\"><table class=\"hl7__eu__lab__report\"><tr><th>Test</th><th>30-Oct-2017</th><th>Reference&#xA0;Range</th><th>Unit</th></tr><tr><td>Protein [Mass/volume] in Urine by Test strip</td><td>302.2</td><td>0 - 14</td><td>H</td><td>mg/dL</td></tr></table></div>"
        },
        "status": "final",
        "subject": {
          "reference": "urn:uuid:66e05901-c156-4763-b294-f500bb44c47d",
          "display": "Maria Nohlmans"
        },
        "effectiveDateTime": "2017-10-30T00:27:39Z",
        "specimen": {
          "reference": "urn:uuid:45365082-9656-4718-9912-d6632ad30dcc"
        }
      }
    },
    {
      "fullUrl": "urn:uuid:d701c4a9-5900-4d38-be14-c7b1ed5fee07",
      "resource": {
        "resourceType": "Observation",
        "id": "d701c4a9-5900-4d38-be14-c7b1ed5fee07",
        "meta": {
          "profile": [
            "http://hl7.eu/fhir/laboratory/StructureDefinition/Observation-resultslab-eu-lab"
          ]
        },
        "performer": [
          {
            "display": "The Central European Lab"
          }
        ],
        "category": [
          {
            "coding": [
              {
                "system": "http://terminology.hl7.org/CodeSystem/observation-category",
                "code": "laboratory"
              }
            ]
          }
        ],
        "code": {
          "coding": [
            {
              "code": "20454-5",
              "system": "http://loinc.org",
              "display": "Protein [Presence] in Urine by Test strip"
            }
          ],
          "text": "Protein [Presence] in Urine by Test strip"
        },
        "text": {
          "status": "generated",
          "div": "<div xmlns=\"http://www.w3.org/1999/xhtml\"><table class=\"hl7__eu__lab__report\"><tr><th>Test</th><th>30-Oct-2017</th><th>Reference&#xA0;Range</th><th>Unit</th></tr><tr><td>Protein [Presence] in Urine by Test strip</td></tr></table></div>"
        },
        "status": "final",
        "subject": {
          "reference": "urn:uuid:66e05901-c156-4763-b294-f500bb44c47d",
          "display": "Maria Nohlmans"
        },
        "effectiveDateTime": "2017-10-30T00:27:39Z",
        "specimen": {
          "reference": "urn:uuid:45365082-9656-4718-9912-d6632ad30dcc"
        }
      }
    },
    {
      "fullUrl": "urn:uuid:aa980639-e89b-45a1-8bc0-481a3ae42f29",
      "resource": {
        "resourceType": "Observation",
        "id": "aa980639-e89b-45a1-8bc0-481a3ae42f29",
        "meta": {
          "profile": [
            "http://hl7.eu/fhir/laboratory/StructureDefinition/Observation-resultslab-eu-lab"
          ]
        },
        "performer": [
          {
            "display": "The Central European Lab"
          }
        ],
        "category": [
          {
            "coding": [
              {
                "system": "http://terminology.hl7.org/CodeSystem/observation-category",
                "code": "laboratory"
              }
            ]
          }
        ],
        "code": {
          "coding": [
            {
              "code": "5802-4",
              "system": "http://loinc.org",
              "display": "Nitrite [Presence] in Urine by Test strip"
            }
          ],
          "text": "Nitrite [Presence] in Urine by Test strip"
        },
        "text": {
          "status": "generated",
          "div": "<div xmlns=\"http://www.w3.org/1999/xhtml\"><table class=\"hl7__eu__lab__report\"><tr><th>Test</th><th>30-Oct-2017</th><th>Reference&#xA0;Range</th><th>Unit</th></tr><tr><td>Nitrite [Presence] in Urine by Test strip</td></tr></table></div>"
        },
        "status": "final",
        "subject": {
          "reference": "urn:uuid:66e05901-c156-4763-b294-f500bb44c47d",
          "display": "Maria Nohlmans"
        },
        "effectiveDateTime": "2017-10-30T00:27:39Z",
        "specimen": {
          "reference": "urn:uuid:45365082-9656-4718-9912-d6632ad30dcc"
        }
      }
    },
    {
      "fullUrl": "urn:uuid:d703ab34-4fe0-4834-b58c-babb3f708221",
      "resource": {
        "resourceType": "Observation",
        "id": "d703ab34-4fe0-4834-b58c-babb3f708221",
        "meta": {
          "profile": [
            "http://hl7.eu/fhir/laboratory/StructureDefinition/Observation-resultslab-eu-lab"
          ]
        },
        "performer": [
          {
            "display": "The Central European Lab"
          }
        ],
        "category": [
          {
            "coding": [
              {
                "system": "http://terminology.hl7.org/CodeSystem/observation-category",
                "code": "laboratory"
              }
            ]
          }
        ],
        "code": {
          "coding": [
            {
              "code": "5794-3",
              "system": "http://loinc.org",
              "display": "Hemoglobin [Presence] in Urine by Test strip"
            }
          ],
          "text": "Hemoglobin [Presence] in Urine by Test strip"
        },
        "text": {
          "status": "generated",
          "div": "<div xmlns=\"http://www.w3.org/1999/xhtml\"><table class=\"hl7__eu__lab__report\"><tr><th>Test</th><th>30-Oct-2017</th><th>Reference&#xA0;Range</th><th>Unit</th></tr><tr><td>Hemoglobin [Presence] in Urine by Test strip</td></tr></table></div>"
        },
        "status": "final",
        "subject": {
          "reference": "urn:uuid:66e05901-c156-4763-b294-f500bb44c47d",
          "display": "Maria Nohlmans"
        },
        "effectiveDateTime": "2017-10-30T00:27:39Z",
        "specimen": {
          "reference": "urn:uuid:45365082-9656-4718-9912-d6632ad30dcc"
        }
      }
    },
    {
      "fullUrl": "urn:uuid:b2e7f733-dace-4f6d-a2fd-7fecc3d0c60a",
      "resource": {
        "resourceType": "Observation",
        "id": "b2e7f733-dace-4f6d-a2fd-7fecc3d0c60a",
        "meta": {
          "profile": [
            "http://hl7.eu/fhir/laboratory/StructureDefinition/Observation-resultslab-eu-lab"
          ]
        },
        "performer": [
          {
            "display": "The Central European Lab"
          }
        ],
        "category": [
          {
            "coding": [
              {
                "system": "http://terminology.hl7.org/CodeSystem/observation-category",
                "code": "laboratory"
              }
            ]
          }
        ],
        "code": {
          "coding": [
            {
              "code": "5799-2",
              "system": "http://loinc.org",
              "display": "Leukocyte esterase [Presence] in Urine by Test strip"
            }
          ],
          "text": "Leukocyte esterase [Presence] in Urine by Test strip"
        },
        "text": {
          "status": "generated",
          "div": "<div xmlns=\"http://www.w3.org/1999/xhtml\"><table class=\"hl7__eu__lab__report\"><tr><th>Test</th><th>30-Oct-2017</th><th>Reference&#xA0;Range</th><th>Unit</th></tr><tr><td>Leukocyte esterase [Presence] in Urine by Test strip</td></tr></table></div>"
        },
        "status": "final",
        "subject": {
          "reference": "urn:uuid:66e05901-c156-4763-b294-f500bb44c47d",
          "display": "Maria Nohlmans"
        },
        "effectiveDateTime": "2017-10-30T00:27:39Z",
        "specimen": {
          "reference": "urn:uuid:45365082-9656-4718-9912-d6632ad30dcc"
        }
      }
    },
    {
      "fullUrl": "urn:uuid:72486e99-eba5-4d29-8892-f5f4d71c1a59",
      "resource": {
        "resourceType": "Device",
        "id": "72486e99-eba5-4d29-8892-f5f4d71c1a59",
        "deviceName": [
          {
            "name": "SYNDERAI Synthetic Generator",
            "type": "manufacturer-name"
          }
        ],
        "version": [
          {
            "value": "5.0"
          }
        ],
        "text": {
          "status": "generated",
          "div": "<div xmlns=\"http://www.w3.org/1999/xhtml\">SYNDERAI Synthetic Generator v5.0</div>"
        },
        "status": "active\"",
        "distinctIdentifier": "synderai-generator-50",
        "manufacturer": "SYNDERAI Project"
      }
    },
    {
      "fullUrl": "urn:uuid:ed7bcb7e-e600-49a9-82cc-0d23edc6a27c",
      "resource": {
        "resourceType": "Provenance",
        "id": "ed7bcb7e-e600-49a9-82cc-0d23edc6a27c",
        "target": [
          {
            "reference": "Patient/66e05901-c156-4763-b294-f500bb44c47d"
          },
          {
            "reference": "Bundle/72a505c1-7925-43c2-971a-f13b1268de82"
          },
          {
            "reference": "Composition/79ea3424-8eb4-4cbc-983b-d54328f59ad5"
          },
          {
            "reference": "PractitionerRole/a1aed880-a991-44e8-adac-b282d8ae6dce"
          },
          {
            "reference": "Practitioner/270f4ed4-29f6-492a-a19a-6c76156170ee"
          },
          {
            "reference": "PractitionerRole/ec50a78f-7a4a-4c15-9a87-36c07571e8e9"
          },
          {
            "reference": "Organization/38c0d3a1-685f-4958-b881-92a6981b1a63"
          }
        ],
        "activity": {
          "text": "Synthetic Example Data Generation"
        },
        "policy": [
          "https://synderai.net/synderai-synthetic-data-policy"
        ],
        "agent": [
          {
            "type": {
              "text": "author"
            },
            "who": {
              "reference": "Device/72486e99-eba5-4d29-8892-f5f4d71c1a59"
            }
          }
        ],
        "reason": [
          {
            "text": "Interoperability Testing and Training (non-clinical use)"
          }
        ],
        "text": {
          "status": "generated",
          "div": "<div xmlns=\"http://www.w3.org/1999/xhtml\">Provenance for SYNDERAI Synthetic Example Data Resource</div>"
        },
        "recorded": "2017-10-30T01:27:39Z"
      }
    },
    {
      "fullUrl": "urn:uuid:a1aed880-a991-44e8-adac-b282d8ae6dce",
      "resource": {
        "resourceType": "PractitionerRole",
        "id": "a1aed880-a991-44e8-adac-b282d8ae6dce",
        "meta": {
          "profile": [
            "http://hl7.eu/fhir/base/StructureDefinition/practitionerRole-eu"
          ]
        },
        "text": {
          "status": "generated",
          "div": "<div xmlns=\"http://www.w3.org/1999/xhtml\">Laboratory Role Id: a1aed880-a991-44e8-adac-b282d8ae6dce</div>"
        },
        "practitioner": {
          "reference": "urn:uuid:270f4ed4-29f6-492a-a19a-6c76156170ee"
        }
      }
    },
    {
      "fullUrl": "urn:uuid:270f4ed4-29f6-492a-a19a-6c76156170ee",
      "resource": {
        "resourceType": "Practitioner",
        "id": "270f4ed4-29f6-492a-a19a-6c76156170ee",
        "meta": {
          "profile": [
            "http://hl7.eu/fhir/base/StructureDefinition/practitioner-eu"
          ]
        },
        "identifier": [
          {
            "assigner": {
              "display": "HL7 Europe"
            },
            "system": "urn:oid:2.16.840.1.113883.2.51.999",
            "value": "7155acf1-29e3-4f83-bf1c-cd2a9d345a76"
          }
        ],
        "name": [
          {
            "prefix": [
              "dr"
            ],
            "given": [
              "Ex"
            ],
            "family": "Ample"
          }
        ],
        "address": [
          {
            "line": [
              "Laboratoire Central Européenne",
              "Boulevard du Jardin Botanique 32"
            ],
            "postalCode": "1000",
            "city": "Brussels",
            "country": "Belgium"
          }
        ],
        "text": {
          "status": "generated",
          "div": "<div xmlns=\"http://www.w3.org/1999/xhtml\">Laboratory: Laboratoire Central Européenne, 1000 Brussels, Belgium</div>"
        }
      }
    }
  ],
  "type": "document",
  "timestamp": "2017-10-30T01:27:39Z"
}
