{
  "resourceType": "Bundle",
  "id": "d5168694-44be-401b-9601-933f91bba337",
  "meta": {
    "profile": [
      "http://hl7.eu/fhir/laboratory/StructureDefinition/Bundle-eu-lab"
    ]
  },
  "identifier": {
    "assigner": {
      "display": "HL7 Europe"
    },
    "system": "urn:oid:2.16.840.1.113883.2.51.999",
    "value": "484f5668-7601-47ad-bbb3-c96fecf9d11e"
  },
  "entry": [
    {
      "fullUrl": "urn:uuid:6eb2a9f0-3241-4b06-aa5c-54f7d7724687",
      "resource": {
        "resourceType": "Composition",
        "id": "6eb2a9f0-3241-4b06-aa5c-54f7d7724687",
        "meta": {
          "profile": [
            "http://hl7.eu/fhir/laboratory/StructureDefinition/Composition-eu-lab"
          ]
        },
        "identifier": {
          "assigner": {
            "display": "HL7 Europe"
          },
          "system": "urn:oid:2.16.840.1.113883.2.51.999",
          "value": "3aa9bd50-d617-4224-b8ea-7a2205d13d3f"
        },
        "author": [
          {
            "reference": "urn:uuid:5969e6f3-25d9-42d8-bcd2-cc842b89b3ff"
          }
        ],
        "category": [
          {
            "coding": [
              {
                "code": "26436-6",
                "system": "http://loinc.org",
                "display": "Laboratory studies (set)"
              }
            ]
          }
        ],
        "type": {
          "coding": [
            {
              "code": "11502-2",
              "system": "http://loinc.org",
              "display": "Laboratory report"
            }
          ],
          "text": "Laboratory Report"
        },
        "section": [
          {
            "code": {
              "coding": [
                {
                  "code": "26436-6",
                  "system": "http://loinc.org",
                  "display": "Laboratory studies (set)"
                }
              ],
              "text": "Laboratory studies"
            },
            "section": [
              {
                "code": {
                  "coding": [
                    {
                      "code": "$18719-5",
                      "system": "http://loinc.org",
                      "display": "Chemistry studies (set)"
                    }
                  ],
                  "text": "Chemistry"
                },
                "entry": [
                  {
                    "reference": "urn:uuid:c832161b-ef08-466e-8231-7bd6c4ffc1e7"
                  },
                  {
                    "reference": "urn:uuid:8c6aca16-15b7-426f-ab84-0036e7740aab"
                  },
                  {
                    "reference": "urn:uuid:1487f15d-0b58-499d-9041-a66b278b956b"
                  },
                  {
                    "reference": "urn:uuid:fda1dc94-8664-43d4-8bab-765b085835e0"
                  },
                  {
                    "reference": "urn:uuid:52070fab-a481-4485-8fd0-05a9f0faf79a"
                  },
                  {
                    "reference": "urn:uuid:b95f9ab7-9b0d-47b6-9104-d0dcd7657afe"
                  },
                  {
                    "reference": "urn:uuid:4cf37d84-4035-4290-9937-263a96bb4626"
                  },
                  {
                    "reference": "urn:uuid:21ab123f-328c-4425-952a-9aa6c3fde68f"
                  },
                  {
                    "reference": "urn:uuid:625961cc-6aa7-499f-887a-3f2d9d4ab5d0"
                  },
                  {
                    "reference": "urn:uuid:03bcbaab-8f9c-4e8f-a305-4de05d2a84a8"
                  },
                  {
                    "reference": "urn:uuid:37cc5eff-28d3-4552-b047-2d6af3e83d64"
                  },
                  {
                    "reference": "urn:uuid:90e7579e-b676-42ba-9637-089a40d86147"
                  },
                  {
                    "reference": "urn:uuid:80849db8-1e8c-435a-88bd-6a3cf12d06a6"
                  },
                  {
                    "reference": "urn:uuid:bf9f93c0-a07f-4c3d-81ba-e78ab30aba21"
                  },
                  {
                    "reference": "urn:uuid:5c220bf9-93e9-4de7-abe1-b6bb8478b28d"
                  },
                  {
                    "reference": "urn:uuid:0907a57a-c689-4096-830f-fb539baf1565"
                  },
                  {
                    "reference": "urn:uuid:efd14fc3-88ea-4c2c-933d-66d10e26509d"
                  },
                  {
                    "reference": "urn:uuid:4e35c483-c53a-4cc8-9f2c-d97bab4a1b02"
                  }
                ],
                "text": {
                  "status": "generated",
                  "div": "<div xmlns=\"http://www.w3.org/1999/xhtml\"><h3>Chemistry</h3><table class=\"hl7__eu__lab__report\"><thead><tr><th>Test</th><th>31-OCT-2016</th><th>Reference&#xA0;Range</th><th>Unit</th></tr></thead><tbody><tr><td>Glucose [Mass/volume] in Serum or Plasma</td><td>78.8</td><td>70 - 99</td><td>mg/dL</td></tr><tr><td>Urea nitrogen [Mass/volume] in Serum or Plasma</td><td>15.7</td><td>7 - 50</td><td>mg/dL</td></tr><tr><td>Creatinine [Mass/volume] in Serum or Plasma</td><td><strong>2.0 H</strong></td><td>0.6 - 1.1</td><td>mg/dL</td></tr><tr><td>Calcium [Mass/volume] in Serum or Plasma</td><td>8.6</td><td>8.6 - 10.4</td><td>mg/dL</td></tr><tr><td>Sodium [Moles/volume] in Serum or Plasma</td><td>141.2</td><td>135 - 145</td><td>mmol/L</td></tr><tr><td>Potassium [Moles/volume] in Serum or Plasma</td><td>4.6</td><td>3.5 - 5.1</td><td>mmol/L</td></tr><tr><td>Chloride [Moles/volume] in Serum or Plasma</td><td><strong>109.0 H</strong></td><td>98 - 108</td><td>mmol/L</td></tr><tr><td>Carbon dioxide, total [Moles/volume] in Serum or Plasma</td><td>25.8</td><td>22 - 32</td><td>mmol/L</td></tr><tr><td>Ketones [Presence] in Urine by Test strip</td><td>Urine ketone test = +</td><td></td><td></td></tr><tr><td>Hemoglobin A1c/Hemoglobin.total in Blood</td><td><strong>3.2 L</strong></td><td>4 - 6.4</td><td>%</td></tr><tr><td>Glucose [Mass/volume] in Blood</td><td>78.8</td><td>70 - 100</td><td>mg/dL</td></tr><tr><td>Urea nitrogen [Mass/volume] in Blood</td><td>15.7</td><td>7 - 43</td><td>mg/dL</td></tr><tr><td>Creatinine [Mass/volume] in Blood</td><td><strong>1.5 H</strong></td><td>0.6 - 1.1</td><td>mg/dL</td></tr><tr><td>Calcium [Mass/volume] in Blood</td><td>8.6</td><td>8.5 - 10.5</td><td>mg/dL</td></tr><tr><td>Sodium [Moles/volume] in Blood</td><td>141.2</td><td>135 - 145</td><td>mmol/L</td></tr><tr><td>Potassium [Moles/volume] in Blood</td><td>4.6</td><td>3.5 - 5.1</td><td>mmol/L</td></tr><tr><td>Chloride [Moles/volume] in Blood</td><td><strong>109.0 H</strong></td><td>98 - 108</td><td>mmol/L</td></tr><tr><td>Carbon dioxide, total [Moles/volume] in Blood</td><td>25.8</td><td>22 - 29</td><td>mmol/L</td></tr></tbody></table></div>"
                },
                "title": "Chemistry"
              },
              {
                "code": {
                  "coding": [
                    {
                      "code": "$18729-4",
                      "system": "http://loinc.org",
                      "display": "Urinalysis studies (set)"
                    }
                  ],
                  "text": "Urinalysis"
                },
                "entry": [
                  {
                    "reference": "urn:uuid:2ae53a6b-0223-4b5c-9344-f505513ec5de"
                  },
                  {
                    "reference": "urn:uuid:76a957c1-df56-4bb0-8225-d15e2b62c499"
                  },
                  {
                    "reference": "urn:uuid:ea9da0d2-c4cf-4d03-a601-75dd40690690"
                  },
                  {
                    "reference": "urn:uuid:d56f8734-4ce0-4054-9b25-4c4ca0b5323f"
                  },
                  {
                    "reference": "urn:uuid:56a0e71d-04d2-4a91-90cf-11e0da605264"
                  },
                  {
                    "reference": "urn:uuid:8738ecfd-e231-4ba1-9820-74d8e2201d34"
                  },
                  {
                    "reference": "urn:uuid:fda0db13-06f4-4a64-8654-466f60a9dc2d"
                  },
                  {
                    "reference": "urn:uuid:1930d186-26b8-4c6b-8f63-4c51f562fa6f"
                  },
                  {
                    "reference": "urn:uuid:caab9538-a136-47bd-8f43-0de12152e749"
                  },
                  {
                    "reference": "urn:uuid:251374fa-6222-4d84-80f0-ec528679969c"
                  },
                  {
                    "reference": "urn:uuid:ef9bbef5-aa86-4dff-a9b3-ae02496d81af"
                  },
                  {
                    "reference": "urn:uuid:69d326ec-8cd9-4d09-b4c1-95c45cc93514"
                  }
                ],
                "text": {
                  "status": "generated",
                  "div": "<div xmlns=\"http://www.w3.org/1999/xhtml\"><h3>Urinalysis</h3><table class=\"hl7__eu__lab__report\"><thead><tr><th>Test</th><th>31-OCT-2016</th><th>Reference&#xA0;Range</th><th>Unit</th></tr></thead><tbody><tr><td>Glucose [Mass/volume] in Urine by Test strip</td><td><strong>2.2 H</strong></td><td>0.8 - 0</td><td>mg/dL</td></tr><tr><td>Glucose [Presence] in Urine by Test strip</td><td>++</td><td></td><td></td></tr><tr><td>Bilirubin.total [Mass/volume] in Urine by Test strip</td><td>0.8</td><td>0 - 1</td><td>mg/dL</td></tr><tr><td>Bilirubin.total [Presence] in Urine by Test strip</td><td>Finding of bilirubin in urine</td><td></td><td></td></tr><tr><td>Ketones [Mass/volume] in Urine by Test strip</td><td><strong>9.6 H</strong></td><td>0 - 4</td><td>mg/dL</td></tr><tr><td>Specific gravity of Urine by Test strip</td><td><strong>1.0 L</strong></td><td>1.005 - 1.03</td><td>{nominal}</td></tr><tr><td>pH of Urine by Test strip</td><td>6.0</td><td>4.6 - 7</td><td>pH</td></tr><tr><td>Protein [Mass/volume] in Urine by Test strip</td><td><strong>212.6 H</strong></td><td>0 - 14</td><td>mg/dL</td></tr><tr><td>Protein [Presence] in Urine by Test strip</td><td>Urine protein test = ++</td><td></td><td></td></tr><tr><td>Nitrite [Presence] in Urine by Test strip</td><td>Urine nitrite negative</td><td></td><td></td></tr><tr><td>Hemoglobin [Presence] in Urine by Test strip</td><td>Urine blood test = negative</td><td></td><td></td></tr><tr><td>Leukocyte esterase [Presence] in Urine by Test strip</td><td>Urine leukocyte test negative</td><td></td><td></td></tr></tbody></table></div>"
                },
                "title": "Urinalysis"
              },
              {
                "code": {
                  "coding": [
                    {
                      "code": "$LP7846-1",
                      "system": "http://loinc.org",
                      "display": "Specimen information"
                    }
                  ],
                  "text": "Specimen information"
                },
                "entry": [
                  {
                    "reference": "urn:uuid:570da768-cdd6-4999-a5bb-8abe1bc7e0d2"
                  },
                  {
                    "reference": "urn:uuid:fac89af4-0b75-4077-8b51-06847f94e900"
                  },
                  {
                    "reference": "urn:uuid:6914dda9-7f5c-4233-b151-aa34075b4126"
                  },
                  {
                    "reference": "urn:uuid:ed52fbb6-f0f4-4cc2-8970-75eed7340605"
                  }
                ],
                "text": {
                  "status": "generated",
                  "div": "<div xmlns=\"http://www.w3.org/1999/xhtml\"><h3>Specimen information</h3><table class=\"hl7__eu__lab__report\"><thead><tr><th>Test</th><th>31-OCT-2016</th><th>Specimen</th><th></th></tr></thead><tbody><tr><td>Appearance of Urine</td><td>Cloudy urine</td><td>Urine</td><td></td></tr><tr><td>Odor of Urine</td><td>Urine smell ammoniacal</td><td>Urine</td><td></td></tr><tr><td>Clarity of Urine</td><td>Translucent</td><td>Urine</td><td></td></tr><tr><td>Color of Urine</td><td>Brown color</td><td>Urine</td><td></td></tr></tbody></table></div>"
                },
                "title": "Specimen information"
              }
            ],
            "title": "Laboratory Report"
          },
          {
            "text": {
              "status": "generated",
              "div": "<div xmlns=\"http://www.w3.org/1999/xhtml\"><h3>Annotation</h3><table class=\"hl7__eu__lab__report\"><tr><th>Conclusion and Recommendations based on this report and previous findings known to us</th></tr><tr><td>The patient shows elevated creatinine, proteinuria, glucosuria, ketonuria, and low urine specific gravity, suggesting impaired renal function with possible nephrotic features and mild metabolic derangement. Urine is cloudy, brown, and ammoniacal, but no evidence of infection (negative nitrites/leukocytes). HbA1c is low, excluding chronic hyperglycemia. Recommend further nephrological evaluation and assessment for possible acute or chronic kidney disease and underlying causes.</td></tr></table></div>"
            },
            "code": {
              "coding": [
                {
                  "system": "http://loinc.org",
                  "code": "48767-8",
                  "display": "Annotation comment"
                }
              ]
            },
            "title": "Annotation comment"
          }
        ],
        "status": "final",
        "subject": {
          "reference": "urn:uuid:dda7b680-3bd0-4e9d-bed3-6b571d3a3099",
          "display": "Meaghan Neary"
        },
        "date": "2016-10-31T23:11:04Z",
        "title": "Laboratory Report",
        "confidentiality": "N"
      }
    },
    {
      "fullUrl": "urn:uuid:6ddb3795-68ad-4656-8448-31a582d1f366",
      "resource": {
        "resourceType": "DiagnosticReport",
        "id": "6ddb3795-68ad-4656-8448-31a582d1f366",
        "meta": {
          "profile": [
            "http://hl7.eu/fhir/laboratory/StructureDefinition/DiagnosticReport-eu-lab"
          ]
        },
        "identifier": [
          {
            "assigner": {
              "display": "HL7 Europe"
            },
            "system": "urn:oid:2.16.840.1.113883.2.51.999",
            "value": "fd84a529-ef2d-4f57-8fa1-b3998a692e3e"
          }
        ],
        "extension": [
          {
            "url": "http://hl7.org/fhir/5.0/StructureDefinition/extension-DiagnosticReport.composition",
            "valueReference": {
              "reference": "urn:uuid:3aa9bd50-d617-4224-b8ea-7a2205d13d3f"
            }
          }
        ],
        "category": [
          {
            "coding": [
              {
                "code": "26436-6",
                "system": "http://loinc.org",
                "display": "Laboratory studies (set)"
              }
            ]
          }
        ],
        "specimen": [
          {
            "reference": "urn:uuid:6c77cfb4-e2f3-471d-bba2-8d0d9e2bbb55"
          },
          {
            "reference": "urn:uuid:da8f28fa-9d50-4658-b9e1-1470ad621a5b"
          },
          {
            "reference": "urn:uuid:4adc01f7-7835-4f11-ac50-6ba4213553e4"
          }
        ],
        "result": [
          {
            "reference": "urn:uuid:c832161b-ef08-466e-8231-7bd6c4ffc1e7"
          },
          {
            "reference": "urn:uuid:8c6aca16-15b7-426f-ab84-0036e7740aab"
          },
          {
            "reference": "urn:uuid:1487f15d-0b58-499d-9041-a66b278b956b"
          },
          {
            "reference": "urn:uuid:fda1dc94-8664-43d4-8bab-765b085835e0"
          },
          {
            "reference": "urn:uuid:52070fab-a481-4485-8fd0-05a9f0faf79a"
          },
          {
            "reference": "urn:uuid:b95f9ab7-9b0d-47b6-9104-d0dcd7657afe"
          },
          {
            "reference": "urn:uuid:4cf37d84-4035-4290-9937-263a96bb4626"
          },
          {
            "reference": "urn:uuid:21ab123f-328c-4425-952a-9aa6c3fde68f"
          },
          {
            "reference": "urn:uuid:570da768-cdd6-4999-a5bb-8abe1bc7e0d2"
          },
          {
            "reference": "urn:uuid:fac89af4-0b75-4077-8b51-06847f94e900"
          },
          {
            "reference": "urn:uuid:6914dda9-7f5c-4233-b151-aa34075b4126"
          },
          {
            "reference": "urn:uuid:ed52fbb6-f0f4-4cc2-8970-75eed7340605"
          },
          {
            "reference": "urn:uuid:2ae53a6b-0223-4b5c-9344-f505513ec5de"
          },
          {
            "reference": "urn:uuid:76a957c1-df56-4bb0-8225-d15e2b62c499"
          },
          {
            "reference": "urn:uuid:ea9da0d2-c4cf-4d03-a601-75dd40690690"
          },
          {
            "reference": "urn:uuid:d56f8734-4ce0-4054-9b25-4c4ca0b5323f"
          },
          {
            "reference": "urn:uuid:56a0e71d-04d2-4a91-90cf-11e0da605264"
          },
          {
            "reference": "urn:uuid:625961cc-6aa7-499f-887a-3f2d9d4ab5d0"
          },
          {
            "reference": "urn:uuid:8738ecfd-e231-4ba1-9820-74d8e2201d34"
          },
          {
            "reference": "urn:uuid:fda0db13-06f4-4a64-8654-466f60a9dc2d"
          },
          {
            "reference": "urn:uuid:1930d186-26b8-4c6b-8f63-4c51f562fa6f"
          },
          {
            "reference": "urn:uuid:caab9538-a136-47bd-8f43-0de12152e749"
          },
          {
            "reference": "urn:uuid:251374fa-6222-4d84-80f0-ec528679969c"
          },
          {
            "reference": "urn:uuid:ef9bbef5-aa86-4dff-a9b3-ae02496d81af"
          },
          {
            "reference": "urn:uuid:69d326ec-8cd9-4d09-b4c1-95c45cc93514"
          },
          {
            "reference": "urn:uuid:03bcbaab-8f9c-4e8f-a305-4de05d2a84a8"
          },
          {
            "reference": "urn:uuid:37cc5eff-28d3-4552-b047-2d6af3e83d64"
          },
          {
            "reference": "urn:uuid:90e7579e-b676-42ba-9637-089a40d86147"
          },
          {
            "reference": "urn:uuid:80849db8-1e8c-435a-88bd-6a3cf12d06a6"
          },
          {
            "reference": "urn:uuid:bf9f93c0-a07f-4c3d-81ba-e78ab30aba21"
          },
          {
            "reference": "urn:uuid:5c220bf9-93e9-4de7-abe1-b6bb8478b28d"
          },
          {
            "reference": "urn:uuid:0907a57a-c689-4096-830f-fb539baf1565"
          },
          {
            "reference": "urn:uuid:efd14fc3-88ea-4c2c-933d-66d10e26509d"
          },
          {
            "reference": "urn:uuid:4e35c483-c53a-4cc8-9f2c-d97bab4a1b02"
          }
        ],
        "status": "registered",
        "code": {
          "coding": [
            {
              "code": "11502-2",
              "system": "http://loinc.org",
              "display": "Laboratory report"
            }
          ]
        },
        "subject": {
          "reference": "urn:uuid:dda7b680-3bd0-4e9d-bed3-6b571d3a3099",
          "display": "Meaghan Neary"
        }
      }
    },
    {
      "fullUrl": "urn:uuid:dda7b680-3bd0-4e9d-bed3-6b571d3a3099",
      "resource": {
        "resourceType": "Patient",
        "id": "dda7b680-3bd0-4e9d-bed3-6b571d3a3099",
        "meta": {
          "security": [
            {
              "system": "http://terminology.hl7.org/CodeSystem/v3-ActReason",
              "code": "HTEST"
            },
            {
              "system": "http://terminology.hl7.org/CodeSystem/v3-ActReason",
              "code": "TRAIN"
            }
          ],
          "tag": [
            {
              "system": "https://synderai.net/fhir/CodeSystem/tags",
              "code": "synthetic",
              "display": "SYNDERAI Synthetic data"
            }
          ],
          "profile": [
            "http://hl7.eu/fhir/base/StructureDefinition/patient-eu-core"
          ]
        },
        "identifier": [
          {
            "type": {
              "coding": [
                {
                  "code": "PT",
                  "system": "http://terminology.hl7.org/CodeSystem/v2-0203"
                }
              ]
            },
            "system": "http://ec.europa.eu/identifier/eci",
            "value": "1586-567257-8"
          },
          {
            "type": {
              "coding": [
                {
                  "code": "MR",
                  "system": "http://terminology.hl7.org/CodeSystem/v2-0203"
                }
              ]
            },
            "system": "http://local.setting.eu/identifier",
            "value": "443e6379-f231-b364-3ccb-644740a1aa2a"
          }
        ],
        "name": [
          {
            "family": "Neary"
          },
          {
            "given": [
              "Meaghan"
            ]
          },
          {
            "text": "Meaghan Neary"
          }
        ],
        "address": [
          {
            "line": [
              "64 Linskey Street"
            ],
            "use": "home",
            "type": "physical",
            "postalCode": "D02",
            "city": "Dublin",
            "country": "Ireland"
          }
        ],
        "telecom": [
          {
            "system": "phone",
            "value": "001-967-573-0911x465"
          }
        ],
        "extension": [
          {
            "url": "http://hl7.org/fhir/StructureDefinition/patient-nationality",
            "valueCodeableConcept": {
              "coding": [
                {
                  "code": "IE",
                  "system": "http://hl7.org/fhir/ValueSet/country"
                }
              ]
            }
          }
        ],
        "text": {
          "status": "generated",
          "div": "<div xmlns=\"http://www.w3.org/1999/xhtml\"><table class=\"hl7__ips\"><tr><td>Meaghan Neary</td><td>female</td><td>19-Dec-1960</td></tr></table></div>"
        },
        "gender": "female",
        "birthDate": "1960-12-19"
      }
    },
    {
      "fullUrl": "urn:uuid:c9d1b966-b352-4dca-8371-72f554e00392",
      "resource": {
        "resourceType": "ServiceRequest",
        "id": "c9d1b966-b352-4dca-8371-72f554e00392",
        "meta": {
          "profile": [
            "http://hl7.eu/fhir/laboratory/StructureDefinition/ServiceRequest-eu-lab"
          ]
        },
        "identifier": [
          {
            "system": "http://example.org",
            "value": "c34ef1d1-eb16-47f5-8651-20b0d84bbab5"
          }
        ],
        "specimen": [
          {
            "reference": "urn:uuid:6c77cfb4-e2f3-471d-bba2-8d0d9e2bbb55"
          },
          {
            "reference": "urn:uuid:da8f28fa-9d50-4658-b9e1-1470ad621a5b"
          },
          {
            "reference": "urn:uuid:4adc01f7-7835-4f11-ac50-6ba4213553e4"
          }
        ],
        "reasonCode": [
          {
            "coding": [
              {
                "code": "55822004",
                "system": "http://snomed.info/sct",
                "display": "Hyperlipidemia"
              }
            ]
          },
          {
            "coding": [
              {
                "code": "433144002",
                "system": "http://snomed.info/sct",
                "display": "Chronic kidney disease stage 3"
              }
            ]
          },
          {
            "coding": [
              {
                "code": "157141000119108",
                "system": "http://snomed.info/sct",
                "display": "Proteinuria due to type 2 diabetes mellitus"
              }
            ]
          },
          {
            "coding": [
              {
                "code": "431856006",
                "system": "http://snomed.info/sct",
                "display": "Chronic kidney disease stage 2"
              }
            ]
          },
          {
            "coding": [
              {
                "code": "90781000119102",
                "system": "http://snomed.info/sct",
                "display": "Microalbuminuria due to type 2 diabetes mellitus"
              }
            ]
          },
          {
            "coding": [
              {
                "code": "127013003",
                "system": "http://snomed.info/sct",
                "display": "Disorder of kidney due to diabetes mellitus"
              }
            ]
          },
          {
            "coding": [
              {
                "code": "431855005",
                "system": "http://snomed.info/sct",
                "display": "Chronic kidney disease stage 1"
              }
            ]
          },
          {
            "coding": [
              {
                "code": "237602007",
                "system": "http://snomed.info/sct",
                "display": "Metabolic syndrome X"
              }
            ]
          },
          {
            "coding": [
              {
                "code": "271737000",
                "system": "http://snomed.info/sct",
                "display": "Anemia"
              }
            ]
          },
          {
            "coding": [
              {
                "code": "15777000",
                "system": "http://snomed.info/sct",
                "display": "Prediabetes"
              }
            ]
          },
          {
            "coding": [
              {
                "code": "59621000",
                "system": "http://snomed.info/sct",
                "display": "Essential hypertension"
              }
            ]
          }
        ],
        "status": "active",
        "intent": "order",
        "code": {
          "coding": [
            {
              "code": "108252007",
              "system": "http://snomed.info/sct",
              "display": "Laboratory procedure"
            }
          ]
        },
        "subject": {
          "reference": "urn:uuid:dda7b680-3bd0-4e9d-bed3-6b571d3a3099",
          "display": "Meaghan Neary"
        },
        "requester": {
          "reference": "urn:uuid:2aa63ed2-d3eb-4e53-9e54-1cc900c3204c"
        }
      }
    },
    {
      "fullUrl": "urn:uuid:2aa63ed2-d3eb-4e53-9e54-1cc900c3204c",
      "resource": {
        "resourceType": "PractitionerRole",
        "id": "2aa63ed2-d3eb-4e53-9e54-1cc900c3204c",
        "meta": {
          "profile": [
            "http://hl7.eu/fhir/base/StructureDefinition/practitionerRole-eu"
          ]
        },
        "text": {
          "status": "generated",
          "div": "<div xmlns=\"http://www.w3.org/1999/xhtml\">Provider Role Id: 2aa63ed2-d3eb-4e53-9e54-1cc900c3204c</div>"
        },
        "organization": {
          "reference": "urn:uuid:3bc3f858-5f53-4581-9459-2c04f176e229"
        }
      }
    },
    {
      "fullUrl": "urn:uuid:3bc3f858-5f53-4581-9459-2c04f176e229",
      "resource": {
        "resourceType": "Organization",
        "id": "3bc3f858-5f53-4581-9459-2c04f176e229",
        "meta": {
          "profile": [
            "http://hl7.eu/fhir/base/StructureDefinition/organization-eu"
          ]
        },
        "identifier": [
          {
            "assigner": {
              "display": "HL7 Europe"
            },
            "system": "urn:oid:2.16.840.1.113883.2.51.999",
            "value": "9adb312a-c83e-4edd-b558-e6ce1011076a"
          }
        ],
        "address": [
          {
            "line": [
              "Parnell Square West nan"
            ],
            "city": "Dublin",
            "postalCode": "D01",
            "country": "Ireland"
          }
        ],
        "text": {
          "status": "generated",
          "div": "<div xmlns=\"http://www.w3.org/1999/xhtml\">Provider Organization: Rotunda Hospital</div>"
        },
        "name": "Rotunda Hospital"
      }
    },
    {
      "fullUrl": "urn:uuid:6c77cfb4-e2f3-471d-bba2-8d0d9e2bbb55",
      "resource": {
        "resourceType": "Specimen",
        "id": "6c77cfb4-e2f3-471d-bba2-8d0d9e2bbb55",
        "meta": {
          "profile": [
            "http://hl7.eu/fhir/laboratory/StructureDefinition/Specimen-eu-lab"
          ]
        },
        "collection": {
          "collectedDateTime": "2016-10-31"
        },
        "text": {
          "status": "generated",
          "div": "<div xmlns=\"http://www.w3.org/1999/xhtml\"><table class=\"hl7__eu__lab__report\"><tr><th>Specimen</th><th>Collection Date</th></tr><tr><td>Acellular blood (serum or plasma) specimen</td><td><span class=\"nb\">31-Oct-2016</span></td></tr></table></div>"
        },
        "type": {
          "coding": [
            {
              "code": "122592007",
              "system": "http://snomed.info/sct",
              "display": "Acellular blood (serum or plasma) specimen"
            }
          ]
        }
      }
    },
    {
      "fullUrl": "urn:uuid:da8f28fa-9d50-4658-b9e1-1470ad621a5b",
      "resource": {
        "resourceType": "Specimen",
        "id": "da8f28fa-9d50-4658-b9e1-1470ad621a5b",
        "meta": {
          "profile": [
            "http://hl7.eu/fhir/laboratory/StructureDefinition/Specimen-eu-lab"
          ]
        },
        "collection": {
          "collectedDateTime": "2016-10-31"
        },
        "text": {
          "status": "generated",
          "div": "<div xmlns=\"http://www.w3.org/1999/xhtml\"><table class=\"hl7__eu__lab__report\"><tr><th>Specimen</th><th>Collection Date</th></tr><tr><td>Urine specimen</td><td><span class=\"nb\">31-Oct-2016</span></td></tr></table></div>"
        },
        "type": {
          "coding": [
            {
              "code": "122575003",
              "system": "http://snomed.info/sct",
              "display": "Urine specimen"
            }
          ]
        }
      }
    },
    {
      "fullUrl": "urn:uuid:4adc01f7-7835-4f11-ac50-6ba4213553e4",
      "resource": {
        "resourceType": "Specimen",
        "id": "4adc01f7-7835-4f11-ac50-6ba4213553e4",
        "meta": {
          "profile": [
            "http://hl7.eu/fhir/laboratory/StructureDefinition/Specimen-eu-lab"
          ]
        },
        "collection": {
          "collectedDateTime": "2016-10-31"
        },
        "text": {
          "status": "generated",
          "div": "<div xmlns=\"http://www.w3.org/1999/xhtml\"><table class=\"hl7__eu__lab__report\"><tr><th>Specimen</th><th>Collection Date</th></tr><tr><td>Whole blood specimen (specimen)</td><td><span class=\"nb\">31-Oct-2016</span></td></tr></table></div>"
        },
        "type": {
          "coding": [
            {
              "code": "258580003",
              "system": "http://snomed.info/sct",
              "display": "Whole blood specimen (specimen)"
            }
          ]
        }
      }
    },
    {
      "fullUrl": "urn:uuid:c832161b-ef08-466e-8231-7bd6c4ffc1e7",
      "resource": {
        "resourceType": "Observation",
        "id": "c832161b-ef08-466e-8231-7bd6c4ffc1e7",
        "meta": {
          "profile": [
            "http://hl7.eu/fhir/laboratory/StructureDefinition/Observation-resultslab-eu-lab"
          ]
        },
        "performer": [
          {
            "display": "The Central European Lab"
          }
        ],
        "category": [
          {
            "coding": [
              {
                "system": "http://terminology.hl7.org/CodeSystem/observation-category",
                "code": "laboratory"
              }
            ]
          }
        ],
        "code": {
          "coding": [
            {
              "code": "2345-7",
              "system": "http://loinc.org",
              "display": "Glucose [Mass/volume] in Serum or Plasma"
            }
          ],
          "text": "Glucose [Mass/volume] in Serum or Plasma"
        },
        "valueQuantity": {
          "system": "http://unitsofmeasure.org",
          "value": 78.8,
          "unit": "mg/dL",
          "code": "mg/dL"
        },
        "referenceRange": [
          {
            "low": {
              "value": 70,
              "code": "mg/dL",
              "system": "http://unitsofmeasure.org"
            }
          },
          {
            "high": {
              "value": 99,
              "code": "mg/dL",
              "system": "http://unitsofmeasure.org"
            }
          }
        ],
        "text": {
          "status": "generated",
          "div": "<div xmlns=\"http://www.w3.org/1999/xhtml\"><table class=\"hl7__eu__lab__report\"><tr><th>Test</th><th>31-Oct-2016</th><th>Reference&#xA0;Range</th><th>Unit</th></tr><tr><td>Glucose [Mass/volume] in Serum or Plasma</td><td>78.8</td><td>70 - 99</td><td></td><td>mg/dL</td></tr></table></div>"
        },
        "status": "final",
        "subject": {
          "reference": "urn:uuid:dda7b680-3bd0-4e9d-bed3-6b571d3a3099",
          "display": "Meaghan Neary"
        },
        "effectiveDateTime": "2016-10-31T22:11:04Z",
        "specimen": {
          "reference": "urn:uuid:6c77cfb4-e2f3-471d-bba2-8d0d9e2bbb55"
        }
      }
    },
    {
      "fullUrl": "urn:uuid:8c6aca16-15b7-426f-ab84-0036e7740aab",
      "resource": {
        "resourceType": "Observation",
        "id": "8c6aca16-15b7-426f-ab84-0036e7740aab",
        "meta": {
          "profile": [
            "http://hl7.eu/fhir/laboratory/StructureDefinition/Observation-resultslab-eu-lab"
          ]
        },
        "performer": [
          {
            "display": "The Central European Lab"
          }
        ],
        "category": [
          {
            "coding": [
              {
                "system": "http://terminology.hl7.org/CodeSystem/observation-category",
                "code": "laboratory"
              }
            ]
          }
        ],
        "code": {
          "coding": [
            {
              "code": "3094-0",
              "system": "http://loinc.org",
              "display": "Urea nitrogen [Mass/volume] in Serum or Plasma"
            }
          ],
          "text": "Urea nitrogen [Mass/volume] in Serum or Plasma"
        },
        "valueQuantity": {
          "system": "http://unitsofmeasure.org",
          "value": 15.7,
          "unit": "mg/dL",
          "code": "mg/dL"
        },
        "referenceRange": [
          {
            "low": {
              "value": 7,
              "code": "mg/dL",
              "system": "http://unitsofmeasure.org"
            }
          },
          {
            "high": {
              "value": 50,
              "code": "mg/dL",
              "system": "http://unitsofmeasure.org"
            }
          }
        ],
        "text": {
          "status": "generated",
          "div": "<div xmlns=\"http://www.w3.org/1999/xhtml\"><table class=\"hl7__eu__lab__report\"><tr><th>Test</th><th>31-Oct-2016</th><th>Reference&#xA0;Range</th><th>Unit</th></tr><tr><td>Urea nitrogen [Mass/volume] in Serum or Plasma</td><td>15.7</td><td>7 - 50</td><td></td><td>mg/dL</td></tr></table></div>"
        },
        "status": "final",
        "subject": {
          "reference": "urn:uuid:dda7b680-3bd0-4e9d-bed3-6b571d3a3099",
          "display": "Meaghan Neary"
        },
        "effectiveDateTime": "2016-10-31T22:11:04Z",
        "specimen": {
          "reference": "urn:uuid:6c77cfb4-e2f3-471d-bba2-8d0d9e2bbb55"
        }
      }
    },
    {
      "fullUrl": "urn:uuid:1487f15d-0b58-499d-9041-a66b278b956b",
      "resource": {
        "resourceType": "Observation",
        "id": "1487f15d-0b58-499d-9041-a66b278b956b",
        "meta": {
          "profile": [
            "http://hl7.eu/fhir/laboratory/StructureDefinition/Observation-resultslab-eu-lab"
          ]
        },
        "performer": [
          {
            "display": "The Central European Lab"
          }
        ],
        "category": [
          {
            "coding": [
              {
                "system": "http://terminology.hl7.org/CodeSystem/observation-category",
                "code": "laboratory"
              }
            ]
          }
        ],
        "code": {
          "coding": [
            {
              "code": "2160-0",
              "system": "http://loinc.org",
              "display": "Creatinine [Mass/volume] in Serum or Plasma"
            }
          ],
          "text": "Creatinine [Mass/volume] in Serum or Plasma"
        },
        "valueQuantity": {
          "system": "http://unitsofmeasure.org",
          "value": 2,
          "unit": "mg/dL",
          "code": "mg/dL"
        },
        "referenceRange": [
          {
            "low": {
              "value": 0.6,
              "code": "mg/dL",
              "system": "http://unitsofmeasure.org"
            }
          },
          {
            "high": {
              "value": 1.1,
              "code": "mg/dL",
              "system": "http://unitsofmeasure.org"
            }
          }
        ],
        "interpretation": [
          {
            "coding": [
              {
                "code": "H",
                "system": "http://terminology.hl7.org/CodeSystem/v3-ObservationInterpretation",
                "display": "High"
              }
            ]
          }
        ],
        "text": {
          "status": "generated",
          "div": "<div xmlns=\"http://www.w3.org/1999/xhtml\"><table class=\"hl7__eu__lab__report\"><tr><th>Test</th><th>31-Oct-2016</th><th>Reference&#xA0;Range</th><th>Unit</th></tr><tr><td>Creatinine [Mass/volume] in Serum or Plasma</td><td>2.0</td><td>0.6 - 1.1</td><td>H</td><td>mg/dL</td></tr></table></div>"
        },
        "status": "final",
        "subject": {
          "reference": "urn:uuid:dda7b680-3bd0-4e9d-bed3-6b571d3a3099",
          "display": "Meaghan Neary"
        },
        "effectiveDateTime": "2016-10-31T22:11:04Z",
        "specimen": {
          "reference": "urn:uuid:6c77cfb4-e2f3-471d-bba2-8d0d9e2bbb55"
        }
      }
    },
    {
      "fullUrl": "urn:uuid:fda1dc94-8664-43d4-8bab-765b085835e0",
      "resource": {
        "resourceType": "Observation",
        "id": "fda1dc94-8664-43d4-8bab-765b085835e0",
        "meta": {
          "profile": [
            "http://hl7.eu/fhir/laboratory/StructureDefinition/Observation-resultslab-eu-lab"
          ]
        },
        "performer": [
          {
            "display": "The Central European Lab"
          }
        ],
        "category": [
          {
            "coding": [
              {
                "system": "http://terminology.hl7.org/CodeSystem/observation-category",
                "code": "laboratory"
              }
            ]
          }
        ],
        "code": {
          "coding": [
            {
              "code": "17861-6",
              "system": "http://loinc.org",
              "display": "Calcium [Mass/volume] in Serum or Plasma"
            }
          ],
          "text": "Calcium [Mass/volume] in Serum or Plasma"
        },
        "valueQuantity": {
          "system": "http://unitsofmeasure.org",
          "value": 8.6,
          "unit": "mg/dL",
          "code": "mg/dL"
        },
        "referenceRange": [
          {
            "low": {
              "value": 8.6,
              "code": "mg/dL",
              "system": "http://unitsofmeasure.org"
            }
          },
          {
            "high": {
              "value": 10.4,
              "code": "mg/dL",
              "system": "http://unitsofmeasure.org"
            }
          }
        ],
        "text": {
          "status": "generated",
          "div": "<div xmlns=\"http://www.w3.org/1999/xhtml\"><table class=\"hl7__eu__lab__report\"><tr><th>Test</th><th>31-Oct-2016</th><th>Reference&#xA0;Range</th><th>Unit</th></tr><tr><td>Calcium [Mass/volume] in Serum or Plasma</td><td>8.6</td><td>8.6 - 10.4</td><td></td><td>mg/dL</td></tr></table></div>"
        },
        "status": "final",
        "subject": {
          "reference": "urn:uuid:dda7b680-3bd0-4e9d-bed3-6b571d3a3099",
          "display": "Meaghan Neary"
        },
        "effectiveDateTime": "2016-10-31T22:11:04Z",
        "specimen": {
          "reference": "urn:uuid:6c77cfb4-e2f3-471d-bba2-8d0d9e2bbb55"
        }
      }
    },
    {
      "fullUrl": "urn:uuid:52070fab-a481-4485-8fd0-05a9f0faf79a",
      "resource": {
        "resourceType": "Observation",
        "id": "52070fab-a481-4485-8fd0-05a9f0faf79a",
        "meta": {
          "profile": [
            "http://hl7.eu/fhir/laboratory/StructureDefinition/Observation-resultslab-eu-lab"
          ]
        },
        "performer": [
          {
            "display": "The Central European Lab"
          }
        ],
        "category": [
          {
            "coding": [
              {
                "system": "http://terminology.hl7.org/CodeSystem/observation-category",
                "code": "laboratory"
              }
            ]
          }
        ],
        "code": {
          "coding": [
            {
              "code": "2951-2",
              "system": "http://loinc.org",
              "display": "Sodium [Moles/volume] in Serum or Plasma"
            }
          ],
          "text": "Sodium [Moles/volume] in Serum or Plasma"
        },
        "valueQuantity": {
          "system": "http://unitsofmeasure.org",
          "value": 141.2,
          "unit": "mmol/L",
          "code": "mmol/L"
        },
        "referenceRange": [
          {
            "low": {
              "value": 135,
              "code": "mmol/L",
              "system": "http://unitsofmeasure.org"
            }
          },
          {
            "high": {
              "value": 145,
              "code": "mmol/L",
              "system": "http://unitsofmeasure.org"
            }
          }
        ],
        "text": {
          "status": "generated",
          "div": "<div xmlns=\"http://www.w3.org/1999/xhtml\"><table class=\"hl7__eu__lab__report\"><tr><th>Test</th><th>31-Oct-2016</th><th>Reference&#xA0;Range</th><th>Unit</th></tr><tr><td>Sodium [Moles/volume] in Serum or Plasma</td><td>141.2</td><td>135 - 145</td><td></td><td>mmol/L</td></tr></table></div>"
        },
        "status": "final",
        "subject": {
          "reference": "urn:uuid:dda7b680-3bd0-4e9d-bed3-6b571d3a3099",
          "display": "Meaghan Neary"
        },
        "effectiveDateTime": "2016-10-31T22:11:04Z",
        "specimen": {
          "reference": "urn:uuid:6c77cfb4-e2f3-471d-bba2-8d0d9e2bbb55"
        }
      }
    },
    {
      "fullUrl": "urn:uuid:b95f9ab7-9b0d-47b6-9104-d0dcd7657afe",
      "resource": {
        "resourceType": "Observation",
        "id": "b95f9ab7-9b0d-47b6-9104-d0dcd7657afe",
        "meta": {
          "profile": [
            "http://hl7.eu/fhir/laboratory/StructureDefinition/Observation-resultslab-eu-lab"
          ]
        },
        "performer": [
          {
            "display": "The Central European Lab"
          }
        ],
        "category": [
          {
            "coding": [
              {
                "system": "http://terminology.hl7.org/CodeSystem/observation-category",
                "code": "laboratory"
              }
            ]
          }
        ],
        "code": {
          "coding": [
            {
              "code": "2823-3",
              "system": "http://loinc.org",
              "display": "Potassium [Moles/volume] in Serum or Plasma"
            }
          ],
          "text": "Potassium [Moles/volume] in Serum or Plasma"
        },
        "valueQuantity": {
          "system": "http://unitsofmeasure.org",
          "value": 4.6,
          "unit": "mmol/L",
          "code": "mmol/L"
        },
        "referenceRange": [
          {
            "low": {
              "value": 3.5,
              "code": "mmol/L",
              "system": "http://unitsofmeasure.org"
            }
          },
          {
            "high": {
              "value": 5.1,
              "code": "mmol/L",
              "system": "http://unitsofmeasure.org"
            }
          }
        ],
        "text": {
          "status": "generated",
          "div": "<div xmlns=\"http://www.w3.org/1999/xhtml\"><table class=\"hl7__eu__lab__report\"><tr><th>Test</th><th>31-Oct-2016</th><th>Reference&#xA0;Range</th><th>Unit</th></tr><tr><td>Potassium [Moles/volume] in Serum or Plasma</td><td>4.6</td><td>3.5 - 5.1</td><td></td><td>mmol/L</td></tr></table></div>"
        },
        "status": "final",
        "subject": {
          "reference": "urn:uuid:dda7b680-3bd0-4e9d-bed3-6b571d3a3099",
          "display": "Meaghan Neary"
        },
        "effectiveDateTime": "2016-10-31T22:11:04Z",
        "specimen": {
          "reference": "urn:uuid:6c77cfb4-e2f3-471d-bba2-8d0d9e2bbb55"
        }
      }
    },
    {
      "fullUrl": "urn:uuid:4cf37d84-4035-4290-9937-263a96bb4626",
      "resource": {
        "resourceType": "Observation",
        "id": "4cf37d84-4035-4290-9937-263a96bb4626",
        "meta": {
          "profile": [
            "http://hl7.eu/fhir/laboratory/StructureDefinition/Observation-resultslab-eu-lab"
          ]
        },
        "performer": [
          {
            "display": "The Central European Lab"
          }
        ],
        "category": [
          {
            "coding": [
              {
                "system": "http://terminology.hl7.org/CodeSystem/observation-category",
                "code": "laboratory"
              }
            ]
          }
        ],
        "code": {
          "coding": [
            {
              "code": "2075-0",
              "system": "http://loinc.org",
              "display": "Chloride [Moles/volume] in Serum or Plasma"
            }
          ],
          "text": "Chloride [Moles/volume] in Serum or Plasma"
        },
        "valueQuantity": {
          "system": "http://unitsofmeasure.org",
          "value": 109,
          "unit": "mmol/L",
          "code": "mmol/L"
        },
        "referenceRange": [
          {
            "low": {
              "value": 98,
              "code": "mmol/L",
              "system": "http://unitsofmeasure.org"
            }
          },
          {
            "high": {
              "value": 108,
              "code": "mmol/L",
              "system": "http://unitsofmeasure.org"
            }
          }
        ],
        "interpretation": [
          {
            "coding": [
              {
                "code": "H",
                "system": "http://terminology.hl7.org/CodeSystem/v3-ObservationInterpretation",
                "display": "High"
              }
            ]
          }
        ],
        "text": {
          "status": "generated",
          "div": "<div xmlns=\"http://www.w3.org/1999/xhtml\"><table class=\"hl7__eu__lab__report\"><tr><th>Test</th><th>31-Oct-2016</th><th>Reference&#xA0;Range</th><th>Unit</th></tr><tr><td>Chloride [Moles/volume] in Serum or Plasma</td><td>109.0</td><td>98 - 108</td><td>H</td><td>mmol/L</td></tr></table></div>"
        },
        "status": "final",
        "subject": {
          "reference": "urn:uuid:dda7b680-3bd0-4e9d-bed3-6b571d3a3099",
          "display": "Meaghan Neary"
        },
        "effectiveDateTime": "2016-10-31T22:11:04Z",
        "specimen": {
          "reference": "urn:uuid:6c77cfb4-e2f3-471d-bba2-8d0d9e2bbb55"
        }
      }
    },
    {
      "fullUrl": "urn:uuid:21ab123f-328c-4425-952a-9aa6c3fde68f",
      "resource": {
        "resourceType": "Observation",
        "id": "21ab123f-328c-4425-952a-9aa6c3fde68f",
        "meta": {
          "profile": [
            "http://hl7.eu/fhir/laboratory/StructureDefinition/Observation-resultslab-eu-lab"
          ]
        },
        "performer": [
          {
            "display": "The Central European Lab"
          }
        ],
        "category": [
          {
            "coding": [
              {
                "system": "http://terminology.hl7.org/CodeSystem/observation-category",
                "code": "laboratory"
              }
            ]
          }
        ],
        "code": {
          "coding": [
            {
              "code": "2028-9",
              "system": "http://loinc.org",
              "display": "Carbon dioxide, total [Moles/volume] in Serum or Plasma"
            }
          ],
          "text": "Carbon dioxide, total [Moles/volume] in Serum or Plasma"
        },
        "valueQuantity": {
          "system": "http://unitsofmeasure.org",
          "value": 25.8,
          "unit": "mmol/L",
          "code": "mmol/L"
        },
        "referenceRange": [
          {
            "low": {
              "value": 22,
              "code": "mmol/L",
              "system": "http://unitsofmeasure.org"
            }
          },
          {
            "high": {
              "value": 32,
              "code": "mmol/L",
              "system": "http://unitsofmeasure.org"
            }
          }
        ],
        "text": {
          "status": "generated",
          "div": "<div xmlns=\"http://www.w3.org/1999/xhtml\"><table class=\"hl7__eu__lab__report\"><tr><th>Test</th><th>31-Oct-2016</th><th>Reference&#xA0;Range</th><th>Unit</th></tr><tr><td>Carbon dioxide, total [Moles/volume] in Serum or Plasma</td><td>25.8</td><td>22 - 32</td><td></td><td>mmol/L</td></tr></table></div>"
        },
        "status": "final",
        "subject": {
          "reference": "urn:uuid:dda7b680-3bd0-4e9d-bed3-6b571d3a3099",
          "display": "Meaghan Neary"
        },
        "effectiveDateTime": "2016-10-31T22:11:04Z",
        "specimen": {
          "reference": "urn:uuid:6c77cfb4-e2f3-471d-bba2-8d0d9e2bbb55"
        }
      }
    },
    {
      "fullUrl": "urn:uuid:570da768-cdd6-4999-a5bb-8abe1bc7e0d2",
      "resource": {
        "resourceType": "Observation",
        "id": "570da768-cdd6-4999-a5bb-8abe1bc7e0d2",
        "meta": {
          "profile": [
            "http://hl7.eu/fhir/laboratory/StructureDefinition/Observation-resultslab-eu-lab"
          ]
        },
        "performer": [
          {
            "display": "The Central European Lab"
          }
        ],
        "category": [
          {
            "coding": [
              {
                "system": "http://terminology.hl7.org/CodeSystem/observation-category",
                "code": "laboratory"
              }
            ]
          }
        ],
        "code": {
          "coding": [
            {
              "code": "5767-9",
              "system": "http://loinc.org",
              "display": "Appearance of Urine"
            }
          ],
          "text": "Appearance of Urine"
        },
        "text": {
          "status": "generated",
          "div": "<div xmlns=\"http://www.w3.org/1999/xhtml\"><table class=\"hl7__eu__lab__report\"><tr><th>Test</th><th>31-Oct-2016</th><th>Reference&#xA0;Range</th><th>Unit</th></tr><tr><td>Appearance of Urine</td></tr></table></div>"
        },
        "status": "final",
        "subject": {
          "reference": "urn:uuid:dda7b680-3bd0-4e9d-bed3-6b571d3a3099",
          "display": "Meaghan Neary"
        },
        "effectiveDateTime": "2016-10-31T22:11:04Z",
        "specimen": {
          "reference": "urn:uuid:da8f28fa-9d50-4658-b9e1-1470ad621a5b"
        }
      }
    },
    {
      "fullUrl": "urn:uuid:fac89af4-0b75-4077-8b51-06847f94e900",
      "resource": {
        "resourceType": "Observation",
        "id": "fac89af4-0b75-4077-8b51-06847f94e900",
        "meta": {
          "profile": [
            "http://hl7.eu/fhir/laboratory/StructureDefinition/Observation-resultslab-eu-lab"
          ]
        },
        "performer": [
          {
            "display": "The Central European Lab"
          }
        ],
        "category": [
          {
            "coding": [
              {
                "system": "http://terminology.hl7.org/CodeSystem/observation-category",
                "code": "laboratory"
              }
            ]
          }
        ],
        "code": {
          "coding": [
            {
              "code": "34533-0",
              "system": "http://loinc.org",
              "display": "Odor of Urine"
            }
          ],
          "text": "Odor of Urine"
        },
        "text": {
          "status": "generated",
          "div": "<div xmlns=\"http://www.w3.org/1999/xhtml\"><table class=\"hl7__eu__lab__report\"><tr><th>Test</th><th>31-Oct-2016</th><th>Reference&#xA0;Range</th><th>Unit</th></tr><tr><td>Odor of Urine</td></tr></table></div>"
        },
        "status": "final",
        "subject": {
          "reference": "urn:uuid:dda7b680-3bd0-4e9d-bed3-6b571d3a3099",
          "display": "Meaghan Neary"
        },
        "effectiveDateTime": "2016-10-31T22:11:04Z",
        "specimen": {
          "reference": "urn:uuid:da8f28fa-9d50-4658-b9e1-1470ad621a5b"
        }
      }
    },
    {
      "fullUrl": "urn:uuid:6914dda9-7f5c-4233-b151-aa34075b4126",
      "resource": {
        "resourceType": "Observation",
        "id": "6914dda9-7f5c-4233-b151-aa34075b4126",
        "meta": {
          "profile": [
            "http://hl7.eu/fhir/laboratory/StructureDefinition/Observation-resultslab-eu-lab"
          ]
        },
        "performer": [
          {
            "display": "The Central European Lab"
          }
        ],
        "category": [
          {
            "coding": [
              {
                "system": "http://terminology.hl7.org/CodeSystem/observation-category",
                "code": "laboratory"
              }
            ]
          }
        ],
        "code": {
          "coding": [
            {
              "code": "32167-9",
              "system": "http://loinc.org",
              "display": "Clarity of Urine"
            }
          ],
          "text": "Clarity of Urine"
        },
        "text": {
          "status": "generated",
          "div": "<div xmlns=\"http://www.w3.org/1999/xhtml\"><table class=\"hl7__eu__lab__report\"><tr><th>Test</th><th>31-Oct-2016</th><th>Reference&#xA0;Range</th><th>Unit</th></tr><tr><td>Clarity of Urine</td></tr></table></div>"
        },
        "status": "final",
        "subject": {
          "reference": "urn:uuid:dda7b680-3bd0-4e9d-bed3-6b571d3a3099",
          "display": "Meaghan Neary"
        },
        "effectiveDateTime": "2016-10-31T22:11:04Z",
        "specimen": {
          "reference": "urn:uuid:da8f28fa-9d50-4658-b9e1-1470ad621a5b"
        }
      }
    },
    {
      "fullUrl": "urn:uuid:ed52fbb6-f0f4-4cc2-8970-75eed7340605",
      "resource": {
        "resourceType": "Observation",
        "id": "ed52fbb6-f0f4-4cc2-8970-75eed7340605",
        "meta": {
          "profile": [
            "http://hl7.eu/fhir/laboratory/StructureDefinition/Observation-resultslab-eu-lab"
          ]
        },
        "performer": [
          {
            "display": "The Central European Lab"
          }
        ],
        "category": [
          {
            "coding": [
              {
                "system": "http://terminology.hl7.org/CodeSystem/observation-category",
                "code": "laboratory"
              }
            ]
          }
        ],
        "code": {
          "coding": [
            {
              "code": "5778-6",
              "system": "http://loinc.org",
              "display": "Color of Urine"
            }
          ],
          "text": "Color of Urine"
        },
        "text": {
          "status": "generated",
          "div": "<div xmlns=\"http://www.w3.org/1999/xhtml\"><table class=\"hl7__eu__lab__report\"><tr><th>Test</th><th>31-Oct-2016</th><th>Reference&#xA0;Range</th><th>Unit</th></tr><tr><td>Color of Urine</td></tr></table></div>"
        },
        "status": "final",
        "subject": {
          "reference": "urn:uuid:dda7b680-3bd0-4e9d-bed3-6b571d3a3099",
          "display": "Meaghan Neary"
        },
        "effectiveDateTime": "2016-10-31T22:11:04Z",
        "specimen": {
          "reference": "urn:uuid:da8f28fa-9d50-4658-b9e1-1470ad621a5b"
        }
      }
    },
    {
      "fullUrl": "urn:uuid:2ae53a6b-0223-4b5c-9344-f505513ec5de",
      "resource": {
        "resourceType": "Observation",
        "id": "2ae53a6b-0223-4b5c-9344-f505513ec5de",
        "meta": {
          "profile": [
            "http://hl7.eu/fhir/laboratory/StructureDefinition/Observation-resultslab-eu-lab"
          ]
        },
        "performer": [
          {
            "display": "The Central European Lab"
          }
        ],
        "category": [
          {
            "coding": [
              {
                "system": "http://terminology.hl7.org/CodeSystem/observation-category",
                "code": "laboratory"
              }
            ]
          }
        ],
        "code": {
          "coding": [
            {
              "code": "5792-7",
              "system": "http://loinc.org",
              "display": "Glucose [Mass/volume] in Urine by Test strip"
            }
          ],
          "text": "Glucose [Mass/volume] in Urine by Test strip"
        },
        "valueQuantity": {
          "system": "http://unitsofmeasure.org",
          "value": 2.2,
          "unit": "mg/dL",
          "code": "mg/dL"
        },
        "referenceRange": [
          {
            "low": {
              "value": 0.8,
              "code": "mg/dL",
              "system": "http://unitsofmeasure.org"
            }
          },
          {
            "high": {
              "value": 0,
              "code": "mg/dL",
              "system": "http://unitsofmeasure.org"
            }
          }
        ],
        "interpretation": [
          {
            "coding": [
              {
                "code": "H",
                "system": "http://terminology.hl7.org/CodeSystem/v3-ObservationInterpretation",
                "display": "High"
              }
            ]
          }
        ],
        "text": {
          "status": "generated",
          "div": "<div xmlns=\"http://www.w3.org/1999/xhtml\"><table class=\"hl7__eu__lab__report\"><tr><th>Test</th><th>31-Oct-2016</th><th>Reference&#xA0;Range</th><th>Unit</th></tr><tr><td>Glucose [Mass/volume] in Urine by Test strip</td><td>2.2</td><td>0.8 - 0</td><td>H</td><td>mg/dL</td></tr></table></div>"
        },
        "status": "final",
        "subject": {
          "reference": "urn:uuid:dda7b680-3bd0-4e9d-bed3-6b571d3a3099",
          "display": "Meaghan Neary"
        },
        "effectiveDateTime": "2016-10-31T22:11:04Z",
        "specimen": {
          "reference": "urn:uuid:da8f28fa-9d50-4658-b9e1-1470ad621a5b"
        }
      }
    },
    {
      "fullUrl": "urn:uuid:76a957c1-df56-4bb0-8225-d15e2b62c499",
      "resource": {
        "resourceType": "Observation",
        "id": "76a957c1-df56-4bb0-8225-d15e2b62c499",
        "meta": {
          "profile": [
            "http://hl7.eu/fhir/laboratory/StructureDefinition/Observation-resultslab-eu-lab"
          ]
        },
        "performer": [
          {
            "display": "The Central European Lab"
          }
        ],
        "category": [
          {
            "coding": [
              {
                "system": "http://terminology.hl7.org/CodeSystem/observation-category",
                "code": "laboratory"
              }
            ]
          }
        ],
        "code": {
          "coding": [
            {
              "code": "25428-4",
              "system": "http://loinc.org",
              "display": "Glucose [Presence] in Urine by Test strip"
            }
          ],
          "text": "Glucose [Presence] in Urine by Test strip"
        },
        "text": {
          "status": "generated",
          "div": "<div xmlns=\"http://www.w3.org/1999/xhtml\"><table class=\"hl7__eu__lab__report\"><tr><th>Test</th><th>31-Oct-2016</th><th>Reference&#xA0;Range</th><th>Unit</th></tr><tr><td>Glucose [Presence] in Urine by Test strip</td></tr></table></div>"
        },
        "status": "final",
        "subject": {
          "reference": "urn:uuid:dda7b680-3bd0-4e9d-bed3-6b571d3a3099",
          "display": "Meaghan Neary"
        },
        "effectiveDateTime": "2016-10-31T22:11:04Z",
        "specimen": {
          "reference": "urn:uuid:da8f28fa-9d50-4658-b9e1-1470ad621a5b"
        }
      }
    },
    {
      "fullUrl": "urn:uuid:ea9da0d2-c4cf-4d03-a601-75dd40690690",
      "resource": {
        "resourceType": "Observation",
        "id": "ea9da0d2-c4cf-4d03-a601-75dd40690690",
        "meta": {
          "profile": [
            "http://hl7.eu/fhir/laboratory/StructureDefinition/Observation-resultslab-eu-lab"
          ]
        },
        "performer": [
          {
            "display": "The Central European Lab"
          }
        ],
        "category": [
          {
            "coding": [
              {
                "system": "http://terminology.hl7.org/CodeSystem/observation-category",
                "code": "laboratory"
              }
            ]
          }
        ],
        "code": {
          "coding": [
            {
              "code": "20505-4",
              "system": "http://loinc.org",
              "display": "Bilirubin.total [Mass/volume] in Urine by Test strip"
            }
          ],
          "text": "Bilirubin.total [Mass/volume] in Urine by Test strip"
        },
        "valueQuantity": {
          "system": "http://unitsofmeasure.org",
          "value": 0.8,
          "unit": "mg/dL",
          "code": "mg/dL"
        },
        "referenceRange": [
          {
            "low": {
              "value": 0,
              "code": "mg/dL",
              "system": "http://unitsofmeasure.org"
            }
          },
          {
            "high": {
              "value": 1,
              "code": "mg/dL",
              "system": "http://unitsofmeasure.org"
            }
          }
        ],
        "text": {
          "status": "generated",
          "div": "<div xmlns=\"http://www.w3.org/1999/xhtml\"><table class=\"hl7__eu__lab__report\"><tr><th>Test</th><th>31-Oct-2016</th><th>Reference&#xA0;Range</th><th>Unit</th></tr><tr><td>Bilirubin.total [Mass/volume] in Urine by Test strip</td><td>0.8</td><td>0 - 1</td><td></td><td>mg/dL</td></tr></table></div>"
        },
        "status": "final",
        "subject": {
          "reference": "urn:uuid:dda7b680-3bd0-4e9d-bed3-6b571d3a3099",
          "display": "Meaghan Neary"
        },
        "effectiveDateTime": "2016-10-31T22:11:04Z",
        "specimen": {
          "reference": "urn:uuid:da8f28fa-9d50-4658-b9e1-1470ad621a5b"
        }
      }
    },
    {
      "fullUrl": "urn:uuid:d56f8734-4ce0-4054-9b25-4c4ca0b5323f",
      "resource": {
        "resourceType": "Observation",
        "id": "d56f8734-4ce0-4054-9b25-4c4ca0b5323f",
        "meta": {
          "profile": [
            "http://hl7.eu/fhir/laboratory/StructureDefinition/Observation-resultslab-eu-lab"
          ]
        },
        "performer": [
          {
            "display": "The Central European Lab"
          }
        ],
        "category": [
          {
            "coding": [
              {
                "system": "http://terminology.hl7.org/CodeSystem/observation-category",
                "code": "laboratory"
              }
            ]
          }
        ],
        "code": {
          "coding": [
            {
              "code": "5770-3",
              "system": "http://loinc.org",
              "display": "Bilirubin.total [Presence] in Urine by Test strip"
            }
          ],
          "text": "Bilirubin.total [Presence] in Urine by Test strip"
        },
        "text": {
          "status": "generated",
          "div": "<div xmlns=\"http://www.w3.org/1999/xhtml\"><table class=\"hl7__eu__lab__report\"><tr><th>Test</th><th>31-Oct-2016</th><th>Reference&#xA0;Range</th><th>Unit</th></tr><tr><td>Bilirubin.total [Presence] in Urine by Test strip</td></tr></table></div>"
        },
        "status": "final",
        "subject": {
          "reference": "urn:uuid:dda7b680-3bd0-4e9d-bed3-6b571d3a3099",
          "display": "Meaghan Neary"
        },
        "effectiveDateTime": "2016-10-31T22:11:04Z",
        "specimen": {
          "reference": "urn:uuid:da8f28fa-9d50-4658-b9e1-1470ad621a5b"
        }
      }
    },
    {
      "fullUrl": "urn:uuid:56a0e71d-04d2-4a91-90cf-11e0da605264",
      "resource": {
        "resourceType": "Observation",
        "id": "56a0e71d-04d2-4a91-90cf-11e0da605264",
        "meta": {
          "profile": [
            "http://hl7.eu/fhir/laboratory/StructureDefinition/Observation-resultslab-eu-lab"
          ]
        },
        "performer": [
          {
            "display": "The Central European Lab"
          }
        ],
        "category": [
          {
            "coding": [
              {
                "system": "http://terminology.hl7.org/CodeSystem/observation-category",
                "code": "laboratory"
              }
            ]
          }
        ],
        "code": {
          "coding": [
            {
              "code": "5797-6",
              "system": "http://loinc.org",
              "display": "Ketones [Mass/volume] in Urine by Test strip"
            }
          ],
          "text": "Ketones [Mass/volume] in Urine by Test strip"
        },
        "valueQuantity": {
          "system": "http://unitsofmeasure.org",
          "value": 9.6,
          "unit": "mg/dL",
          "code": "mg/dL"
        },
        "referenceRange": [
          {
            "low": {
              "value": 0,
              "code": "mg/dL",
              "system": "http://unitsofmeasure.org"
            }
          },
          {
            "high": {
              "value": 4,
              "code": "mg/dL",
              "system": "http://unitsofmeasure.org"
            }
          }
        ],
        "interpretation": [
          {
            "coding": [
              {
                "code": "H",
                "system": "http://terminology.hl7.org/CodeSystem/v3-ObservationInterpretation",
                "display": "High"
              }
            ]
          }
        ],
        "text": {
          "status": "generated",
          "div": "<div xmlns=\"http://www.w3.org/1999/xhtml\"><table class=\"hl7__eu__lab__report\"><tr><th>Test</th><th>31-Oct-2016</th><th>Reference&#xA0;Range</th><th>Unit</th></tr><tr><td>Ketones [Mass/volume] in Urine by Test strip</td><td>9.6</td><td>0 - 4</td><td>H</td><td>mg/dL</td></tr></table></div>"
        },
        "status": "final",
        "subject": {
          "reference": "urn:uuid:dda7b680-3bd0-4e9d-bed3-6b571d3a3099",
          "display": "Meaghan Neary"
        },
        "effectiveDateTime": "2016-10-31T22:11:04Z",
        "specimen": {
          "reference": "urn:uuid:da8f28fa-9d50-4658-b9e1-1470ad621a5b"
        }
      }
    },
    {
      "fullUrl": "urn:uuid:625961cc-6aa7-499f-887a-3f2d9d4ab5d0",
      "resource": {
        "resourceType": "Observation",
        "id": "625961cc-6aa7-499f-887a-3f2d9d4ab5d0",
        "meta": {
          "profile": [
            "http://hl7.eu/fhir/laboratory/StructureDefinition/Observation-resultslab-eu-lab"
          ]
        },
        "performer": [
          {
            "display": "The Central European Lab"
          }
        ],
        "category": [
          {
            "coding": [
              {
                "system": "http://terminology.hl7.org/CodeSystem/observation-category",
                "code": "laboratory"
              }
            ]
          }
        ],
        "code": {
          "coding": [
            {
              "code": "2514-8",
              "system": "http://loinc.org",
              "display": "Ketones [Presence] in Urine by Test strip"
            }
          ],
          "text": "Ketones [Presence] in Urine by Test strip"
        },
        "text": {
          "status": "generated",
          "div": "<div xmlns=\"http://www.w3.org/1999/xhtml\"><table class=\"hl7__eu__lab__report\"><tr><th>Test</th><th>31-Oct-2016</th><th>Reference&#xA0;Range</th><th>Unit</th></tr><tr><td>Ketones [Presence] in Urine by Test strip</td></tr></table></div>"
        },
        "status": "final",
        "subject": {
          "reference": "urn:uuid:dda7b680-3bd0-4e9d-bed3-6b571d3a3099",
          "display": "Meaghan Neary"
        },
        "effectiveDateTime": "2016-10-31T22:11:04Z",
        "specimen": {
          "reference": "urn:uuid:da8f28fa-9d50-4658-b9e1-1470ad621a5b"
        }
      }
    },
    {
      "fullUrl": "urn:uuid:8738ecfd-e231-4ba1-9820-74d8e2201d34",
      "resource": {
        "resourceType": "Observation",
        "id": "8738ecfd-e231-4ba1-9820-74d8e2201d34",
        "meta": {
          "profile": [
            "http://hl7.eu/fhir/laboratory/StructureDefinition/Observation-resultslab-eu-lab"
          ]
        },
        "performer": [
          {
            "display": "The Central European Lab"
          }
        ],
        "category": [
          {
            "coding": [
              {
                "system": "http://terminology.hl7.org/CodeSystem/observation-category",
                "code": "laboratory"
              }
            ]
          }
        ],
        "code": {
          "coding": [
            {
              "code": "5811-5",
              "system": "http://loinc.org",
              "display": "Specific gravity of Urine by Test strip"
            }
          ],
          "text": "Specific gravity of Urine by Test strip"
        },
        "valueQuantity": {
          "system": "http://unitsofmeasure.org",
          "value": 1,
          "unit": "{nominal}",
          "code": "{nominal}"
        },
        "referenceRange": [
          {
            "low": {
              "value": 1.005,
              "code": "g/mL",
              "system": "http://unitsofmeasure.org"
            }
          },
          {
            "high": {
              "value": 1.03,
              "code": "g/mL",
              "system": "http://unitsofmeasure.org"
            }
          }
        ],
        "interpretation": [
          {
            "coding": [
              {
                "code": "L",
                "system": "http://terminology.hl7.org/CodeSystem/v3-ObservationInterpretation",
                "display": "Low"
              }
            ]
          }
        ],
        "text": {
          "status": "generated",
          "div": "<div xmlns=\"http://www.w3.org/1999/xhtml\"><table class=\"hl7__eu__lab__report\"><tr><th>Test</th><th>31-Oct-2016</th><th>Reference&#xA0;Range</th><th>Unit</th></tr><tr><td>Specific gravity of Urine by Test strip</td><td>1.0</td><td>1.005 - 1.03</td><td>L</td><td>{nominal}</td></tr></table></div>"
        },
        "status": "final",
        "subject": {
          "reference": "urn:uuid:dda7b680-3bd0-4e9d-bed3-6b571d3a3099",
          "display": "Meaghan Neary"
        },
        "effectiveDateTime": "2016-10-31T22:11:04Z",
        "specimen": {
          "reference": "urn:uuid:da8f28fa-9d50-4658-b9e1-1470ad621a5b"
        }
      }
    },
    {
      "fullUrl": "urn:uuid:fda0db13-06f4-4a64-8654-466f60a9dc2d",
      "resource": {
        "resourceType": "Observation",
        "id": "fda0db13-06f4-4a64-8654-466f60a9dc2d",
        "meta": {
          "profile": [
            "http://hl7.eu/fhir/laboratory/StructureDefinition/Observation-resultslab-eu-lab"
          ]
        },
        "performer": [
          {
            "display": "The Central European Lab"
          }
        ],
        "category": [
          {
            "coding": [
              {
                "system": "http://terminology.hl7.org/CodeSystem/observation-category",
                "code": "laboratory"
              }
            ]
          }
        ],
        "code": {
          "coding": [
            {
              "code": "5803-2",
              "system": "http://loinc.org",
              "display": "pH of Urine by Test strip"
            }
          ],
          "text": "pH of Urine by Test strip"
        },
        "valueQuantity": {
          "system": "http://unitsofmeasure.org",
          "value": 6,
          "unit": "pH",
          "code": "pH"
        },
        "referenceRange": [
          {
            "low": {
              "value": 4.6,
              "code": "pH",
              "system": "http://unitsofmeasure.org"
            }
          },
          {
            "high": {
              "value": 7,
              "code": "pH",
              "system": "http://unitsofmeasure.org"
            }
          }
        ],
        "text": {
          "status": "generated",
          "div": "<div xmlns=\"http://www.w3.org/1999/xhtml\"><table class=\"hl7__eu__lab__report\"><tr><th>Test</th><th>31-Oct-2016</th><th>Reference&#xA0;Range</th><th>Unit</th></tr><tr><td>pH of Urine by Test strip</td><td>6.0</td><td>4.6 - 7</td><td></td><td>pH</td></tr></table></div>"
        },
        "status": "final",
        "subject": {
          "reference": "urn:uuid:dda7b680-3bd0-4e9d-bed3-6b571d3a3099",
          "display": "Meaghan Neary"
        },
        "effectiveDateTime": "2016-10-31T22:11:04Z",
        "specimen": {
          "reference": "urn:uuid:da8f28fa-9d50-4658-b9e1-1470ad621a5b"
        }
      }
    },
    {
      "fullUrl": "urn:uuid:1930d186-26b8-4c6b-8f63-4c51f562fa6f",
      "resource": {
        "resourceType": "Observation",
        "id": "1930d186-26b8-4c6b-8f63-4c51f562fa6f",
        "meta": {
          "profile": [
            "http://hl7.eu/fhir/laboratory/StructureDefinition/Observation-resultslab-eu-lab"
          ]
        },
        "performer": [
          {
            "display": "The Central European Lab"
          }
        ],
        "category": [
          {
            "coding": [
              {
                "system": "http://terminology.hl7.org/CodeSystem/observation-category",
                "code": "laboratory"
              }
            ]
          }
        ],
        "code": {
          "coding": [
            {
              "code": "5804-0",
              "system": "http://loinc.org",
              "display": "Protein [Mass/volume] in Urine by Test strip"
            }
          ],
          "text": "Protein [Mass/volume] in Urine by Test strip"
        },
        "valueQuantity": {
          "system": "http://unitsofmeasure.org",
          "value": 212.6,
          "unit": "mg/dL",
          "code": "mg/dL"
        },
        "referenceRange": [
          {
            "low": {
              "value": 0,
              "code": "mg/dL",
              "system": "http://unitsofmeasure.org"
            }
          },
          {
            "high": {
              "value": 14,
              "code": "mg/dL",
              "system": "http://unitsofmeasure.org"
            }
          }
        ],
        "interpretation": [
          {
            "coding": [
              {
                "code": "H",
                "system": "http://terminology.hl7.org/CodeSystem/v3-ObservationInterpretation",
                "display": "High"
              }
            ]
          }
        ],
        "text": {
          "status": "generated",
          "div": "<div xmlns=\"http://www.w3.org/1999/xhtml\"><table class=\"hl7__eu__lab__report\"><tr><th>Test</th><th>31-Oct-2016</th><th>Reference&#xA0;Range</th><th>Unit</th></tr><tr><td>Protein [Mass/volume] in Urine by Test strip</td><td>212.6</td><td>0 - 14</td><td>H</td><td>mg/dL</td></tr></table></div>"
        },
        "status": "final",
        "subject": {
          "reference": "urn:uuid:dda7b680-3bd0-4e9d-bed3-6b571d3a3099",
          "display": "Meaghan Neary"
        },
        "effectiveDateTime": "2016-10-31T22:11:04Z",
        "specimen": {
          "reference": "urn:uuid:da8f28fa-9d50-4658-b9e1-1470ad621a5b"
        }
      }
    },
    {
      "fullUrl": "urn:uuid:caab9538-a136-47bd-8f43-0de12152e749",
      "resource": {
        "resourceType": "Observation",
        "id": "caab9538-a136-47bd-8f43-0de12152e749",
        "meta": {
          "profile": [
            "http://hl7.eu/fhir/laboratory/StructureDefinition/Observation-resultslab-eu-lab"
          ]
        },
        "performer": [
          {
            "display": "The Central European Lab"
          }
        ],
        "category": [
          {
            "coding": [
              {
                "system": "http://terminology.hl7.org/CodeSystem/observation-category",
                "code": "laboratory"
              }
            ]
          }
        ],
        "code": {
          "coding": [
            {
              "code": "20454-5",
              "system": "http://loinc.org",
              "display": "Protein [Presence] in Urine by Test strip"
            }
          ],
          "text": "Protein [Presence] in Urine by Test strip"
        },
        "text": {
          "status": "generated",
          "div": "<div xmlns=\"http://www.w3.org/1999/xhtml\"><table class=\"hl7__eu__lab__report\"><tr><th>Test</th><th>31-Oct-2016</th><th>Reference&#xA0;Range</th><th>Unit</th></tr><tr><td>Protein [Presence] in Urine by Test strip</td></tr></table></div>"
        },
        "status": "final",
        "subject": {
          "reference": "urn:uuid:dda7b680-3bd0-4e9d-bed3-6b571d3a3099",
          "display": "Meaghan Neary"
        },
        "effectiveDateTime": "2016-10-31T22:11:04Z",
        "specimen": {
          "reference": "urn:uuid:da8f28fa-9d50-4658-b9e1-1470ad621a5b"
        }
      }
    },
    {
      "fullUrl": "urn:uuid:251374fa-6222-4d84-80f0-ec528679969c",
      "resource": {
        "resourceType": "Observation",
        "id": "251374fa-6222-4d84-80f0-ec528679969c",
        "meta": {
          "profile": [
            "http://hl7.eu/fhir/laboratory/StructureDefinition/Observation-resultslab-eu-lab"
          ]
        },
        "performer": [
          {
            "display": "The Central European Lab"
          }
        ],
        "category": [
          {
            "coding": [
              {
                "system": "http://terminology.hl7.org/CodeSystem/observation-category",
                "code": "laboratory"
              }
            ]
          }
        ],
        "code": {
          "coding": [
            {
              "code": "5802-4",
              "system": "http://loinc.org",
              "display": "Nitrite [Presence] in Urine by Test strip"
            }
          ],
          "text": "Nitrite [Presence] in Urine by Test strip"
        },
        "text": {
          "status": "generated",
          "div": "<div xmlns=\"http://www.w3.org/1999/xhtml\"><table class=\"hl7__eu__lab__report\"><tr><th>Test</th><th>31-Oct-2016</th><th>Reference&#xA0;Range</th><th>Unit</th></tr><tr><td>Nitrite [Presence] in Urine by Test strip</td></tr></table></div>"
        },
        "status": "final",
        "subject": {
          "reference": "urn:uuid:dda7b680-3bd0-4e9d-bed3-6b571d3a3099",
          "display": "Meaghan Neary"
        },
        "effectiveDateTime": "2016-10-31T22:11:04Z",
        "specimen": {
          "reference": "urn:uuid:da8f28fa-9d50-4658-b9e1-1470ad621a5b"
        }
      }
    },
    {
      "fullUrl": "urn:uuid:ef9bbef5-aa86-4dff-a9b3-ae02496d81af",
      "resource": {
        "resourceType": "Observation",
        "id": "ef9bbef5-aa86-4dff-a9b3-ae02496d81af",
        "meta": {
          "profile": [
            "http://hl7.eu/fhir/laboratory/StructureDefinition/Observation-resultslab-eu-lab"
          ]
        },
        "performer": [
          {
            "display": "The Central European Lab"
          }
        ],
        "category": [
          {
            "coding": [
              {
                "system": "http://terminology.hl7.org/CodeSystem/observation-category",
                "code": "laboratory"
              }
            ]
          }
        ],
        "code": {
          "coding": [
            {
              "code": "5794-3",
              "system": "http://loinc.org",
              "display": "Hemoglobin [Presence] in Urine by Test strip"
            }
          ],
          "text": "Hemoglobin [Presence] in Urine by Test strip"
        },
        "text": {
          "status": "generated",
          "div": "<div xmlns=\"http://www.w3.org/1999/xhtml\"><table class=\"hl7__eu__lab__report\"><tr><th>Test</th><th>31-Oct-2016</th><th>Reference&#xA0;Range</th><th>Unit</th></tr><tr><td>Hemoglobin [Presence] in Urine by Test strip</td></tr></table></div>"
        },
        "status": "final",
        "subject": {
          "reference": "urn:uuid:dda7b680-3bd0-4e9d-bed3-6b571d3a3099",
          "display": "Meaghan Neary"
        },
        "effectiveDateTime": "2016-10-31T22:11:04Z",
        "specimen": {
          "reference": "urn:uuid:da8f28fa-9d50-4658-b9e1-1470ad621a5b"
        }
      }
    },
    {
      "fullUrl": "urn:uuid:69d326ec-8cd9-4d09-b4c1-95c45cc93514",
      "resource": {
        "resourceType": "Observation",
        "id": "69d326ec-8cd9-4d09-b4c1-95c45cc93514",
        "meta": {
          "profile": [
            "http://hl7.eu/fhir/laboratory/StructureDefinition/Observation-resultslab-eu-lab"
          ]
        },
        "performer": [
          {
            "display": "The Central European Lab"
          }
        ],
        "category": [
          {
            "coding": [
              {
                "system": "http://terminology.hl7.org/CodeSystem/observation-category",
                "code": "laboratory"
              }
            ]
          }
        ],
        "code": {
          "coding": [
            {
              "code": "5799-2",
              "system": "http://loinc.org",
              "display": "Leukocyte esterase [Presence] in Urine by Test strip"
            }
          ],
          "text": "Leukocyte esterase [Presence] in Urine by Test strip"
        },
        "text": {
          "status": "generated",
          "div": "<div xmlns=\"http://www.w3.org/1999/xhtml\"><table class=\"hl7__eu__lab__report\"><tr><th>Test</th><th>31-Oct-2016</th><th>Reference&#xA0;Range</th><th>Unit</th></tr><tr><td>Leukocyte esterase [Presence] in Urine by Test strip</td></tr></table></div>"
        },
        "status": "final",
        "subject": {
          "reference": "urn:uuid:dda7b680-3bd0-4e9d-bed3-6b571d3a3099",
          "display": "Meaghan Neary"
        },
        "effectiveDateTime": "2016-10-31T22:11:04Z",
        "specimen": {
          "reference": "urn:uuid:da8f28fa-9d50-4658-b9e1-1470ad621a5b"
        }
      }
    },
    {
      "fullUrl": "urn:uuid:03bcbaab-8f9c-4e8f-a305-4de05d2a84a8",
      "resource": {
        "resourceType": "Observation",
        "id": "03bcbaab-8f9c-4e8f-a305-4de05d2a84a8",
        "meta": {
          "profile": [
            "http://hl7.eu/fhir/laboratory/StructureDefinition/Observation-resultslab-eu-lab"
          ]
        },
        "performer": [
          {
            "display": "The Central European Lab"
          }
        ],
        "category": [
          {
            "coding": [
              {
                "system": "http://terminology.hl7.org/CodeSystem/observation-category",
                "code": "laboratory"
              }
            ]
          }
        ],
        "code": {
          "coding": [
            {
              "code": "4548-4",
              "system": "http://loinc.org",
              "display": "Hemoglobin A1c/Hemoglobin.total in Blood"
            }
          ],
          "text": "Hemoglobin A1c/Hemoglobin.total in Blood"
        },
        "valueQuantity": {
          "system": "http://unitsofmeasure.org",
          "value": 3.2,
          "unit": "%",
          "code": "%"
        },
        "referenceRange": [
          {
            "low": {
              "value": 4,
              "code": "%",
              "system": "http://unitsofmeasure.org"
            }
          },
          {
            "high": {
              "value": 6.4,
              "code": "%",
              "system": "http://unitsofmeasure.org"
            }
          }
        ],
        "interpretation": [
          {
            "coding": [
              {
                "code": "L",
                "system": "http://terminology.hl7.org/CodeSystem/v3-ObservationInterpretation",
                "display": "Low"
              }
            ]
          }
        ],
        "text": {
          "status": "generated",
          "div": "<div xmlns=\"http://www.w3.org/1999/xhtml\"><table class=\"hl7__eu__lab__report\"><tr><th>Test</th><th>31-Oct-2016</th><th>Reference&#xA0;Range</th><th>Unit</th></tr><tr><td>Hemoglobin A1c/Hemoglobin.total in Blood</td><td>3.2</td><td>4 - 6.4</td><td>L</td><td>%</td></tr></table></div>"
        },
        "status": "final",
        "subject": {
          "reference": "urn:uuid:dda7b680-3bd0-4e9d-bed3-6b571d3a3099",
          "display": "Meaghan Neary"
        },
        "effectiveDateTime": "2016-10-31T22:11:04Z",
        "specimen": {
          "reference": "urn:uuid:4adc01f7-7835-4f11-ac50-6ba4213553e4"
        }
      }
    },
    {
      "fullUrl": "urn:uuid:37cc5eff-28d3-4552-b047-2d6af3e83d64",
      "resource": {
        "resourceType": "Observation",
        "id": "37cc5eff-28d3-4552-b047-2d6af3e83d64",
        "meta": {
          "profile": [
            "http://hl7.eu/fhir/laboratory/StructureDefinition/Observation-resultslab-eu-lab"
          ]
        },
        "performer": [
          {
            "display": "The Central European Lab"
          }
        ],
        "category": [
          {
            "coding": [
              {
                "system": "http://terminology.hl7.org/CodeSystem/observation-category",
                "code": "laboratory"
              }
            ]
          }
        ],
        "code": {
          "coding": [
            {
              "code": "2339-0",
              "system": "http://loinc.org",
              "display": "Glucose [Mass/volume] in Blood"
            }
          ],
          "text": "Glucose [Mass/volume] in Blood"
        },
        "valueQuantity": {
          "system": "http://unitsofmeasure.org",
          "value": 78.8,
          "unit": "mg/dL",
          "code": "mg/dL"
        },
        "referenceRange": [
          {
            "low": {
              "value": 70,
              "code": "mg/dL",
              "system": "http://unitsofmeasure.org"
            }
          },
          {
            "high": {
              "value": 100,
              "code": "mg/dL",
              "system": "http://unitsofmeasure.org"
            }
          }
        ],
        "text": {
          "status": "generated",
          "div": "<div xmlns=\"http://www.w3.org/1999/xhtml\"><table class=\"hl7__eu__lab__report\"><tr><th>Test</th><th>31-Oct-2016</th><th>Reference&#xA0;Range</th><th>Unit</th></tr><tr><td>Glucose [Mass/volume] in Blood</td><td>78.8</td><td>70 - 100</td><td></td><td>mg/dL</td></tr></table></div>"
        },
        "status": "final",
        "subject": {
          "reference": "urn:uuid:dda7b680-3bd0-4e9d-bed3-6b571d3a3099",
          "display": "Meaghan Neary"
        },
        "effectiveDateTime": "2016-10-31T22:11:04Z",
        "specimen": {
          "reference": "urn:uuid:4adc01f7-7835-4f11-ac50-6ba4213553e4"
        }
      }
    },
    {
      "fullUrl": "urn:uuid:90e7579e-b676-42ba-9637-089a40d86147",
      "resource": {
        "resourceType": "Observation",
        "id": "90e7579e-b676-42ba-9637-089a40d86147",
        "meta": {
          "profile": [
            "http://hl7.eu/fhir/laboratory/StructureDefinition/Observation-resultslab-eu-lab"
          ]
        },
        "performer": [
          {
            "display": "The Central European Lab"
          }
        ],
        "category": [
          {
            "coding": [
              {
                "system": "http://terminology.hl7.org/CodeSystem/observation-category",
                "code": "laboratory"
              }
            ]
          }
        ],
        "code": {
          "coding": [
            {
              "code": "6299-2",
              "system": "http://loinc.org",
              "display": "Urea nitrogen [Mass/volume] in Blood"
            }
          ],
          "text": "Urea nitrogen [Mass/volume] in Blood"
        },
        "valueQuantity": {
          "system": "http://unitsofmeasure.org",
          "value": 15.7,
          "unit": "mg/dL",
          "code": "mg/dL"
        },
        "referenceRange": [
          {
            "low": {
              "value": 7,
              "code": "mg/dL",
              "system": "http://unitsofmeasure.org"
            }
          },
          {
            "high": {
              "value": 43,
              "code": "mg/dL",
              "system": "http://unitsofmeasure.org"
            }
          }
        ],
        "text": {
          "status": "generated",
          "div": "<div xmlns=\"http://www.w3.org/1999/xhtml\"><table class=\"hl7__eu__lab__report\"><tr><th>Test</th><th>31-Oct-2016</th><th>Reference&#xA0;Range</th><th>Unit</th></tr><tr><td>Urea nitrogen [Mass/volume] in Blood</td><td>15.7</td><td>7 - 43</td><td></td><td>mg/dL</td></tr></table></div>"
        },
        "status": "final",
        "subject": {
          "reference": "urn:uuid:dda7b680-3bd0-4e9d-bed3-6b571d3a3099",
          "display": "Meaghan Neary"
        },
        "effectiveDateTime": "2016-10-31T22:11:04Z",
        "specimen": {
          "reference": "urn:uuid:4adc01f7-7835-4f11-ac50-6ba4213553e4"
        }
      }
    },
    {
      "fullUrl": "urn:uuid:80849db8-1e8c-435a-88bd-6a3cf12d06a6",
      "resource": {
        "resourceType": "Observation",
        "id": "80849db8-1e8c-435a-88bd-6a3cf12d06a6",
        "meta": {
          "profile": [
            "http://hl7.eu/fhir/laboratory/StructureDefinition/Observation-resultslab-eu-lab"
          ]
        },
        "performer": [
          {
            "display": "The Central European Lab"
          }
        ],
        "category": [
          {
            "coding": [
              {
                "system": "http://terminology.hl7.org/CodeSystem/observation-category",
                "code": "laboratory"
              }
            ]
          }
        ],
        "code": {
          "coding": [
            {
              "code": "38483-4",
              "system": "http://loinc.org",
              "display": "Creatinine [Mass/volume] in Blood"
            }
          ],
          "text": "Creatinine [Mass/volume] in Blood"
        },
        "valueQuantity": {
          "system": "http://unitsofmeasure.org",
          "value": 1.5,
          "unit": "mg/dL",
          "code": "mg/dL"
        },
        "referenceRange": [
          {
            "low": {
              "value": 0.6,
              "code": "mg/dL",
              "system": "http://unitsofmeasure.org"
            }
          },
          {
            "high": {
              "value": 1.1,
              "code": "mg/dL",
              "system": "http://unitsofmeasure.org"
            }
          }
        ],
        "interpretation": [
          {
            "coding": [
              {
                "code": "H",
                "system": "http://terminology.hl7.org/CodeSystem/v3-ObservationInterpretation",
                "display": "High"
              }
            ]
          }
        ],
        "text": {
          "status": "generated",
          "div": "<div xmlns=\"http://www.w3.org/1999/xhtml\"><table class=\"hl7__eu__lab__report\"><tr><th>Test</th><th>31-Oct-2016</th><th>Reference&#xA0;Range</th><th>Unit</th></tr><tr><td>Creatinine [Mass/volume] in Blood</td><td>1.5</td><td>0.6 - 1.1</td><td>H</td><td>mg/dL</td></tr></table></div>"
        },
        "status": "final",
        "subject": {
          "reference": "urn:uuid:dda7b680-3bd0-4e9d-bed3-6b571d3a3099",
          "display": "Meaghan Neary"
        },
        "effectiveDateTime": "2016-10-31T22:11:04Z",
        "specimen": {
          "reference": "urn:uuid:4adc01f7-7835-4f11-ac50-6ba4213553e4"
        }
      }
    },
    {
      "fullUrl": "urn:uuid:bf9f93c0-a07f-4c3d-81ba-e78ab30aba21",
      "resource": {
        "resourceType": "Observation",
        "id": "bf9f93c0-a07f-4c3d-81ba-e78ab30aba21",
        "meta": {
          "profile": [
            "http://hl7.eu/fhir/laboratory/StructureDefinition/Observation-resultslab-eu-lab"
          ]
        },
        "performer": [
          {
            "display": "The Central European Lab"
          }
        ],
        "category": [
          {
            "coding": [
              {
                "system": "http://terminology.hl7.org/CodeSystem/observation-category",
                "code": "laboratory"
              }
            ]
          }
        ],
        "code": {
          "coding": [
            {
              "code": "49765-1",
              "system": "http://loinc.org",
              "display": "Calcium [Mass/volume] in Blood"
            }
          ],
          "text": "Calcium [Mass/volume] in Blood"
        },
        "valueQuantity": {
          "system": "http://unitsofmeasure.org",
          "value": 8.6,
          "unit": "mg/dL",
          "code": "mg/dL"
        },
        "referenceRange": [
          {
            "low": {
              "value": 8.5,
              "code": "mg/dL",
              "system": "http://unitsofmeasure.org"
            }
          },
          {
            "high": {
              "value": 10.5,
              "code": "mg/dL",
              "system": "http://unitsofmeasure.org"
            }
          }
        ],
        "text": {
          "status": "generated",
          "div": "<div xmlns=\"http://www.w3.org/1999/xhtml\"><table class=\"hl7__eu__lab__report\"><tr><th>Test</th><th>31-Oct-2016</th><th>Reference&#xA0;Range</th><th>Unit</th></tr><tr><td>Calcium [Mass/volume] in Blood</td><td>8.6</td><td>8.5 - 10.5</td><td></td><td>mg/dL</td></tr></table></div>"
        },
        "status": "final",
        "subject": {
          "reference": "urn:uuid:dda7b680-3bd0-4e9d-bed3-6b571d3a3099",
          "display": "Meaghan Neary"
        },
        "effectiveDateTime": "2016-10-31T22:11:04Z",
        "specimen": {
          "reference": "urn:uuid:4adc01f7-7835-4f11-ac50-6ba4213553e4"
        }
      }
    },
    {
      "fullUrl": "urn:uuid:5c220bf9-93e9-4de7-abe1-b6bb8478b28d",
      "resource": {
        "resourceType": "Observation",
        "id": "5c220bf9-93e9-4de7-abe1-b6bb8478b28d",
        "meta": {
          "profile": [
            "http://hl7.eu/fhir/laboratory/StructureDefinition/Observation-resultslab-eu-lab"
          ]
        },
        "performer": [
          {
            "display": "The Central European Lab"
          }
        ],
        "category": [
          {
            "coding": [
              {
                "system": "http://terminology.hl7.org/CodeSystem/observation-category",
                "code": "laboratory"
              }
            ]
          }
        ],
        "code": {
          "coding": [
            {
              "code": "2947-0",
              "system": "http://loinc.org",
              "display": "Sodium [Moles/volume] in Blood"
            }
          ],
          "text": "Sodium [Moles/volume] in Blood"
        },
        "valueQuantity": {
          "system": "http://unitsofmeasure.org",
          "value": 141.2,
          "unit": "mmol/L",
          "code": "mmol/L"
        },
        "referenceRange": [
          {
            "low": {
              "value": 135,
              "code": "mmol/L",
              "system": "http://unitsofmeasure.org"
            }
          },
          {
            "high": {
              "value": 145,
              "code": "mmol/L",
              "system": "http://unitsofmeasure.org"
            }
          }
        ],
        "text": {
          "status": "generated",
          "div": "<div xmlns=\"http://www.w3.org/1999/xhtml\"><table class=\"hl7__eu__lab__report\"><tr><th>Test</th><th>31-Oct-2016</th><th>Reference&#xA0;Range</th><th>Unit</th></tr><tr><td>Sodium [Moles/volume] in Blood</td><td>141.2</td><td>135 - 145</td><td></td><td>mmol/L</td></tr></table></div>"
        },
        "status": "final",
        "subject": {
          "reference": "urn:uuid:dda7b680-3bd0-4e9d-bed3-6b571d3a3099",
          "display": "Meaghan Neary"
        },
        "effectiveDateTime": "2016-10-31T22:11:04Z",
        "specimen": {
          "reference": "urn:uuid:4adc01f7-7835-4f11-ac50-6ba4213553e4"
        }
      }
    },
    {
      "fullUrl": "urn:uuid:0907a57a-c689-4096-830f-fb539baf1565",
      "resource": {
        "resourceType": "Observation",
        "id": "0907a57a-c689-4096-830f-fb539baf1565",
        "meta": {
          "profile": [
            "http://hl7.eu/fhir/laboratory/StructureDefinition/Observation-resultslab-eu-lab"
          ]
        },
        "performer": [
          {
            "display": "The Central European Lab"
          }
        ],
        "category": [
          {
            "coding": [
              {
                "system": "http://terminology.hl7.org/CodeSystem/observation-category",
                "code": "laboratory"
              }
            ]
          }
        ],
        "code": {
          "coding": [
            {
              "code": "6298-4",
              "system": "http://loinc.org",
              "display": "Potassium [Moles/volume] in Blood"
            }
          ],
          "text": "Potassium [Moles/volume] in Blood"
        },
        "valueQuantity": {
          "system": "http://unitsofmeasure.org",
          "value": 4.6,
          "unit": "mmol/L",
          "code": "mmol/L"
        },
        "referenceRange": [
          {
            "low": {
              "value": 3.5,
              "code": "mmol/L",
              "system": "http://unitsofmeasure.org"
            }
          },
          {
            "high": {
              "value": 5.1,
              "code": "mmol/L",
              "system": "http://unitsofmeasure.org"
            }
          }
        ],
        "text": {
          "status": "generated",
          "div": "<div xmlns=\"http://www.w3.org/1999/xhtml\"><table class=\"hl7__eu__lab__report\"><tr><th>Test</th><th>31-Oct-2016</th><th>Reference&#xA0;Range</th><th>Unit</th></tr><tr><td>Potassium [Moles/volume] in Blood</td><td>4.6</td><td>3.5 - 5.1</td><td></td><td>mmol/L</td></tr></table></div>"
        },
        "status": "final",
        "subject": {
          "reference": "urn:uuid:dda7b680-3bd0-4e9d-bed3-6b571d3a3099",
          "display": "Meaghan Neary"
        },
        "effectiveDateTime": "2016-10-31T22:11:04Z",
        "specimen": {
          "reference": "urn:uuid:4adc01f7-7835-4f11-ac50-6ba4213553e4"
        }
      }
    },
    {
      "fullUrl": "urn:uuid:efd14fc3-88ea-4c2c-933d-66d10e26509d",
      "resource": {
        "resourceType": "Observation",
        "id": "efd14fc3-88ea-4c2c-933d-66d10e26509d",
        "meta": {
          "profile": [
            "http://hl7.eu/fhir/laboratory/StructureDefinition/Observation-resultslab-eu-lab"
          ]
        },
        "performer": [
          {
            "display": "The Central European Lab"
          }
        ],
        "category": [
          {
            "coding": [
              {
                "system": "http://terminology.hl7.org/CodeSystem/observation-category",
                "code": "laboratory"
              }
            ]
          }
        ],
        "code": {
          "coding": [
            {
              "code": "2069-3",
              "system": "http://loinc.org",
              "display": "Chloride [Moles/volume] in Blood"
            }
          ],
          "text": "Chloride [Moles/volume] in Blood"
        },
        "valueQuantity": {
          "system": "http://unitsofmeasure.org",
          "value": 109,
          "unit": "mmol/L",
          "code": "mmol/L"
        },
        "referenceRange": [
          {
            "low": {
              "value": 98,
              "code": "mmol/L",
              "system": "http://unitsofmeasure.org"
            }
          },
          {
            "high": {
              "value": 108,
              "code": "mmol/L",
              "system": "http://unitsofmeasure.org"
            }
          }
        ],
        "interpretation": [
          {
            "coding": [
              {
                "code": "H",
                "system": "http://terminology.hl7.org/CodeSystem/v3-ObservationInterpretation",
                "display": "High"
              }
            ]
          }
        ],
        "text": {
          "status": "generated",
          "div": "<div xmlns=\"http://www.w3.org/1999/xhtml\"><table class=\"hl7__eu__lab__report\"><tr><th>Test</th><th>31-Oct-2016</th><th>Reference&#xA0;Range</th><th>Unit</th></tr><tr><td>Chloride [Moles/volume] in Blood</td><td>109.0</td><td>98 - 108</td><td>H</td><td>mmol/L</td></tr></table></div>"
        },
        "status": "final",
        "subject": {
          "reference": "urn:uuid:dda7b680-3bd0-4e9d-bed3-6b571d3a3099",
          "display": "Meaghan Neary"
        },
        "effectiveDateTime": "2016-10-31T22:11:04Z",
        "specimen": {
          "reference": "urn:uuid:4adc01f7-7835-4f11-ac50-6ba4213553e4"
        }
      }
    },
    {
      "fullUrl": "urn:uuid:4e35c483-c53a-4cc8-9f2c-d97bab4a1b02",
      "resource": {
        "resourceType": "Observation",
        "id": "4e35c483-c53a-4cc8-9f2c-d97bab4a1b02",
        "meta": {
          "profile": [
            "http://hl7.eu/fhir/laboratory/StructureDefinition/Observation-resultslab-eu-lab"
          ]
        },
        "performer": [
          {
            "display": "The Central European Lab"
          }
        ],
        "category": [
          {
            "coding": [
              {
                "system": "http://terminology.hl7.org/CodeSystem/observation-category",
                "code": "laboratory"
              }
            ]
          }
        ],
        "code": {
          "coding": [
            {
              "code": "20565-8",
              "system": "http://loinc.org",
              "display": "Carbon dioxide, total [Moles/volume] in Blood"
            }
          ],
          "text": "Carbon dioxide, total [Moles/volume] in Blood"
        },
        "valueQuantity": {
          "system": "http://unitsofmeasure.org",
          "value": 25.8,
          "unit": "mmol/L",
          "code": "mmol/L"
        },
        "referenceRange": [
          {
            "low": {
              "value": 22,
              "code": "mmol/L",
              "system": "http://unitsofmeasure.org"
            }
          },
          {
            "high": {
              "value": 29,
              "code": "mmol/L",
              "system": "http://unitsofmeasure.org"
            }
          }
        ],
        "text": {
          "status": "generated",
          "div": "<div xmlns=\"http://www.w3.org/1999/xhtml\"><table class=\"hl7__eu__lab__report\"><tr><th>Test</th><th>31-Oct-2016</th><th>Reference&#xA0;Range</th><th>Unit</th></tr><tr><td>Carbon dioxide, total [Moles/volume] in Blood</td><td>25.8</td><td>22 - 29</td><td></td><td>mmol/L</td></tr></table></div>"
        },
        "status": "final",
        "subject": {
          "reference": "urn:uuid:dda7b680-3bd0-4e9d-bed3-6b571d3a3099",
          "display": "Meaghan Neary"
        },
        "effectiveDateTime": "2016-10-31T22:11:04Z",
        "specimen": {
          "reference": "urn:uuid:4adc01f7-7835-4f11-ac50-6ba4213553e4"
        }
      }
    },
    {
      "fullUrl": "urn:uuid:f2952931-0bfe-4bc3-9fa0-98f97b8dfb55",
      "resource": {
        "resourceType": "Device",
        "id": "f2952931-0bfe-4bc3-9fa0-98f97b8dfb55",
        "deviceName": [
          {
            "name": "SYNDERAI Synthetic Generator",
            "type": "manufacturer-name"
          }
        ],
        "version": [
          {
            "value": "5.0"
          }
        ],
        "text": {
          "status": "generated",
          "div": "<div xmlns=\"http://www.w3.org/1999/xhtml\">SYNDERAI Synthetic Generator v5.0</div>"
        },
        "status": "active\"",
        "distinctIdentifier": "synderai-generator-50",
        "manufacturer": "SYNDERAI Project"
      }
    },
    {
      "fullUrl": "urn:uuid:9b9562f6-f669-42dd-915a-73d5a0a38894",
      "resource": {
        "resourceType": "Provenance",
        "id": "9b9562f6-f669-42dd-915a-73d5a0a38894",
        "target": [
          {
            "reference": "Patient/dda7b680-3bd0-4e9d-bed3-6b571d3a3099"
          },
          {
            "reference": "Bundle/d5168694-44be-401b-9601-933f91bba337"
          },
          {
            "reference": "Composition/6eb2a9f0-3241-4b06-aa5c-54f7d7724687"
          },
          {
            "reference": "PractitionerRole/5969e6f3-25d9-42d8-bcd2-cc842b89b3ff"
          },
          {
            "reference": "Practitioner/6c02629a-133d-4538-8655-303a773a952c"
          },
          {
            "reference": "PractitionerRole/2aa63ed2-d3eb-4e53-9e54-1cc900c3204c"
          },
          {
            "reference": "Organization/3bc3f858-5f53-4581-9459-2c04f176e229"
          }
        ],
        "activity": {
          "text": "Synthetic Example Data Generation"
        },
        "policy": [
          "https://synderai.net/synderai-synthetic-data-policy"
        ],
        "agent": [
          {
            "type": {
              "text": "author"
            },
            "who": {
              "reference": "Device/f2952931-0bfe-4bc3-9fa0-98f97b8dfb55"
            }
          }
        ],
        "reason": [
          {
            "text": "Interoperability Testing and Training (non-clinical use)"
          }
        ],
        "text": {
          "status": "generated",
          "div": "<div xmlns=\"http://www.w3.org/1999/xhtml\">Provenance for SYNDERAI Synthetic Example Data Resource</div>"
        },
        "recorded": "2016-10-31T23:11:04Z"
      }
    },
    {
      "fullUrl": "urn:uuid:5969e6f3-25d9-42d8-bcd2-cc842b89b3ff",
      "resource": {
        "resourceType": "PractitionerRole",
        "id": "5969e6f3-25d9-42d8-bcd2-cc842b89b3ff",
        "meta": {
          "profile": [
            "http://hl7.eu/fhir/base/StructureDefinition/practitionerRole-eu"
          ]
        },
        "text": {
          "status": "generated",
          "div": "<div xmlns=\"http://www.w3.org/1999/xhtml\">Laboratory Role Id: 5969e6f3-25d9-42d8-bcd2-cc842b89b3ff</div>"
        },
        "practitioner": {
          "reference": "urn:uuid:6c02629a-133d-4538-8655-303a773a952c"
        }
      }
    },
    {
      "fullUrl": "urn:uuid:6c02629a-133d-4538-8655-303a773a952c",
      "resource": {
        "resourceType": "Practitioner",
        "id": "6c02629a-133d-4538-8655-303a773a952c",
        "meta": {
          "profile": [
            "http://hl7.eu/fhir/base/StructureDefinition/practitioner-eu"
          ]
        },
        "identifier": [
          {
            "assigner": {
              "display": "HL7 Europe"
            },
            "system": "urn:oid:2.16.840.1.113883.2.51.999",
            "value": "e787c6da-94bf-4652-84d3-25b9e41acf7f"
          }
        ],
        "name": [
          {
            "prefix": [
              "dr"
            ],
            "given": [
              "Ex"
            ],
            "family": "Ample"
          }
        ],
        "address": [
          {
            "line": [
              "Laboratoire Central Europenne",
              "Boulevard du Jardin Botanique 32"
            ],
            "postalCode": "1000",
            "city": "Brussels",
            "country": "Belgium"
          }
        ],
        "text": {
          "status": "generated",
          "div": "<div xmlns=\"http://www.w3.org/1999/xhtml\">Laboratory: Laboratoire Central Europenne, 1000 Brussels, Belgium</div>"
        }
      }
    }
  ],
  "type": "document",
  "timestamp": "2016-10-31T23:11:04Z"
}
