<Bundle xmlns="http://hl7.org/fhir">
   <id value="d71a5db1-aaf5-4f94-b768-3f5a2c406360"/>
   <meta>
      <profile value="http://hl7.eu/fhir/laboratory/StructureDefinition/Bundle-eu-lab"/>
   </meta>
   <identifier>
      <system value="urn:oid:2.16.840.1.113883.2.51.999"/>
      <value value="a2e3d57b-3174-431f-86e5-f41448d1880f"/>
      <assigner>
         <display value="HL7 Europe"/>
      </assigner>
   </identifier>
   <type value="document"/>
   <timestamp value="2023-04-09T11:58:49Z"/>
   <entry>
      <fullUrl value="urn:uuid:ad552278-9409-4ab2-b0c4-92eb89e63699"/>
      <resource>
         <Composition>
            <id value="ad552278-9409-4ab2-b0c4-92eb89e63699"/>
            <meta>
               <profile value="http://hl7.eu/fhir/laboratory/StructureDefinition/Composition-eu-lab"/>
            </meta>
            <identifier>
               <system value="urn:oid:2.16.840.1.113883.2.51.999"/>
               <value value="fc59a18b-f14a-4f5e-824e-55d85cce90d0"/>
               <assigner>
                  <display value="HL7 Europe"/>
               </assigner>
            </identifier>
            <status value="final"/>
            <type>
               <coding>
                  <system value="http://loinc.org"/>
                  <code value="11502-2"/>
                  <display value="Laboratory report"/>
               </coding>
               <text value="Laboratory Report"/>
            </type>
            <category>
               <coding>
                  <system value="http://loinc.org"/>
                  <code value="26436-6"/>
                  <display value="Laboratory studies (set)"/>
               </coding>
            </category>
            <subject>
               <reference value="urn:uuid:b28fa40e-5d7b-4361-b35e-d6d67d379b33"/>
               <display value="Katy Johnston"/>
            </subject>
            <date value="2023-04-09T11:58:49Z"/>
            <author>
               <reference value="urn:uuid:19462b28-1960-4a6a-b8f5-86e1300d06ff"/>
            </author>
            <title value="Laboratory Report"/>
            <confidentiality value="N"/>
            <section>
               <title value="Laboratory Report"/>
               <code>
                  <coding>
                     <system value="http://loinc.org"/>
                     <code value="26436-6"/>
                     <display value="Laboratory studies (set)"/>
                  </coding>
                  <text value="Laboratory studies"/>
               </code>
               <section>
                  <title value="Chemistry"/>
                  <code>
                     <coding>
                        <system value="http://loinc.org"/>
                        <code value="$18719-5"/>
                        <display value="Chemistry studies (set)"/>
                     </coding>
                     <text value="Chemistry"/>
                  </code>
                  <text>
                     <status value="generated"/>
                     <div xmlns="http://www.w3.org/1999/xhtml">
                        <h3>Chemistry</h3>
                        <table class="hl7__eu__lab__report">
                           <thead>
                              <tr>
                                 <th>Test</th>
                                 <th>09-APR-2023</th>
                                 <th>Reference Range</th>
                                 <th>Unit</th>
                              </tr>
                           </thead>
                           <tbody>
                              <tr>
                                 <td>Hemoglobin A1c/Hemoglobin.total in Blood</td>
                                 <td>
                                    <strong>6.3 H</strong>
                                 </td>
                                 <td>4.8 - 5.7</td>
                                 <td>%</td>
                              </tr>
                              <tr>
                                 <td>Glucose [Mass/volume] in Blood</td>
                                 <td>92.2</td>
                                 <td>70 - 140</td>
                                 <td>mg/dL</td>
                              </tr>
                              <tr>
                                 <td>Urea nitrogen [Mass/volume] in Blood</td>
                                 <td>16.9</td>
                                 <td>7 - 20</td>
                                 <td>mg/dL</td>
                              </tr>
                              <tr>
                                 <td>Creatinine [Mass/volume] in Blood</td>
                                 <td>1.2</td>
                                 <td>0.6 - 1.2</td>
                                 <td>mg/dL</td>
                              </tr>
                              <tr>
                                 <td>Calcium [Mass/volume] in Blood</td>
                                 <td>8.8</td>
                                 <td>8.5 - 10.4</td>
                                 <td>mg/dL</td>
                              </tr>
                              <tr>
                                 <td>Sodium [Moles/volume] in Blood</td>
                                 <td>141.7</td>
                                 <td>135 - 145</td>
                                 <td>mmol/L</td>
                              </tr>
                              <tr>
                                 <td>Potassium [Moles/volume] in Blood</td>
                                 <td>5.1</td>
                                 <td>3.5 - 5.1</td>
                                 <td>mmol/L</td>
                              </tr>
                              <tr>
                                 <td>Chloride [Moles/volume] in Blood</td>
                                 <td>105.0</td>
                                 <td>98 - 107</td>
                                 <td>mmol/L</td>
                              </tr>
                              <tr>
                                 <td>Carbon dioxide, total [Moles/volume] in Blood</td>
                                 <td>23.2</td>
                                 <td>22 - 29</td>
                                 <td>mmol/L</td>
                              </tr>
                           </tbody>
                        </table>
                     </div>
                  </text>
                  <entry>
                     <reference value="urn:uuid:cc8ebcda-8383-481e-9589-f2420307c085"/>
                  </entry>
                  <entry>
                     <reference value="urn:uuid:6e8da045-15fc-4418-818a-5c8527c52673"/>
                  </entry>
                  <entry>
                     <reference value="urn:uuid:d156f98a-cf73-45cc-ba71-e2777f46295c"/>
                  </entry>
                  <entry>
                     <reference value="urn:uuid:859c907d-f531-4391-b62f-ef861eee9ebd"/>
                  </entry>
                  <entry>
                     <reference value="urn:uuid:d049196d-2af7-4246-86be-f2adc046b3e6"/>
                  </entry>
                  <entry>
                     <reference value="urn:uuid:92fbc49b-6b6e-41c1-8655-eec4a6604f03"/>
                  </entry>
                  <entry>
                     <reference value="urn:uuid:3a51a57c-9b35-4615-acde-6414eb5b918a"/>
                  </entry>
                  <entry>
                     <reference value="urn:uuid:c3b7c2b4-f79d-428c-af85-f2d2523f9691"/>
                  </entry>
                  <entry>
                     <reference value="urn:uuid:e83b12e9-f587-41d3-831e-c2a04c9889c7"/>
                  </entry>
               </section>
            </section>
            <section>
               <title value="Annotation comment"/>
               <code>
                  <coding>
                     <system value="http://loinc.org"/>
                     <code value="48767-8"/>
                     <display value="Annotation comment"/>
                  </coding>
               </code>
               <text>
                  <status value="generated"/>
                  <div xmlns="http://www.w3.org/1999/xhtml">
                     <h3>Annotation</h3>
                     <table class="hl7__eu__lab__report">
                        <tr>
                           <th>Conclusion and Recommendations based on this report and previous findings known to us</th>
                        </tr>
                        <tr>
                           <td>The only abnormal finding is a mildly elevated HbA1c (6.3%), indicating impaired glucose metabolism or possible prediabetes/early diabetes, despite a normal fasting glucose. Renal function, electrolytes, and other parameters are within normal limits. Recommend clinical correlation and consideration of further evaluation for glycemic control.</td>
                        </tr>
                     </table>
                  </div>
               </text>
            </section>
         </Composition>
      </resource>
   </entry>
   <entry>
      <fullUrl value="urn:uuid:5b4a9069-3117-43b7-b097-9aa703af0441"/>
      <resource>
         <DiagnosticReport>
            <id value="5b4a9069-3117-43b7-b097-9aa703af0441"/>
            <meta>
               <profile value="http://hl7.eu/fhir/laboratory/StructureDefinition/DiagnosticReport-eu-lab"/>
            </meta>
            <extension url="http://hl7.org/fhir/5.0/StructureDefinition/extension-DiagnosticReport.composition">
               <valueReference>
                  <reference value="urn:uuid:fc59a18b-f14a-4f5e-824e-55d85cce90d0"/>
               </valueReference>
            </extension>
            <identifier>
               <system value="urn:oid:2.16.840.1.113883.2.51.999"/>
               <value value="13f60bc3-5a4b-43b3-8409-c311d5f4cb0e"/>
               <assigner>
                  <display value="HL7 Europe"/>
               </assigner>
            </identifier>
            <status value="registered"/>
            <category>
               <coding>
                  <system value="http://loinc.org"/>
                  <code value="26436-6"/>
                  <display value="Laboratory studies (set)"/>
               </coding>
            </category>
            <code>
               <coding>
                  <system value="http://loinc.org"/>
                  <code value="11502-2"/>
                  <display value="Laboratory report"/>
               </coding>
            </code>
            <subject>
               <reference value="urn:uuid:b28fa40e-5d7b-4361-b35e-d6d67d379b33"/>
               <display value="Katy Johnston"/>
            </subject>
            <specimen>
               <reference value="urn:uuid:bc0ba909-cc0e-4eb0-8cd7-d0293d2131de"/>
            </specimen>
            <result>
               <reference value="urn:uuid:cc8ebcda-8383-481e-9589-f2420307c085"/>
            </result>
            <result>
               <reference value="urn:uuid:6e8da045-15fc-4418-818a-5c8527c52673"/>
            </result>
            <result>
               <reference value="urn:uuid:d156f98a-cf73-45cc-ba71-e2777f46295c"/>
            </result>
            <result>
               <reference value="urn:uuid:859c907d-f531-4391-b62f-ef861eee9ebd"/>
            </result>
            <result>
               <reference value="urn:uuid:d049196d-2af7-4246-86be-f2adc046b3e6"/>
            </result>
            <result>
               <reference value="urn:uuid:92fbc49b-6b6e-41c1-8655-eec4a6604f03"/>
            </result>
            <result>
               <reference value="urn:uuid:3a51a57c-9b35-4615-acde-6414eb5b918a"/>
            </result>
            <result>
               <reference value="urn:uuid:c3b7c2b4-f79d-428c-af85-f2d2523f9691"/>
            </result>
            <result>
               <reference value="urn:uuid:e83b12e9-f587-41d3-831e-c2a04c9889c7"/>
            </result>
         </DiagnosticReport>
      </resource>
   </entry>
   <entry>
      <fullUrl value="urn:uuid:b28fa40e-5d7b-4361-b35e-d6d67d379b33"/>
      <resource>
         <Patient>
            <id value="b28fa40e-5d7b-4361-b35e-d6d67d379b33"/>
            <meta>
               <profile value="http://hl7.eu/fhir/base/StructureDefinition/patient-eu-core"/>
               <security>
                  <system value="http://terminology.hl7.org/CodeSystem/v3-ActReason"/>
                  <code value="HTEST"/>
               </security>
               <security>
                  <system value="http://terminology.hl7.org/CodeSystem/v3-ActReason"/>
                  <code value="TRAIN"/>
               </security>
               <tag>
                  <system value="https://synderai.net/fhir/CodeSystem/tags"/>
                  <code value="synthetic"/>
                  <display value="SYNDERAI Synthetic data"/>
               </tag>
            </meta>
            <text>
               <status value="generated"/>
               <div xmlns="http://www.w3.org/1999/xhtml">
                  <table class="hl7__ips">
                     <tr>
                        <td>Katy Johnston</td>
                        <td>female</td>
                        <td>19-Sep-1988</td>
                     </tr>
                  </table>
               </div>
            </text>
            <extension url="http://hl7.org/fhir/StructureDefinition/patient-nationality">
               <valueCodeableConcept>
                  <coding>
                     <system value="http://hl7.org/fhir/ValueSet/country"/>
                     <code value="GB"/>
                  </coding>
               </valueCodeableConcept>
            </extension>
            <identifier>
               <type>
                  <coding>
                     <system value="http://terminology.hl7.org/CodeSystem/v2-0203"/>
                     <code value="PT"/>
                  </coding>
               </type>
               <system value="http://ec.europa.eu/identifier/eci"/>
               <value value="1854-452946-6"/>
            </identifier>
            <identifier>
               <type>
                  <coding>
                     <system value="http://terminology.hl7.org/CodeSystem/v2-0203"/>
                     <code value="MR"/>
                  </coding>
               </type>
               <system value="http://local.setting.eu/identifier"/>
               <value value="f94741cf-8405-9657-1aec-b3bd1788b46e"/>
            </identifier>
            <name>
               <family value="Johnston"/>
            </name>
            <name>
               <given value="Katy"/>
            </name>
            <name>
               <text value="Katy Johnston"/>
            </name>
            <telecom>
               <system value="phone"/>
               <value value="+44808 1570256"/>
            </telecom>
            <gender value="female"/>
            <birthDate value="1988-09-19"/>
            <address>
               <use value="home"/>
               <type value="physical"/>
               <line value="Flat 16f"/>
               <line value="Stokes roads"/>
               <city value="London"/>
               <postalCode value="E1"/>
               <country value="United Kingdom"/>
            </address>
         </Patient>
      </resource>
   </entry>
   <entry>
      <fullUrl value="urn:uuid:8a181ea5-34c2-43d5-a360-6f12c59aeb01"/>
      <resource>
         <ServiceRequest>
            <id value="8a181ea5-34c2-43d5-a360-6f12c59aeb01"/>
            <meta>
               <profile value="http://hl7.eu/fhir/laboratory/StructureDefinition/ServiceRequest-eu-lab"/>
            </meta>
            <identifier>
               <system value="http://example.org"/>
               <value value="916e93c5-9609-44e6-99d4-8b552ef1b7e3"/>
            </identifier>
            <status value="active"/>
            <intent value="order"/>
            <code>
               <coding>
                  <system value="http://snomed.info/sct"/>
                  <code value="108252007"/>
                  <display value="Laboratory procedure"/>
               </coding>
            </code>
            <subject>
               <reference value="urn:uuid:b28fa40e-5d7b-4361-b35e-d6d67d379b33"/>
               <display value="Katy Johnston"/>
            </subject>
            <requester>
               <reference value="urn:uuid:bc16a029-7f70-49d3-ab90-bc34dee0c44c"/>
            </requester>
            <reasonCode>
               <coding>
                  <system value="http://snomed.info/sct"/>
                  <code value="284549007"/>
                  <display value="Laceration of hand"/>
               </coding>
            </reasonCode>
            <reasonCode>
               <coding>
                  <system value="http://snomed.info/sct"/>
                  <code value="312608009"/>
                  <display value="Laceration - injury"/>
               </coding>
            </reasonCode>
            <reasonCode>
               <coding>
                  <system value="http://snomed.info/sct"/>
                  <code value="15777000"/>
                  <display value="Prediabetes"/>
               </coding>
            </reasonCode>
            <reasonCode>
               <coding>
                  <system value="http://snomed.info/sct"/>
                  <code value="271737000"/>
                  <display value="Anemia"/>
               </coding>
            </reasonCode>
            <reasonCode>
               <coding>
                  <system value="http://snomed.info/sct"/>
                  <code value="203082005"/>
                  <display value="Fibromyalgia"/>
               </coding>
            </reasonCode>
            <reasonCode>
               <coding>
                  <system value="http://snomed.info/sct"/>
                  <code value="6525002"/>
                  <display value="Dependent drug abuse"/>
               </coding>
            </reasonCode>
            <reasonCode>
               <coding>
                  <system value="http://snomed.info/sct"/>
                  <code value="124171000119105"/>
                  <display value="Chronic intractable migraine without aura"/>
               </coding>
            </reasonCode>
            <reasonCode>
               <coding>
                  <system value="http://snomed.info/sct"/>
                  <code value="196416002"/>
                  <display value="Impacted molars"/>
               </coding>
            </reasonCode>
            <specimen>
               <reference value="urn:uuid:bc0ba909-cc0e-4eb0-8cd7-d0293d2131de"/>
            </specimen>
         </ServiceRequest>
      </resource>
   </entry>
   <entry>
      <fullUrl value="urn:uuid:bc16a029-7f70-49d3-ab90-bc34dee0c44c"/>
      <resource>
         <PractitionerRole>
            <id value="bc16a029-7f70-49d3-ab90-bc34dee0c44c"/>
            <meta>
               <profile value="http://hl7.eu/fhir/base/StructureDefinition/practitionerRole-eu"/>
            </meta>
            <text>
               <status value="generated"/>
               <div xmlns="http://www.w3.org/1999/xhtml">Provider Role Id: bc16a029-7f70-49d3-ab90-bc34dee0c44c</div>
            </text>
            <organization>
               <reference value="urn:uuid:bac6b331-228e-484f-afab-6ce31ba79693"/>
            </organization>
         </PractitionerRole>
      </resource>
   </entry>
   <entry>
      <fullUrl value="urn:uuid:bac6b331-228e-484f-afab-6ce31ba79693"/>
      <resource>
         <Organization>
            <id value="bac6b331-228e-484f-afab-6ce31ba79693"/>
            <meta>
               <profile value="http://hl7.eu/fhir/base/StructureDefinition/organization-eu"/>
            </meta>
            <text>
               <status value="generated"/>
               <div xmlns="http://www.w3.org/1999/xhtml">Provider Organization: Evelina Children's Hospital</div>
            </text>
            <identifier>
               <system value="urn:oid:2.16.840.1.113883.2.51.999"/>
               <value value="fd51d755-cdfa-4a22-85a0-7091266f2e22"/>
               <assigner>
                  <display value="HL7 Europe"/>
               </assigner>
            </identifier>
            <name value="Evelina Children&amp;#039;s Hospital"/>
            <address>
               <city value="London"/>
               <postalCode value="SE1 7"/>
               <country value="United Kingdom"/>
            </address>
         </Organization>
      </resource>
   </entry>
   <entry>
      <fullUrl value="urn:uuid:bc0ba909-cc0e-4eb0-8cd7-d0293d2131de"/>
      <resource>
         <Specimen>
            <id value="bc0ba909-cc0e-4eb0-8cd7-d0293d2131de"/>
            <meta>
               <profile value="http://hl7.eu/fhir/laboratory/StructureDefinition/Specimen-eu-lab"/>
            </meta>
            <text>
               <status value="generated"/>
               <div xmlns="http://www.w3.org/1999/xhtml">
                  <table class="hl7__eu__lab__report">
                     <tr>
                        <th>Specimen</th>
                        <th>Collection Date</th>
                     </tr>
                     <tr>
                        <td>Whole blood specimen (specimen)</td>
                        <td>
                           <span class="nb">09-Apr-2023</span>
                        </td>
                     </tr>
                  </table>
               </div>
            </text>
            <type>
               <coding>
                  <system value="http://snomed.info/sct"/>
                  <code value="258580003"/>
                  <display value="Whole blood specimen (specimen)"/>
               </coding>
            </type>
            <collection>
               <collectedDateTime value="2023-04-09"/>
            </collection>
         </Specimen>
      </resource>
   </entry>
   <entry>
      <fullUrl value="urn:uuid:cc8ebcda-8383-481e-9589-f2420307c085"/>
      <resource>
         <Observation>
            <id value="cc8ebcda-8383-481e-9589-f2420307c085"/>
            <meta>
               <profile value="http://hl7.eu/fhir/laboratory/StructureDefinition/Observation-resultslab-eu-lab"/>
            </meta>
            <text>
               <status value="generated"/>
               <div xmlns="http://www.w3.org/1999/xhtml">
                  <table class="hl7__eu__lab__report">
                     <tr>
                        <th>Test</th>
                        <th>09-Apr-2023</th>
                        <th>Reference Range</th>
                        <th>Unit</th>
                     </tr>
                     <tr>
                        <td>Hemoglobin A1c/Hemoglobin.total in Blood</td>
                        <td>6.3</td>
                        <td>4.8 - 5.7</td>
                        <td>H</td>
                        <td>%</td>
                     </tr>
                  </table>
               </div>
            </text>
            <status value="final"/>
            <category>
               <coding>
                  <system value="http://terminology.hl7.org/CodeSystem/observation-category"/>
                  <code value="laboratory"/>
               </coding>
            </category>
            <code>
               <coding>
                  <system value="http://loinc.org"/>
                  <code value="4548-4"/>
                  <display value="Hemoglobin A1c/Hemoglobin.total in Blood"/>
               </coding>
               <text value="Hemoglobin A1c/Hemoglobin.total in Blood"/>
            </code>
            <subject>
               <reference value="urn:uuid:b28fa40e-5d7b-4361-b35e-d6d67d379b33"/>
               <display value="Katy Johnston"/>
            </subject>
            <effectiveDateTime value="2023-04-09T09:58:49Z"/>
            <performer>
               <display value="The Central European Lab"/>
            </performer>
            <valueQuantity>
               <value value="6.3"/>
               <unit value="%"/>
               <system value="http://unitsofmeasure.org"/>
               <code value="%"/>
            </valueQuantity>
            <interpretation>
               <coding>
                  <system value="http://terminology.hl7.org/CodeSystem/v3-ObservationInterpretation"/>
                  <code value="H"/>
                  <display value="High"/>
               </coding>
            </interpretation>
            <specimen>
               <reference value="urn:uuid:bc0ba909-cc0e-4eb0-8cd7-d0293d2131de"/>
            </specimen>
            <referenceRange>
               <low>
                  <value value="4.8"/>
                  <system value="http://unitsofmeasure.org"/>
                  <code value="%"/>
               </low>
            </referenceRange>
            <referenceRange>
               <high>
                  <value value="5.7"/>
                  <system value="http://unitsofmeasure.org"/>
                  <code value="%"/>
               </high>
            </referenceRange>
         </Observation>
      </resource>
   </entry>
   <entry>
      <fullUrl value="urn:uuid:6e8da045-15fc-4418-818a-5c8527c52673"/>
      <resource>
         <Observation>
            <id value="6e8da045-15fc-4418-818a-5c8527c52673"/>
            <meta>
               <profile value="http://hl7.eu/fhir/laboratory/StructureDefinition/Observation-resultslab-eu-lab"/>
            </meta>
            <text>
               <status value="generated"/>
               <div xmlns="http://www.w3.org/1999/xhtml">
                  <table class="hl7__eu__lab__report">
                     <tr>
                        <th>Test</th>
                        <th>09-Apr-2023</th>
                        <th>Reference Range</th>
                        <th>Unit</th>
                     </tr>
                     <tr>
                        <td>Glucose [Mass/volume] in Blood</td>
                        <td>92.2</td>
                        <td>70 - 140</td>
                        <td/>
                        <td>mg/dL</td>
                     </tr>
                  </table>
               </div>
            </text>
            <status value="final"/>
            <category>
               <coding>
                  <system value="http://terminology.hl7.org/CodeSystem/observation-category"/>
                  <code value="laboratory"/>
               </coding>
            </category>
            <code>
               <coding>
                  <system value="http://loinc.org"/>
                  <code value="2339-0"/>
                  <display value="Glucose [Mass/volume] in Blood"/>
               </coding>
               <text value="Glucose [Mass/volume] in Blood"/>
            </code>
            <subject>
               <reference value="urn:uuid:b28fa40e-5d7b-4361-b35e-d6d67d379b33"/>
               <display value="Katy Johnston"/>
            </subject>
            <effectiveDateTime value="2023-04-09T09:58:49Z"/>
            <performer>
               <display value="The Central European Lab"/>
            </performer>
            <valueQuantity>
               <value value="92.2"/>
               <unit value="mg/dL"/>
               <system value="http://unitsofmeasure.org"/>
               <code value="mg/dL"/>
            </valueQuantity>
            <specimen>
               <reference value="urn:uuid:bc0ba909-cc0e-4eb0-8cd7-d0293d2131de"/>
            </specimen>
            <referenceRange>
               <low>
                  <value value="70"/>
                  <system value="http://unitsofmeasure.org"/>
                  <code value="mg/dL"/>
               </low>
            </referenceRange>
            <referenceRange>
               <high>
                  <value value="140"/>
                  <system value="http://unitsofmeasure.org"/>
                  <code value="mg/dL"/>
               </high>
            </referenceRange>
         </Observation>
      </resource>
   </entry>
   <entry>
      <fullUrl value="urn:uuid:d156f98a-cf73-45cc-ba71-e2777f46295c"/>
      <resource>
         <Observation>
            <id value="d156f98a-cf73-45cc-ba71-e2777f46295c"/>
            <meta>
               <profile value="http://hl7.eu/fhir/laboratory/StructureDefinition/Observation-resultslab-eu-lab"/>
            </meta>
            <text>
               <status value="generated"/>
               <div xmlns="http://www.w3.org/1999/xhtml">
                  <table class="hl7__eu__lab__report">
                     <tr>
                        <th>Test</th>
                        <th>09-Apr-2023</th>
                        <th>Reference Range</th>
                        <th>Unit</th>
                     </tr>
                     <tr>
                        <td>Urea nitrogen [Mass/volume] in Blood</td>
                        <td>16.9</td>
                        <td>7 - 20</td>
                        <td/>
                        <td>mg/dL</td>
                     </tr>
                  </table>
               </div>
            </text>
            <status value="final"/>
            <category>
               <coding>
                  <system value="http://terminology.hl7.org/CodeSystem/observation-category"/>
                  <code value="laboratory"/>
               </coding>
            </category>
            <code>
               <coding>
                  <system value="http://loinc.org"/>
                  <code value="6299-2"/>
                  <display value="Urea nitrogen [Mass/volume] in Blood"/>
               </coding>
               <text value="Urea nitrogen [Mass/volume] in Blood"/>
            </code>
            <subject>
               <reference value="urn:uuid:b28fa40e-5d7b-4361-b35e-d6d67d379b33"/>
               <display value="Katy Johnston"/>
            </subject>
            <effectiveDateTime value="2023-04-09T09:58:49Z"/>
            <performer>
               <display value="The Central European Lab"/>
            </performer>
            <valueQuantity>
               <value value="16.9"/>
               <unit value="mg/dL"/>
               <system value="http://unitsofmeasure.org"/>
               <code value="mg/dL"/>
            </valueQuantity>
            <specimen>
               <reference value="urn:uuid:bc0ba909-cc0e-4eb0-8cd7-d0293d2131de"/>
            </specimen>
            <referenceRange>
               <low>
                  <value value="7"/>
                  <system value="http://unitsofmeasure.org"/>
                  <code value="mg/dL"/>
               </low>
            </referenceRange>
            <referenceRange>
               <high>
                  <value value="20"/>
                  <system value="http://unitsofmeasure.org"/>
                  <code value="mg/dL"/>
               </high>
            </referenceRange>
         </Observation>
      </resource>
   </entry>
   <entry>
      <fullUrl value="urn:uuid:859c907d-f531-4391-b62f-ef861eee9ebd"/>
      <resource>
         <Observation>
            <id value="859c907d-f531-4391-b62f-ef861eee9ebd"/>
            <meta>
               <profile value="http://hl7.eu/fhir/laboratory/StructureDefinition/Observation-resultslab-eu-lab"/>
            </meta>
            <text>
               <status value="generated"/>
               <div xmlns="http://www.w3.org/1999/xhtml">
                  <table class="hl7__eu__lab__report">
                     <tr>
                        <th>Test</th>
                        <th>09-Apr-2023</th>
                        <th>Reference Range</th>
                        <th>Unit</th>
                     </tr>
                     <tr>
                        <td>Creatinine [Mass/volume] in Blood</td>
                        <td>1.2</td>
                        <td>0.6 - 1.2</td>
                        <td/>
                        <td>mg/dL</td>
                     </tr>
                  </table>
               </div>
            </text>
            <status value="final"/>
            <category>
               <coding>
                  <system value="http://terminology.hl7.org/CodeSystem/observation-category"/>
                  <code value="laboratory"/>
               </coding>
            </category>
            <code>
               <coding>
                  <system value="http://loinc.org"/>
                  <code value="38483-4"/>
                  <display value="Creatinine [Mass/volume] in Blood"/>
               </coding>
               <text value="Creatinine [Mass/volume] in Blood"/>
            </code>
            <subject>
               <reference value="urn:uuid:b28fa40e-5d7b-4361-b35e-d6d67d379b33"/>
               <display value="Katy Johnston"/>
            </subject>
            <effectiveDateTime value="2023-04-09T09:58:49Z"/>
            <performer>
               <display value="The Central European Lab"/>
            </performer>
            <valueQuantity>
               <value value="1.2"/>
               <unit value="mg/dL"/>
               <system value="http://unitsofmeasure.org"/>
               <code value="mg/dL"/>
            </valueQuantity>
            <specimen>
               <reference value="urn:uuid:bc0ba909-cc0e-4eb0-8cd7-d0293d2131de"/>
            </specimen>
            <referenceRange>
               <low>
                  <value value="0.6"/>
                  <system value="http://unitsofmeasure.org"/>
                  <code value="mg/dL"/>
               </low>
            </referenceRange>
            <referenceRange>
               <high>
                  <value value="1.2"/>
                  <system value="http://unitsofmeasure.org"/>
                  <code value="mg/dL"/>
               </high>
            </referenceRange>
         </Observation>
      </resource>
   </entry>
   <entry>
      <fullUrl value="urn:uuid:d049196d-2af7-4246-86be-f2adc046b3e6"/>
      <resource>
         <Observation>
            <id value="d049196d-2af7-4246-86be-f2adc046b3e6"/>
            <meta>
               <profile value="http://hl7.eu/fhir/laboratory/StructureDefinition/Observation-resultslab-eu-lab"/>
            </meta>
            <text>
               <status value="generated"/>
               <div xmlns="http://www.w3.org/1999/xhtml">
                  <table class="hl7__eu__lab__report">
                     <tr>
                        <th>Test</th>
                        <th>09-Apr-2023</th>
                        <th>Reference Range</th>
                        <th>Unit</th>
                     </tr>
                     <tr>
                        <td>Calcium [Mass/volume] in Blood</td>
                        <td>8.8</td>
                        <td>8.5 - 10.4</td>
                        <td/>
                        <td>mg/dL</td>
                     </tr>
                  </table>
               </div>
            </text>
            <status value="final"/>
            <category>
               <coding>
                  <system value="http://terminology.hl7.org/CodeSystem/observation-category"/>
                  <code value="laboratory"/>
               </coding>
            </category>
            <code>
               <coding>
                  <system value="http://loinc.org"/>
                  <code value="49765-1"/>
                  <display value="Calcium [Mass/volume] in Blood"/>
               </coding>
               <text value="Calcium [Mass/volume] in Blood"/>
            </code>
            <subject>
               <reference value="urn:uuid:b28fa40e-5d7b-4361-b35e-d6d67d379b33"/>
               <display value="Katy Johnston"/>
            </subject>
            <effectiveDateTime value="2023-04-09T09:58:49Z"/>
            <performer>
               <display value="The Central European Lab"/>
            </performer>
            <valueQuantity>
               <value value="8.8"/>
               <unit value="mg/dL"/>
               <system value="http://unitsofmeasure.org"/>
               <code value="mg/dL"/>
            </valueQuantity>
            <specimen>
               <reference value="urn:uuid:bc0ba909-cc0e-4eb0-8cd7-d0293d2131de"/>
            </specimen>
            <referenceRange>
               <low>
                  <value value="8.5"/>
                  <system value="http://unitsofmeasure.org"/>
                  <code value="mg/dL"/>
               </low>
            </referenceRange>
            <referenceRange>
               <high>
                  <value value="10.4"/>
                  <system value="http://unitsofmeasure.org"/>
                  <code value="mg/dL"/>
               </high>
            </referenceRange>
         </Observation>
      </resource>
   </entry>
   <entry>
      <fullUrl value="urn:uuid:92fbc49b-6b6e-41c1-8655-eec4a6604f03"/>
      <resource>
         <Observation>
            <id value="92fbc49b-6b6e-41c1-8655-eec4a6604f03"/>
            <meta>
               <profile value="http://hl7.eu/fhir/laboratory/StructureDefinition/Observation-resultslab-eu-lab"/>
            </meta>
            <text>
               <status value="generated"/>
               <div xmlns="http://www.w3.org/1999/xhtml">
                  <table class="hl7__eu__lab__report">
                     <tr>
                        <th>Test</th>
                        <th>09-Apr-2023</th>
                        <th>Reference Range</th>
                        <th>Unit</th>
                     </tr>
                     <tr>
                        <td>Sodium [Moles/volume] in Blood</td>
                        <td>141.7</td>
                        <td>135 - 145</td>
                        <td/>
                        <td>mmol/L</td>
                     </tr>
                  </table>
               </div>
            </text>
            <status value="final"/>
            <category>
               <coding>
                  <system value="http://terminology.hl7.org/CodeSystem/observation-category"/>
                  <code value="laboratory"/>
               </coding>
            </category>
            <code>
               <coding>
                  <system value="http://loinc.org"/>
                  <code value="2947-0"/>
                  <display value="Sodium [Moles/volume] in Blood"/>
               </coding>
               <text value="Sodium [Moles/volume] in Blood"/>
            </code>
            <subject>
               <reference value="urn:uuid:b28fa40e-5d7b-4361-b35e-d6d67d379b33"/>
               <display value="Katy Johnston"/>
            </subject>
            <effectiveDateTime value="2023-04-09T09:58:49Z"/>
            <performer>
               <display value="The Central European Lab"/>
            </performer>
            <valueQuantity>
               <value value="141.7"/>
               <unit value="mmol/L"/>
               <system value="http://unitsofmeasure.org"/>
               <code value="mmol/L"/>
            </valueQuantity>
            <specimen>
               <reference value="urn:uuid:bc0ba909-cc0e-4eb0-8cd7-d0293d2131de"/>
            </specimen>
            <referenceRange>
               <low>
                  <value value="135"/>
                  <system value="http://unitsofmeasure.org"/>
                  <code value="mmol/L"/>
               </low>
            </referenceRange>
            <referenceRange>
               <high>
                  <value value="145"/>
                  <system value="http://unitsofmeasure.org"/>
                  <code value="mmol/L"/>
               </high>
            </referenceRange>
         </Observation>
      </resource>
   </entry>
   <entry>
      <fullUrl value="urn:uuid:3a51a57c-9b35-4615-acde-6414eb5b918a"/>
      <resource>
         <Observation>
            <id value="3a51a57c-9b35-4615-acde-6414eb5b918a"/>
            <meta>
               <profile value="http://hl7.eu/fhir/laboratory/StructureDefinition/Observation-resultslab-eu-lab"/>
            </meta>
            <text>
               <status value="generated"/>
               <div xmlns="http://www.w3.org/1999/xhtml">
                  <table class="hl7__eu__lab__report">
                     <tr>
                        <th>Test</th>
                        <th>09-Apr-2023</th>
                        <th>Reference Range</th>
                        <th>Unit</th>
                     </tr>
                     <tr>
                        <td>Potassium [Moles/volume] in Blood</td>
                        <td>5.1</td>
                        <td>3.5 - 5.1</td>
                        <td/>
                        <td>mmol/L</td>
                     </tr>
                  </table>
               </div>
            </text>
            <status value="final"/>
            <category>
               <coding>
                  <system value="http://terminology.hl7.org/CodeSystem/observation-category"/>
                  <code value="laboratory"/>
               </coding>
            </category>
            <code>
               <coding>
                  <system value="http://loinc.org"/>
                  <code value="6298-4"/>
                  <display value="Potassium [Moles/volume] in Blood"/>
               </coding>
               <text value="Potassium [Moles/volume] in Blood"/>
            </code>
            <subject>
               <reference value="urn:uuid:b28fa40e-5d7b-4361-b35e-d6d67d379b33"/>
               <display value="Katy Johnston"/>
            </subject>
            <effectiveDateTime value="2023-04-09T09:58:49Z"/>
            <performer>
               <display value="The Central European Lab"/>
            </performer>
            <valueQuantity>
               <value value="5.1"/>
               <unit value="mmol/L"/>
               <system value="http://unitsofmeasure.org"/>
               <code value="mmol/L"/>
            </valueQuantity>
            <specimen>
               <reference value="urn:uuid:bc0ba909-cc0e-4eb0-8cd7-d0293d2131de"/>
            </specimen>
            <referenceRange>
               <low>
                  <value value="3.5"/>
                  <system value="http://unitsofmeasure.org"/>
                  <code value="mmol/L"/>
               </low>
            </referenceRange>
            <referenceRange>
               <high>
                  <value value="5.1"/>
                  <system value="http://unitsofmeasure.org"/>
                  <code value="mmol/L"/>
               </high>
            </referenceRange>
         </Observation>
      </resource>
   </entry>
   <entry>
      <fullUrl value="urn:uuid:c3b7c2b4-f79d-428c-af85-f2d2523f9691"/>
      <resource>
         <Observation>
            <id value="c3b7c2b4-f79d-428c-af85-f2d2523f9691"/>
            <meta>
               <profile value="http://hl7.eu/fhir/laboratory/StructureDefinition/Observation-resultslab-eu-lab"/>
            </meta>
            <text>
               <status value="generated"/>
               <div xmlns="http://www.w3.org/1999/xhtml">
                  <table class="hl7__eu__lab__report">
                     <tr>
                        <th>Test</th>
                        <th>09-Apr-2023</th>
                        <th>Reference Range</th>
                        <th>Unit</th>
                     </tr>
                     <tr>
                        <td>Chloride [Moles/volume] in Blood</td>
                        <td>105.0</td>
                        <td>98 - 107</td>
                        <td/>
                        <td>mmol/L</td>
                     </tr>
                  </table>
               </div>
            </text>
            <status value="final"/>
            <category>
               <coding>
                  <system value="http://terminology.hl7.org/CodeSystem/observation-category"/>
                  <code value="laboratory"/>
               </coding>
            </category>
            <code>
               <coding>
                  <system value="http://loinc.org"/>
                  <code value="2069-3"/>
                  <display value="Chloride [Moles/volume] in Blood"/>
               </coding>
               <text value="Chloride [Moles/volume] in Blood"/>
            </code>
            <subject>
               <reference value="urn:uuid:b28fa40e-5d7b-4361-b35e-d6d67d379b33"/>
               <display value="Katy Johnston"/>
            </subject>
            <effectiveDateTime value="2023-04-09T09:58:49Z"/>
            <performer>
               <display value="The Central European Lab"/>
            </performer>
            <valueQuantity>
               <value value="105"/>
               <unit value="mmol/L"/>
               <system value="http://unitsofmeasure.org"/>
               <code value="mmol/L"/>
            </valueQuantity>
            <specimen>
               <reference value="urn:uuid:bc0ba909-cc0e-4eb0-8cd7-d0293d2131de"/>
            </specimen>
            <referenceRange>
               <low>
                  <value value="98"/>
                  <system value="http://unitsofmeasure.org"/>
                  <code value="mmol/L"/>
               </low>
            </referenceRange>
            <referenceRange>
               <high>
                  <value value="107"/>
                  <system value="http://unitsofmeasure.org"/>
                  <code value="mmol/L"/>
               </high>
            </referenceRange>
         </Observation>
      </resource>
   </entry>
   <entry>
      <fullUrl value="urn:uuid:e83b12e9-f587-41d3-831e-c2a04c9889c7"/>
      <resource>
         <Observation>
            <id value="e83b12e9-f587-41d3-831e-c2a04c9889c7"/>
            <meta>
               <profile value="http://hl7.eu/fhir/laboratory/StructureDefinition/Observation-resultslab-eu-lab"/>
            </meta>
            <text>
               <status value="generated"/>
               <div xmlns="http://www.w3.org/1999/xhtml">
                  <table class="hl7__eu__lab__report">
                     <tr>
                        <th>Test</th>
                        <th>09-Apr-2023</th>
                        <th>Reference Range</th>
                        <th>Unit</th>
                     </tr>
                     <tr>
                        <td>Carbon dioxide, total [Moles/volume] in Blood</td>
                        <td>23.2</td>
                        <td>22 - 29</td>
                        <td/>
                        <td>mmol/L</td>
                     </tr>
                  </table>
               </div>
            </text>
            <status value="final"/>
            <category>
               <coding>
                  <system value="http://terminology.hl7.org/CodeSystem/observation-category"/>
                  <code value="laboratory"/>
               </coding>
            </category>
            <code>
               <coding>
                  <system value="http://loinc.org"/>
                  <code value="20565-8"/>
                  <display value="Carbon dioxide, total [Moles/volume] in Blood"/>
               </coding>
               <text value="Carbon dioxide, total [Moles/volume] in Blood"/>
            </code>
            <subject>
               <reference value="urn:uuid:b28fa40e-5d7b-4361-b35e-d6d67d379b33"/>
               <display value="Katy Johnston"/>
            </subject>
            <effectiveDateTime value="2023-04-09T09:58:49Z"/>
            <performer>
               <display value="The Central European Lab"/>
            </performer>
            <valueQuantity>
               <value value="23.2"/>
               <unit value="mmol/L"/>
               <system value="http://unitsofmeasure.org"/>
               <code value="mmol/L"/>
            </valueQuantity>
            <specimen>
               <reference value="urn:uuid:bc0ba909-cc0e-4eb0-8cd7-d0293d2131de"/>
            </specimen>
            <referenceRange>
               <low>
                  <value value="22"/>
                  <system value="http://unitsofmeasure.org"/>
                  <code value="mmol/L"/>
               </low>
            </referenceRange>
            <referenceRange>
               <high>
                  <value value="29"/>
                  <system value="http://unitsofmeasure.org"/>
                  <code value="mmol/L"/>
               </high>
            </referenceRange>
         </Observation>
      </resource>
   </entry>
   <entry>
      <fullUrl value="urn:uuid:0f3ae487-4233-43f7-a345-c7c865802e50"/>
      <resource>
         <Device>
            <id value="0f3ae487-4233-43f7-a345-c7c865802e50"/>
            <text>
               <status value="generated"/>
               <div xmlns="http://www.w3.org/1999/xhtml">SYNDERAI Synthetic Generator v5.0</div>
            </text>
            <status value="active&#34;"/>
            <distinctIdentifier value="synderai-generator-50"/>
            <manufacturer value="SYNDERAI Project"/>
            <deviceName>
               <name value="SYNDERAI Synthetic Generator"/>
               <type value="manufacturer-name"/>
            </deviceName>
            <version>
               <value value="5.0"/>
            </version>
         </Device>
      </resource>
   </entry>
   <entry>
      <fullUrl value="urn:uuid:feab0bc5-2ca7-44c6-b6ee-1e4d3e1a1c43"/>
      <resource>
         <Provenance>
            <id value="feab0bc5-2ca7-44c6-b6ee-1e4d3e1a1c43"/>
            <text>
               <status value="generated"/>
               <div xmlns="http://www.w3.org/1999/xhtml">Provenance for SYNDERAI Synthetic Example Data Resource</div>
            </text>
            <target>
               <reference value="Patient/b28fa40e-5d7b-4361-b35e-d6d67d379b33"/>
            </target>
            <target>
               <reference value="Bundle/d71a5db1-aaf5-4f94-b768-3f5a2c406360"/>
            </target>
            <target>
               <reference value="Composition/ad552278-9409-4ab2-b0c4-92eb89e63699"/>
            </target>
            <target>
               <reference value="PractitionerRole/19462b28-1960-4a6a-b8f5-86e1300d06ff"/>
            </target>
            <target>
               <reference value="Practitioner/ab05c6f3-86a1-43b9-b542-ac4640a4678b"/>
            </target>
            <target>
               <reference value="PractitionerRole/bc16a029-7f70-49d3-ab90-bc34dee0c44c"/>
            </target>
            <target>
               <reference value="Organization/bac6b331-228e-484f-afab-6ce31ba79693"/>
            </target>
            <recorded value="2023-04-09T11:58:49Z"/>
            <policy value="https://synderai.net/synderai-synthetic-data-policy"/>
            <reason>
               <text value="Interoperability Testing and Training (non-clinical use)"/>
            </reason>
            <activity>
               <text value="Synthetic Example Data Generation"/>
            </activity>
            <agent>
               <type>
                  <text value="author"/>
               </type>
               <who>
                  <reference value="Device/0f3ae487-4233-43f7-a345-c7c865802e50"/>
               </who>
            </agent>
         </Provenance>
      </resource>
   </entry>
   <entry>
      <fullUrl value="urn:uuid:19462b28-1960-4a6a-b8f5-86e1300d06ff"/>
      <resource>
         <PractitionerRole>
            <id value="19462b28-1960-4a6a-b8f5-86e1300d06ff"/>
            <meta>
               <profile value="http://hl7.eu/fhir/base/StructureDefinition/practitionerRole-eu"/>
            </meta>
            <text>
               <status value="generated"/>
               <div xmlns="http://www.w3.org/1999/xhtml">Laboratory Role Id: 19462b28-1960-4a6a-b8f5-86e1300d06ff</div>
            </text>
            <practitioner>
               <reference value="urn:uuid:ab05c6f3-86a1-43b9-b542-ac4640a4678b"/>
            </practitioner>
         </PractitionerRole>
      </resource>
   </entry>
   <entry>
      <fullUrl value="urn:uuid:ab05c6f3-86a1-43b9-b542-ac4640a4678b"/>
      <resource>
         <Practitioner>
            <id value="ab05c6f3-86a1-43b9-b542-ac4640a4678b"/>
            <meta>
               <profile value="http://hl7.eu/fhir/base/StructureDefinition/practitioner-eu"/>
            </meta>
            <text>
               <status value="generated"/>
               <div xmlns="http://www.w3.org/1999/xhtml">Laboratory: Laboratoire Central Européenne, 1000 Brussels, Belgium</div>
            </text>
            <identifier>
               <system value="urn:oid:2.16.840.1.113883.2.51.999"/>
               <value value="ae9e5b67-0ada-40fd-bd22-63d75ae590b0"/>
               <assigner>
                  <display value="HL7 Europe"/>
               </assigner>
            </identifier>
            <name>
               <family value="Ample"/>
               <given value="Ex"/>
               <prefix value="dr"/>
            </name>
            <address>
               <line value="Laboratoire Central Européenne"/>
               <line value="Boulevard du Jardin Botanique 32"/>
               <city value="Brussels"/>
               <postalCode value="1000"/>
               <country value="Belgium"/>
            </address>
         </Practitioner>
      </resource>
   </entry>
</Bundle>