<Bundle xmlns="http://hl7.org/fhir">
   <id value="503cadd1-3b7e-4c76-87c7-62f180cad1a8"/>
   <meta>
      <profile value="http://hl7.eu/fhir/laboratory/StructureDefinition/Bundle-eu-lab"/>
   </meta>
   <identifier>
      <system value="urn:oid:2.16.840.1.113883.2.51.999"/>
      <value value="11bbc0be-77eb-4140-93b4-06105897b17d"/>
      <assigner>
         <display value="HL7 Europe"/>
      </assigner>
   </identifier>
   <type value="document"/>
   <timestamp value="2023-04-08T20:20:37Z"/>
   <entry>
      <fullUrl value="urn:uuid:d258b430-4291-45f1-a849-0c46d223a990"/>
      <resource>
         <Composition>
            <id value="d258b430-4291-45f1-a849-0c46d223a990"/>
            <meta>
               <profile value="http://hl7.eu/fhir/laboratory/StructureDefinition/Composition-eu-lab"/>
            </meta>
            <identifier>
               <system value="urn:oid:2.16.840.1.113883.2.51.999"/>
               <value value="bcd3fb64-9da2-4713-a7f6-faeacc12c9af"/>
               <assigner>
                  <display value="HL7 Europe"/>
               </assigner>
            </identifier>
            <status value="final"/>
            <type>
               <coding>
                  <system value="http://loinc.org"/>
                  <code value="11502-2"/>
                  <display value="Laboratory report"/>
               </coding>
               <text value="Laboratory Report"/>
            </type>
            <category>
               <coding>
                  <system value="http://loinc.org"/>
                  <code value="26436-6"/>
                  <display value="Laboratory studies (set)"/>
               </coding>
            </category>
            <subject>
               <reference value="urn:uuid:eec6a8be-6aaa-4ec8-947a-78439b244c04"/>
               <display value="Pamela Dixon"/>
            </subject>
            <date value="2023-04-08T20:20:37Z"/>
            <author>
               <reference value="urn:uuid:94836d41-9a57-494b-bdda-09a19263cca6"/>
            </author>
            <title value="Laboratory Report"/>
            <confidentiality value="N"/>
            <section>
               <title value="Laboratory Report"/>
               <code>
                  <coding>
                     <system value="http://loinc.org"/>
                     <code value="26436-6"/>
                     <display value="Laboratory studies (set)"/>
                  </coding>
                  <text value="Laboratory studies"/>
               </code>
               <section>
                  <title value="Chemistry"/>
                  <code>
                     <coding>
                        <system value="http://loinc.org"/>
                        <code value="$18719-5"/>
                        <display value="Chemistry studies (set)"/>
                     </coding>
                     <text value="Chemistry"/>
                  </code>
                  <text>
                     <status value="generated"/>
                     <div xmlns="http://www.w3.org/1999/xhtml">
                        <h3>Chemistry</h3>
                        <table class="hl7__eu__lab__report">
                           <thead>
                              <tr>
                                 <th>Test</th>
                                 <th>08-APR-2023</th>
                                 <th>Reference Range</th>
                                 <th>Unit</th>
                              </tr>
                           </thead>
                           <tbody>
                              <tr>
                                 <td>Cholesterol [Mass/volume] in Serum or Plasma</td>
                                 <td>194.8</td>
                                 <td>125 - 200</td>
                                 <td>mg/dL</td>
                              </tr>
                              <tr>
                                 <td>Triglyceride [Mass/volume] in Serum or Plasma</td>
                                 <td>133.5</td>
                                 <td>35 - 150</td>
                                 <td>mg/dL</td>
                              </tr>
                              <tr>
                                 <td>Cholesterol in LDL [Mass/volume] in Serum or Plasma by Direct assay</td>
                                 <td>118.0</td>
                                 <td>0 - 130</td>
                                 <td>mg/dL</td>
                              </tr>
                              <tr>
                                 <td>Cholesterol in HDL [Mass/volume] in Serum or Plasma</td>
                                 <td>50.1</td>
                                 <td>40 - 60</td>
                                 <td>mg/dL</td>
                              </tr>
                           </tbody>
                        </table>
                     </div>
                  </text>
                  <entry>
                     <reference value="urn:uuid:dadee242-47df-4f21-921e-6b54b9a37b22"/>
                  </entry>
                  <entry>
                     <reference value="urn:uuid:e6ee92db-a309-404e-8fe9-d050770b3b24"/>
                  </entry>
                  <entry>
                     <reference value="urn:uuid:36be3073-cf49-44d8-87d1-8c1471511722"/>
                  </entry>
                  <entry>
                     <reference value="urn:uuid:72775de7-e9e0-482c-8654-f5fb6e020f98"/>
                  </entry>
               </section>
            </section>
            <section>
               <title value="Annotation comment"/>
               <code>
                  <coding>
                     <system value="http://loinc.org"/>
                     <code value="48767-8"/>
                     <display value="Annotation comment"/>
                  </coding>
               </code>
               <text>
                  <status value="generated"/>
                  <div xmlns="http://www.w3.org/1999/xhtml">
                     <h3>Annotation</h3>
                     <table class="hl7__eu__lab__report">
                        <tr>
                           <th>Conclusion and Recommendations based on this report and previous findings known to us</th>
                        </tr>
                        <tr>
                           <td>All lipid parameters are within normal limits. Cholesterol, LDL, HDL, and triglycerides are in the desirable range, indicating no current dyslipidemia. No laboratory evidence of increased cardiovascular risk based on these results. Recommend routine follow-up as clinically indicated.</td>
                        </tr>
                     </table>
                  </div>
               </text>
            </section>
         </Composition>
      </resource>
   </entry>
   <entry>
      <fullUrl value="urn:uuid:5230e39a-23c4-4299-964f-a330b28ca4b0"/>
      <resource>
         <DiagnosticReport>
            <id value="5230e39a-23c4-4299-964f-a330b28ca4b0"/>
            <meta>
               <profile value="http://hl7.eu/fhir/laboratory/StructureDefinition/DiagnosticReport-eu-lab"/>
            </meta>
            <extension url="http://hl7.org/fhir/5.0/StructureDefinition/extension-DiagnosticReport.composition">
               <valueReference>
                  <reference value="urn:uuid:bcd3fb64-9da2-4713-a7f6-faeacc12c9af"/>
               </valueReference>
            </extension>
            <identifier>
               <system value="urn:oid:2.16.840.1.113883.2.51.999"/>
               <value value="0ef5542d-a5e5-47dd-958b-a60921784964"/>
               <assigner>
                  <display value="HL7 Europe"/>
               </assigner>
            </identifier>
            <status value="registered"/>
            <category>
               <coding>
                  <system value="http://loinc.org"/>
                  <code value="26436-6"/>
                  <display value="Laboratory studies (set)"/>
               </coding>
            </category>
            <code>
               <coding>
                  <system value="http://loinc.org"/>
                  <code value="11502-2"/>
                  <display value="Laboratory report"/>
               </coding>
            </code>
            <subject>
               <reference value="urn:uuid:eec6a8be-6aaa-4ec8-947a-78439b244c04"/>
               <display value="Pamela Dixon"/>
            </subject>
            <specimen>
               <reference value="urn:uuid:821ef4bf-af94-4892-a59b-f0a78f0e8f84"/>
            </specimen>
            <result>
               <reference value="urn:uuid:dadee242-47df-4f21-921e-6b54b9a37b22"/>
            </result>
            <result>
               <reference value="urn:uuid:e6ee92db-a309-404e-8fe9-d050770b3b24"/>
            </result>
            <result>
               <reference value="urn:uuid:36be3073-cf49-44d8-87d1-8c1471511722"/>
            </result>
            <result>
               <reference value="urn:uuid:72775de7-e9e0-482c-8654-f5fb6e020f98"/>
            </result>
         </DiagnosticReport>
      </resource>
   </entry>
   <entry>
      <fullUrl value="urn:uuid:eec6a8be-6aaa-4ec8-947a-78439b244c04"/>
      <resource>
         <Patient>
            <id value="eec6a8be-6aaa-4ec8-947a-78439b244c04"/>
            <meta>
               <profile value="http://hl7.eu/fhir/base/StructureDefinition/patient-eu-core"/>
               <security>
                  <system value="http://terminology.hl7.org/CodeSystem/v3-ActReason"/>
                  <code value="HTEST"/>
               </security>
               <security>
                  <system value="http://terminology.hl7.org/CodeSystem/v3-ActReason"/>
                  <code value="TRAIN"/>
               </security>
               <tag>
                  <system value="https://synderai.net/fhir/CodeSystem/tags"/>
                  <code value="synthetic"/>
                  <display value="SYNDERAI Synthetic data"/>
               </tag>
            </meta>
            <text>
               <status value="generated"/>
               <div xmlns="http://www.w3.org/1999/xhtml">
                  <table class="hl7__ips">
                     <tr>
                        <td>Pamela Dixon</td>
                        <td>female</td>
                        <td>01-Dec-1990</td>
                     </tr>
                  </table>
               </div>
            </text>
            <extension url="http://hl7.org/fhir/StructureDefinition/patient-nationality">
               <valueCodeableConcept>
                  <coding>
                     <system value="http://hl7.org/fhir/ValueSet/country"/>
                     <code value="GB"/>
                  </coding>
               </valueCodeableConcept>
            </extension>
            <identifier>
               <type>
                  <coding>
                     <system value="http://terminology.hl7.org/CodeSystem/v2-0203"/>
                     <code value="PT"/>
                  </coding>
               </type>
               <system value="http://ec.europa.eu/identifier/eci"/>
               <value value="6166-148600-3"/>
            </identifier>
            <identifier>
               <type>
                  <coding>
                     <system value="http://terminology.hl7.org/CodeSystem/v2-0203"/>
                     <code value="MR"/>
                  </coding>
               </type>
               <system value="http://local.setting.eu/identifier"/>
               <value value="aa6e2273-ade9-f985-ca21-1a30863d243e"/>
            </identifier>
            <name>
               <family value="Dixon"/>
            </name>
            <name>
               <given value="Pamela"/>
            </name>
            <name>
               <text value="Pamela Dixon"/>
            </name>
            <telecom>
               <system value="phone"/>
               <value value="0121 496 0481"/>
            </telecom>
            <gender value="female"/>
            <birthDate value="1990-12-01"/>
            <address>
               <use value="home"/>
               <type value="physical"/>
               <line value="6 Diana landing"/>
               <city value="Claireport"/>
               <postalCode value="M14"/>
               <country value="United Kingdom"/>
            </address>
         </Patient>
      </resource>
   </entry>
   <entry>
      <fullUrl value="urn:uuid:7d9dcbcb-3b14-4dbd-b746-57b486d7c432"/>
      <resource>
         <ServiceRequest>
            <id value="7d9dcbcb-3b14-4dbd-b746-57b486d7c432"/>
            <meta>
               <profile value="http://hl7.eu/fhir/laboratory/StructureDefinition/ServiceRequest-eu-lab"/>
            </meta>
            <identifier>
               <system value="http://example.org"/>
               <value value="62cac094-a322-4e6f-9319-116b0a8a21ac"/>
            </identifier>
            <status value="active"/>
            <intent value="order"/>
            <code>
               <coding>
                  <system value="http://snomed.info/sct"/>
                  <code value="108252007"/>
                  <display value="Laboratory procedure"/>
               </coding>
            </code>
            <subject>
               <reference value="urn:uuid:eec6a8be-6aaa-4ec8-947a-78439b244c04"/>
               <display value="Pamela Dixon"/>
            </subject>
            <requester>
               <reference value="urn:uuid:8fd0c915-600b-4796-96a4-4461e996051d"/>
            </requester>
            <specimen>
               <reference value="urn:uuid:821ef4bf-af94-4892-a59b-f0a78f0e8f84"/>
            </specimen>
         </ServiceRequest>
      </resource>
   </entry>
   <entry>
      <fullUrl value="urn:uuid:8fd0c915-600b-4796-96a4-4461e996051d"/>
      <resource>
         <PractitionerRole>
            <id value="8fd0c915-600b-4796-96a4-4461e996051d"/>
            <meta>
               <profile value="http://hl7.eu/fhir/base/StructureDefinition/practitionerRole-eu"/>
            </meta>
            <text>
               <status value="generated"/>
               <div xmlns="http://www.w3.org/1999/xhtml">Provider Role Id: 8fd0c915-600b-4796-96a4-4461e996051d</div>
            </text>
            <organization>
               <reference value="urn:uuid:c57bcbc9-f7dc-45c0-ac3d-32ebd8d92a5b"/>
            </organization>
         </PractitionerRole>
      </resource>
   </entry>
   <entry>
      <fullUrl value="urn:uuid:c57bcbc9-f7dc-45c0-ac3d-32ebd8d92a5b"/>
      <resource>
         <Organization>
            <id value="c57bcbc9-f7dc-45c0-ac3d-32ebd8d92a5b"/>
            <meta>
               <profile value="http://hl7.eu/fhir/base/StructureDefinition/organization-eu"/>
            </meta>
            <text>
               <status value="generated"/>
               <div xmlns="http://www.w3.org/1999/xhtml">Provider Organization: Cornbrook Medical Practice</div>
            </text>
            <identifier>
               <system value="urn:oid:2.16.840.1.113883.2.51.999"/>
               <value value="2751ac3a-6e79-4b10-9185-5c6679beb5f5"/>
               <assigner>
                  <display value="HL7 Europe"/>
               </assigner>
            </identifier>
            <name value="Cornbrook Medical Practice"/>
            <address>
               <line value="City Road 204"/>
               <city value="Manchester"/>
               <postalCode value="M3 3"/>
               <country value="United Kingdom"/>
            </address>
         </Organization>
      </resource>
   </entry>
   <entry>
      <fullUrl value="urn:uuid:821ef4bf-af94-4892-a59b-f0a78f0e8f84"/>
      <resource>
         <Specimen>
            <id value="821ef4bf-af94-4892-a59b-f0a78f0e8f84"/>
            <meta>
               <profile value="http://hl7.eu/fhir/laboratory/StructureDefinition/Specimen-eu-lab"/>
            </meta>
            <text>
               <status value="generated"/>
               <div xmlns="http://www.w3.org/1999/xhtml">
                  <table class="hl7__eu__lab__report">
                     <tr>
                        <th>Specimen</th>
                        <th>Collection Date</th>
                     </tr>
                     <tr>
                        <td>Acellular blood (serum or plasma) specimen</td>
                        <td>
                           <span class="nb">08-Apr-2023</span>
                        </td>
                     </tr>
                  </table>
               </div>
            </text>
            <type>
               <coding>
                  <system value="http://snomed.info/sct"/>
                  <code value="122592007"/>
                  <display value="Acellular blood (serum or plasma) specimen"/>
               </coding>
            </type>
            <collection>
               <collectedDateTime value="2023-04-08"/>
            </collection>
         </Specimen>
      </resource>
   </entry>
   <entry>
      <fullUrl value="urn:uuid:dadee242-47df-4f21-921e-6b54b9a37b22"/>
      <resource>
         <Observation>
            <id value="dadee242-47df-4f21-921e-6b54b9a37b22"/>
            <meta>
               <profile value="http://hl7.eu/fhir/laboratory/StructureDefinition/Observation-resultslab-eu-lab"/>
            </meta>
            <text>
               <status value="generated"/>
               <div xmlns="http://www.w3.org/1999/xhtml">
                  <table class="hl7__eu__lab__report">
                     <tr>
                        <th>Test</th>
                        <th>08-Apr-2023</th>
                        <th>Reference Range</th>
                        <th>Unit</th>
                     </tr>
                     <tr>
                        <td>Cholesterol [Mass/volume] in Serum or Plasma</td>
                        <td>194.8</td>
                        <td>125 - 200</td>
                        <td/>
                        <td>mg/dL</td>
                     </tr>
                  </table>
               </div>
            </text>
            <status value="final"/>
            <category>
               <coding>
                  <system value="http://terminology.hl7.org/CodeSystem/observation-category"/>
                  <code value="laboratory"/>
               </coding>
            </category>
            <code>
               <coding>
                  <system value="http://loinc.org"/>
                  <code value="2093-3"/>
                  <display value="Cholesterol [Mass/volume] in Serum or Plasma"/>
               </coding>
               <text value="Cholesterol [Mass/volume] in Serum or Plasma"/>
            </code>
            <subject>
               <reference value="urn:uuid:eec6a8be-6aaa-4ec8-947a-78439b244c04"/>
               <display value="Pamela Dixon"/>
            </subject>
            <effectiveDateTime value="2023-04-08T18:20:37Z"/>
            <performer>
               <display value="The Central European Lab"/>
            </performer>
            <valueQuantity>
               <value value="194.8"/>
               <unit value="mg/dL"/>
               <system value="http://unitsofmeasure.org"/>
               <code value="mg/dL"/>
            </valueQuantity>
            <specimen>
               <reference value="urn:uuid:821ef4bf-af94-4892-a59b-f0a78f0e8f84"/>
            </specimen>
            <referenceRange>
               <low>
                  <value value="125"/>
                  <system value="http://unitsofmeasure.org"/>
                  <code value="mg/dL"/>
               </low>
            </referenceRange>
            <referenceRange>
               <high>
                  <value value="200"/>
                  <system value="http://unitsofmeasure.org"/>
                  <code value="mg/dL"/>
               </high>
            </referenceRange>
         </Observation>
      </resource>
   </entry>
   <entry>
      <fullUrl value="urn:uuid:e6ee92db-a309-404e-8fe9-d050770b3b24"/>
      <resource>
         <Observation>
            <id value="e6ee92db-a309-404e-8fe9-d050770b3b24"/>
            <meta>
               <profile value="http://hl7.eu/fhir/laboratory/StructureDefinition/Observation-resultslab-eu-lab"/>
            </meta>
            <text>
               <status value="generated"/>
               <div xmlns="http://www.w3.org/1999/xhtml">
                  <table class="hl7__eu__lab__report">
                     <tr>
                        <th>Test</th>
                        <th>08-Apr-2023</th>
                        <th>Reference Range</th>
                        <th>Unit</th>
                     </tr>
                     <tr>
                        <td>Triglyceride [Mass/volume] in Serum or Plasma</td>
                        <td>133.5</td>
                        <td>35 - 150</td>
                        <td/>
                        <td>mg/dL</td>
                     </tr>
                  </table>
               </div>
            </text>
            <status value="final"/>
            <category>
               <coding>
                  <system value="http://terminology.hl7.org/CodeSystem/observation-category"/>
                  <code value="laboratory"/>
               </coding>
            </category>
            <code>
               <coding>
                  <system value="http://loinc.org"/>
                  <code value="2571-8"/>
                  <display value="Triglyceride [Mass/volume] in Serum or Plasma"/>
               </coding>
               <text value="Triglyceride [Mass/volume] in Serum or Plasma"/>
            </code>
            <subject>
               <reference value="urn:uuid:eec6a8be-6aaa-4ec8-947a-78439b244c04"/>
               <display value="Pamela Dixon"/>
            </subject>
            <effectiveDateTime value="2023-04-08T18:20:37Z"/>
            <performer>
               <display value="The Central European Lab"/>
            </performer>
            <valueQuantity>
               <value value="133.5"/>
               <unit value="mg/dL"/>
               <system value="http://unitsofmeasure.org"/>
               <code value="mg/dL"/>
            </valueQuantity>
            <specimen>
               <reference value="urn:uuid:821ef4bf-af94-4892-a59b-f0a78f0e8f84"/>
            </specimen>
            <referenceRange>
               <low>
                  <value value="35"/>
                  <system value="http://unitsofmeasure.org"/>
                  <code value="mg/dL"/>
               </low>
            </referenceRange>
            <referenceRange>
               <high>
                  <value value="150"/>
                  <system value="http://unitsofmeasure.org"/>
                  <code value="mg/dL"/>
               </high>
            </referenceRange>
         </Observation>
      </resource>
   </entry>
   <entry>
      <fullUrl value="urn:uuid:36be3073-cf49-44d8-87d1-8c1471511722"/>
      <resource>
         <Observation>
            <id value="36be3073-cf49-44d8-87d1-8c1471511722"/>
            <meta>
               <profile value="http://hl7.eu/fhir/laboratory/StructureDefinition/Observation-resultslab-eu-lab"/>
            </meta>
            <text>
               <status value="generated"/>
               <div xmlns="http://www.w3.org/1999/xhtml">
                  <table class="hl7__eu__lab__report">
                     <tr>
                        <th>Test</th>
                        <th>08-Apr-2023</th>
                        <th>Reference Range</th>
                        <th>Unit</th>
                     </tr>
                     <tr>
                        <td>Cholesterol in LDL [Mass/volume] in Serum or Plasma by Direct assay</td>
                        <td>118.0</td>
                        <td>0 - 130</td>
                        <td/>
                        <td>mg/dL</td>
                     </tr>
                  </table>
               </div>
            </text>
            <status value="final"/>
            <category>
               <coding>
                  <system value="http://terminology.hl7.org/CodeSystem/observation-category"/>
                  <code value="laboratory"/>
               </coding>
            </category>
            <code>
               <coding>
                  <system value="http://loinc.org"/>
                  <code value="18262-6"/>
                  <display value="Cholesterol in LDL [Mass/volume] in Serum or Plasma by Direct assay"/>
               </coding>
               <text value="Cholesterol in LDL [Mass/volume] in Serum or Plasma by Direct assay"/>
            </code>
            <subject>
               <reference value="urn:uuid:eec6a8be-6aaa-4ec8-947a-78439b244c04"/>
               <display value="Pamela Dixon"/>
            </subject>
            <effectiveDateTime value="2023-04-08T18:20:37Z"/>
            <performer>
               <display value="The Central European Lab"/>
            </performer>
            <valueQuantity>
               <value value="118"/>
               <unit value="mg/dL"/>
               <system value="http://unitsofmeasure.org"/>
               <code value="mg/dL"/>
            </valueQuantity>
            <specimen>
               <reference value="urn:uuid:821ef4bf-af94-4892-a59b-f0a78f0e8f84"/>
            </specimen>
            <referenceRange>
               <low>
                  <value value="0"/>
                  <system value="http://unitsofmeasure.org"/>
                  <code value="mg/dL"/>
               </low>
            </referenceRange>
            <referenceRange>
               <high>
                  <value value="130"/>
                  <system value="http://unitsofmeasure.org"/>
                  <code value="mg/dL"/>
               </high>
            </referenceRange>
         </Observation>
      </resource>
   </entry>
   <entry>
      <fullUrl value="urn:uuid:72775de7-e9e0-482c-8654-f5fb6e020f98"/>
      <resource>
         <Observation>
            <id value="72775de7-e9e0-482c-8654-f5fb6e020f98"/>
            <meta>
               <profile value="http://hl7.eu/fhir/laboratory/StructureDefinition/Observation-resultslab-eu-lab"/>
            </meta>
            <text>
               <status value="generated"/>
               <div xmlns="http://www.w3.org/1999/xhtml">
                  <table class="hl7__eu__lab__report">
                     <tr>
                        <th>Test</th>
                        <th>08-Apr-2023</th>
                        <th>Reference Range</th>
                        <th>Unit</th>
                     </tr>
                     <tr>
                        <td>Cholesterol in HDL [Mass/volume] in Serum or Plasma</td>
                        <td>50.1</td>
                        <td>40 - 60</td>
                        <td/>
                        <td>mg/dL</td>
                     </tr>
                  </table>
               </div>
            </text>
            <status value="final"/>
            <category>
               <coding>
                  <system value="http://terminology.hl7.org/CodeSystem/observation-category"/>
                  <code value="laboratory"/>
               </coding>
            </category>
            <code>
               <coding>
                  <system value="http://loinc.org"/>
                  <code value="2085-9"/>
                  <display value="Cholesterol in HDL [Mass/volume] in Serum or Plasma"/>
               </coding>
               <text value="Cholesterol in HDL [Mass/volume] in Serum or Plasma"/>
            </code>
            <subject>
               <reference value="urn:uuid:eec6a8be-6aaa-4ec8-947a-78439b244c04"/>
               <display value="Pamela Dixon"/>
            </subject>
            <effectiveDateTime value="2023-04-08T18:20:37Z"/>
            <performer>
               <display value="The Central European Lab"/>
            </performer>
            <valueQuantity>
               <value value="50.1"/>
               <unit value="mg/dL"/>
               <system value="http://unitsofmeasure.org"/>
               <code value="mg/dL"/>
            </valueQuantity>
            <specimen>
               <reference value="urn:uuid:821ef4bf-af94-4892-a59b-f0a78f0e8f84"/>
            </specimen>
            <referenceRange>
               <low>
                  <value value="40"/>
                  <system value="http://unitsofmeasure.org"/>
                  <code value="mg/dL"/>
               </low>
            </referenceRange>
            <referenceRange>
               <high>
                  <value value="60"/>
                  <system value="http://unitsofmeasure.org"/>
                  <code value="mg/dL"/>
               </high>
            </referenceRange>
         </Observation>
      </resource>
   </entry>
   <entry>
      <fullUrl value="urn:uuid:d7209fd2-2223-4c08-91a3-7c34d0a5a7e8"/>
      <resource>
         <Device>
            <id value="d7209fd2-2223-4c08-91a3-7c34d0a5a7e8"/>
            <text>
               <status value="generated"/>
               <div xmlns="http://www.w3.org/1999/xhtml">SYNDERAI Synthetic Generator v5.0</div>
            </text>
            <status value="active&#34;"/>
            <distinctIdentifier value="synderai-generator-50"/>
            <manufacturer value="SYNDERAI Project"/>
            <deviceName>
               <name value="SYNDERAI Synthetic Generator"/>
               <type value="manufacturer-name"/>
            </deviceName>
            <version>
               <value value="5.0"/>
            </version>
         </Device>
      </resource>
   </entry>
   <entry>
      <fullUrl value="urn:uuid:4eae8977-8f56-4c68-8dbf-2d63af601824"/>
      <resource>
         <Provenance>
            <id value="4eae8977-8f56-4c68-8dbf-2d63af601824"/>
            <text>
               <status value="generated"/>
               <div xmlns="http://www.w3.org/1999/xhtml">Provenance for SYNDERAI Synthetic Example Data Resource</div>
            </text>
            <target>
               <reference value="Patient/eec6a8be-6aaa-4ec8-947a-78439b244c04"/>
            </target>
            <target>
               <reference value="Bundle/503cadd1-3b7e-4c76-87c7-62f180cad1a8"/>
            </target>
            <target>
               <reference value="Composition/d258b430-4291-45f1-a849-0c46d223a990"/>
            </target>
            <target>
               <reference value="PractitionerRole/94836d41-9a57-494b-bdda-09a19263cca6"/>
            </target>
            <target>
               <reference value="Practitioner/e82e37ad-3709-4a4a-b11a-d4e02e15754f"/>
            </target>
            <target>
               <reference value="PractitionerRole/8fd0c915-600b-4796-96a4-4461e996051d"/>
            </target>
            <target>
               <reference value="Organization/c57bcbc9-f7dc-45c0-ac3d-32ebd8d92a5b"/>
            </target>
            <recorded value="2023-04-08T20:20:37Z"/>
            <policy value="https://synderai.net/synderai-synthetic-data-policy"/>
            <reason>
               <text value="Interoperability Testing and Training (non-clinical use)"/>
            </reason>
            <activity>
               <text value="Synthetic Example Data Generation"/>
            </activity>
            <agent>
               <type>
                  <text value="author"/>
               </type>
               <who>
                  <reference value="Device/d7209fd2-2223-4c08-91a3-7c34d0a5a7e8"/>
               </who>
            </agent>
         </Provenance>
      </resource>
   </entry>
   <entry>
      <fullUrl value="urn:uuid:94836d41-9a57-494b-bdda-09a19263cca6"/>
      <resource>
         <PractitionerRole>
            <id value="94836d41-9a57-494b-bdda-09a19263cca6"/>
            <meta>
               <profile value="http://hl7.eu/fhir/base/StructureDefinition/practitionerRole-eu"/>
            </meta>
            <text>
               <status value="generated"/>
               <div xmlns="http://www.w3.org/1999/xhtml">Laboratory Role Id: 94836d41-9a57-494b-bdda-09a19263cca6</div>
            </text>
            <practitioner>
               <reference value="urn:uuid:e82e37ad-3709-4a4a-b11a-d4e02e15754f"/>
            </practitioner>
         </PractitionerRole>
      </resource>
   </entry>
   <entry>
      <fullUrl value="urn:uuid:e82e37ad-3709-4a4a-b11a-d4e02e15754f"/>
      <resource>
         <Practitioner>
            <id value="e82e37ad-3709-4a4a-b11a-d4e02e15754f"/>
            <meta>
               <profile value="http://hl7.eu/fhir/base/StructureDefinition/practitioner-eu"/>
            </meta>
            <text>
               <status value="generated"/>
               <div xmlns="http://www.w3.org/1999/xhtml">Laboratory: Laboratoire Central Européenne, 1000 Brussels, Belgium</div>
            </text>
            <identifier>
               <system value="urn:oid:2.16.840.1.113883.2.51.999"/>
               <value value="e115f52f-183f-4a29-988d-000eb3ee1dd7"/>
               <assigner>
                  <display value="HL7 Europe"/>
               </assigner>
            </identifier>
            <name>
               <family value="Ample"/>
               <given value="Ex"/>
               <prefix value="dr"/>
            </name>
            <address>
               <line value="Laboratoire Central Européenne"/>
               <line value="Boulevard du Jardin Botanique 32"/>
               <city value="Brussels"/>
               <postalCode value="1000"/>
               <country value="Belgium"/>
            </address>
         </Practitioner>
      </resource>
   </entry>
</Bundle>