{
  "resourceType": "Bundle",
  "id": "5c5e3ee2-4284-4a45-a265-df5b78de3874",
  "meta": {
    "profile": [
      "http://hl7.eu/fhir/laboratory/StructureDefinition/Bundle-eu-lab"
    ]
  },
  "identifier": {
    "assigner": {
      "display": "HL7 Europe"
    },
    "system": "urn:oid:2.16.840.1.113883.2.51.999",
    "value": "d31fad9f-1328-4874-a8d3-ced9a4d31201"
  },
  "entry": [
    {
      "fullUrl": "urn:uuid:bd3efb09-3aef-4020-b675-25623c260d81",
      "resource": {
        "resourceType": "Composition",
        "id": "bd3efb09-3aef-4020-b675-25623c260d81",
        "meta": {
          "profile": [
            "http://hl7.eu/fhir/laboratory/StructureDefinition/Composition-eu-lab"
          ]
        },
        "identifier": {
          "assigner": {
            "display": "HL7 Europe"
          },
          "system": "urn:oid:2.16.840.1.113883.2.51.999",
          "value": "1d9cb8db-e116-42ca-9371-659622bd7a9d"
        },
        "author": [
          {
            "reference": "urn:uuid:e3595391-bce8-4b86-9b29-6f25be1065fe"
          }
        ],
        "category": [
          {
            "coding": [
              {
                "code": "26436-6",
                "system": "http://loinc.org",
                "display": "Laboratory studies (set)"
              }
            ]
          }
        ],
        "type": {
          "coding": [
            {
              "code": "11502-2",
              "system": "http://loinc.org",
              "display": "Laboratory report"
            }
          ],
          "text": "Laboratory Report"
        },
        "section": [
          {
            "code": {
              "coding": [
                {
                  "code": "26436-6",
                  "system": "http://loinc.org",
                  "display": "Laboratory studies (set)"
                }
              ],
              "text": "Laboratory studies"
            },
            "section": [
              {
                "code": {
                  "coding": [
                    {
                      "code": "$18719-5",
                      "system": "http://loinc.org",
                      "display": "Chemistry studies (set)"
                    }
                  ],
                  "text": "Chemistry"
                },
                "entry": [
                  {
                    "reference": "urn:uuid:9716008a-b122-4fad-9b90-251d24b62491"
                  },
                  {
                    "reference": "urn:uuid:9e67856e-293d-4b0c-aa28-1047726dee76"
                  },
                  {
                    "reference": "urn:uuid:b29b1a4d-60f7-4ab4-9f9f-e9335ae4fea1"
                  },
                  {
                    "reference": "urn:uuid:a8899d3e-237a-4fdb-bc2f-9cc8b971fcb6"
                  },
                  {
                    "reference": "urn:uuid:3dc21ba0-c099-4394-803e-624d1befd8ac"
                  },
                  {
                    "reference": "urn:uuid:b851699b-1905-4ac1-9b1b-51d4e9f35e0a"
                  },
                  {
                    "reference": "urn:uuid:bf28525b-56c1-4d19-99ba-1bc18b74afa6"
                  },
                  {
                    "reference": "urn:uuid:57a0e439-af2e-4298-b576-55e4d26c4bf8"
                  },
                  {
                    "reference": "urn:uuid:cff17033-da0f-43f1-abe7-066f31fa9d4b"
                  },
                  {
                    "reference": "urn:uuid:6286f964-5574-4c81-a267-2c22a5fad676"
                  },
                  {
                    "reference": "urn:uuid:e99e5b42-b9d6-4c54-b034-48fc10729abc"
                  },
                  {
                    "reference": "urn:uuid:81d15156-ebbc-4ef3-ba4b-76aa790d0bac"
                  },
                  {
                    "reference": "urn:uuid:f1e460a8-26d9-430b-81fc-c8f9f8cf5b0d"
                  },
                  {
                    "reference": "urn:uuid:ae38f177-7444-44cc-9cb9-83988d1707ad"
                  },
                  {
                    "reference": "urn:uuid:def5a03a-c01c-42e6-bc1f-bee860c084d4"
                  },
                  {
                    "reference": "urn:uuid:379a38cb-c5e9-4b5c-a9b8-cf565a897726"
                  },
                  {
                    "reference": "urn:uuid:d7645f2e-05cd-4fc3-80d3-1e94cf017a21"
                  },
                  {
                    "reference": "urn:uuid:e11654a4-de7c-4c84-a6f7-bc62393a7136"
                  },
                  {
                    "reference": "urn:uuid:64f20d2a-f2a0-471e-9e57-cd5170d5521d"
                  }
                ],
                "text": {
                  "status": "generated",
                  "div": "<div xmlns=\"http://www.w3.org/1999/xhtml\"><h3>Chemistry</h3><table class=\"hl7__eu__lab__report\"><thead><tr><th>Test</th><th>02-SEP-2017</th><th>Reference&#xA0;Range</th><th>Unit</th></tr></thead><tbody><tr><td>Glucose [Mass/volume] in Blood</td><td><strong>64.7 L</strong></td><td>70 - 140</td><td>mg/dL</td></tr><tr><td>Urea nitrogen [Mass/volume] in Blood</td><td>12.8</td><td>7 - 20</td><td>mg/dL</td></tr><tr><td>Creatinine [Mass/volume] in Blood</td><td><strong>2.9 H</strong></td><td>0.6 - 1.3</td><td>mg/dL</td></tr><tr><td>Calcium [Mass/volume] in Blood</td><td>9.6</td><td>8.5 - 10.5</td><td>mg/dL</td></tr><tr><td>Sodium [Moles/volume] in Blood</td><td>141.7</td><td>135 - 145</td><td>mmol/L</td></tr><tr><td>Potassium [Moles/volume] in Blood</td><td>4.3</td><td>3.5 - 5.1</td><td>mmol/L</td></tr><tr><td>Chloride [Moles/volume] in Blood</td><td>104.3</td><td>98 - 108</td><td>mmol/L</td></tr><tr><td>Carbon dioxide, total [Moles/volume] in Blood</td><td>28.6</td><td>22 - 32</td><td>mmol/L</td></tr><tr><td>Protein [Mass/volume] in Serum or Plasma</td><td>7.3</td><td>6.6 - 8.3</td><td>g/dL</td></tr><tr><td>Albumin [Mass/volume] in Serum or Plasma</td><td>5.1</td><td>3.5 - 5.5</td><td>g/dL</td></tr><tr><td>Globulin [Mass/volume] in Serum by calculation</td><td>2.5</td><td>2 - 3.5</td><td>g/L</td></tr><tr><td>Bilirubin.total [Mass/volume] in Serum or Plasma</td><td>1.0</td><td>0.3 - 1.2</td><td>mg/dL</td></tr><tr><td>Alkaline phosphatase [Enzymatic activity/volume] in Serum or Plasma</td><td>115.6</td><td>53 - 130</td><td>U/L</td></tr><tr><td>Alanine aminotransferase [Enzymatic activity/volume] in Serum or Plasma</td><td>57.1</td><td>7 - 60</td><td>U/L</td></tr><tr><td>Aspartate aminotransferase [Enzymatic activity/volume] in Serum or Plasma</td><td><strong>6.5 L</strong></td><td>10 - 49</td><td>U/L</td></tr><tr><td>Cholesterol [Mass/volume] in Serum or Plasma</td><td>163.1</td><td>125 - 200</td><td>mg/dL</td></tr><tr><td>Triglyceride [Mass/volume] in Serum or Plasma</td><td>140.8</td><td>40 - 150</td><td>mg/dL</td></tr><tr><td>Cholesterol in LDL [Mass/volume] in Serum or Plasma by Direct assay</td><td>96.8</td><td>0 - 190</td><td>mg/dL</td></tr><tr><td>Cholesterol in HDL [Mass/volume] in Serum or Plasma</td><td><strong>31.4 L</strong></td><td>40 - 60</td><td>mg/dL</td></tr></tbody></table></div>"
                },
                "title": "Chemistry"
              }
            ],
            "title": "Laboratory Report"
          },
          {
            "text": {
              "status": "generated",
              "div": "<div xmlns=\"http://www.w3.org/1999/xhtml\"><h3>Annotation</h3><table class=\"hl7__eu__lab__report\"><tr><th>Conclusion and Recommendations based on this report and previous findings known to us</th></tr><tr><td>The patient shows elevated creatinine, suggesting impaired renal function, and low blood glucose, which may indicate hypoglycemia risk. HDL cholesterol is low, increasing cardiovascular risk. Other parameters, including liver enzymes, electrolytes, and proteins, are within normal limits. Recommend clinical correlation for renal function and glucose management, and consider addressing cardiovascular risk factors.</td></tr></table></div>"
            },
            "code": {
              "coding": [
                {
                  "system": "http://loinc.org",
                  "code": "48767-8",
                  "display": "Annotation comment"
                }
              ]
            },
            "title": "Annotation comment"
          }
        ],
        "status": "final",
        "subject": {
          "reference": "urn:uuid:af5953e7-083a-47cd-b14a-512778acd3ac",
          "display": "Leonhard Köhler"
        },
        "date": "2017-09-02T04:48:23Z",
        "title": "Laboratory Report",
        "confidentiality": "N"
      }
    },
    {
      "fullUrl": "urn:uuid:e7759572-9123-431b-8553-29dfd3267690",
      "resource": {
        "resourceType": "DiagnosticReport",
        "id": "e7759572-9123-431b-8553-29dfd3267690",
        "meta": {
          "profile": [
            "http://hl7.eu/fhir/laboratory/StructureDefinition/DiagnosticReport-eu-lab"
          ]
        },
        "identifier": [
          {
            "assigner": {
              "display": "HL7 Europe"
            },
            "system": "urn:oid:2.16.840.1.113883.2.51.999",
            "value": "27a975c1-e333-439f-a49c-0d48a17049e4"
          }
        ],
        "extension": [
          {
            "url": "http://hl7.org/fhir/5.0/StructureDefinition/extension-DiagnosticReport.composition",
            "valueReference": {
              "reference": "urn:uuid:1d9cb8db-e116-42ca-9371-659622bd7a9d"
            }
          }
        ],
        "category": [
          {
            "coding": [
              {
                "code": "26436-6",
                "system": "http://loinc.org",
                "display": "Laboratory studies (set)"
              }
            ]
          }
        ],
        "specimen": [
          {
            "reference": "urn:uuid:a6fedfd8-5c96-4610-9bb4-f26097aacc1b"
          },
          {
            "reference": "urn:uuid:bc59753f-cee8-47e5-8b29-1c62526f93d7"
          },
          {
            "reference": "urn:uuid:4c395af5-20fb-435d-838e-e50c56c81526"
          }
        ],
        "result": [
          {
            "reference": "urn:uuid:9716008a-b122-4fad-9b90-251d24b62491"
          },
          {
            "reference": "urn:uuid:9e67856e-293d-4b0c-aa28-1047726dee76"
          },
          {
            "reference": "urn:uuid:b29b1a4d-60f7-4ab4-9f9f-e9335ae4fea1"
          },
          {
            "reference": "urn:uuid:a8899d3e-237a-4fdb-bc2f-9cc8b971fcb6"
          },
          {
            "reference": "urn:uuid:3dc21ba0-c099-4394-803e-624d1befd8ac"
          },
          {
            "reference": "urn:uuid:b851699b-1905-4ac1-9b1b-51d4e9f35e0a"
          },
          {
            "reference": "urn:uuid:bf28525b-56c1-4d19-99ba-1bc18b74afa6"
          },
          {
            "reference": "urn:uuid:57a0e439-af2e-4298-b576-55e4d26c4bf8"
          },
          {
            "reference": "urn:uuid:cff17033-da0f-43f1-abe7-066f31fa9d4b"
          },
          {
            "reference": "urn:uuid:6286f964-5574-4c81-a267-2c22a5fad676"
          },
          {
            "reference": "urn:uuid:e99e5b42-b9d6-4c54-b034-48fc10729abc"
          },
          {
            "reference": "urn:uuid:81d15156-ebbc-4ef3-ba4b-76aa790d0bac"
          },
          {
            "reference": "urn:uuid:f1e460a8-26d9-430b-81fc-c8f9f8cf5b0d"
          },
          {
            "reference": "urn:uuid:ae38f177-7444-44cc-9cb9-83988d1707ad"
          },
          {
            "reference": "urn:uuid:def5a03a-c01c-42e6-bc1f-bee860c084d4"
          },
          {
            "reference": "urn:uuid:379a38cb-c5e9-4b5c-a9b8-cf565a897726"
          },
          {
            "reference": "urn:uuid:d7645f2e-05cd-4fc3-80d3-1e94cf017a21"
          },
          {
            "reference": "urn:uuid:e11654a4-de7c-4c84-a6f7-bc62393a7136"
          },
          {
            "reference": "urn:uuid:64f20d2a-f2a0-471e-9e57-cd5170d5521d"
          }
        ],
        "status": "registered",
        "code": {
          "coding": [
            {
              "code": "11502-2",
              "system": "http://loinc.org",
              "display": "Laboratory report"
            }
          ]
        },
        "subject": {
          "reference": "urn:uuid:af5953e7-083a-47cd-b14a-512778acd3ac",
          "display": "Leonhard Köhler"
        }
      }
    },
    {
      "fullUrl": "urn:uuid:af5953e7-083a-47cd-b14a-512778acd3ac",
      "resource": {
        "resourceType": "Patient",
        "id": "af5953e7-083a-47cd-b14a-512778acd3ac",
        "meta": {
          "security": [
            {
              "system": "http://terminology.hl7.org/CodeSystem/v3-ActReason",
              "code": "HTEST"
            },
            {
              "system": "http://terminology.hl7.org/CodeSystem/v3-ActReason",
              "code": "TRAIN"
            }
          ],
          "tag": [
            {
              "system": "https://synderai.net/fhir/CodeSystem/tags",
              "code": "synthetic",
              "display": "SYNDERAI Synthetic data"
            }
          ],
          "profile": [
            "http://hl7.eu/fhir/base/StructureDefinition/patient-eu-core"
          ]
        },
        "identifier": [
          {
            "type": {
              "coding": [
                {
                  "code": "PT",
                  "system": "http://terminology.hl7.org/CodeSystem/v2-0203"
                }
              ]
            },
            "system": "http://ec.europa.eu/identifier/eci",
            "value": "5321-442678-4"
          },
          {
            "type": {
              "coding": [
                {
                  "code": "MR",
                  "system": "http://terminology.hl7.org/CodeSystem/v2-0203"
                }
              ]
            },
            "system": "http://local.setting.eu/identifier",
            "value": "ffa9f0d8-c016-d46c-e666-000f53715b47"
          }
        ],
        "name": [
          {
            "family": "Köhler"
          },
          {
            "given": [
              "Leonhard"
            ]
          },
          {
            "text": "Leonhard Köhler"
          }
        ],
        "address": [
          {
            "line": [
              "Henckweg 97/34"
            ],
            "use": "home",
            "type": "physical",
            "postalCode": "87629",
            "city": "Füssen",
            "country": "Germany"
          }
        ],
        "telecom": [
          {
            "system": "phone",
            "value": "00028839855"
          }
        ],
        "extension": [
          {
            "url": "http://hl7.org/fhir/StructureDefinition/patient-nationality",
            "valueCodeableConcept": {
              "coding": [
                {
                  "code": "DE",
                  "system": "http://hl7.org/fhir/ValueSet/country"
                }
              ]
            }
          }
        ],
        "text": {
          "status": "generated",
          "div": "<div xmlns=\"http://www.w3.org/1999/xhtml\"><table class=\"hl7__ips\"><tr><td>Leonhard Köhler</td><td>male</td><td>19-Dec-1949</td></tr></table></div>"
        },
        "gender": "male",
        "birthDate": "1949-12-19"
      }
    },
    {
      "fullUrl": "urn:uuid:9397299a-3522-4e91-a659-b23e826606c8",
      "resource": {
        "resourceType": "ServiceRequest",
        "id": "9397299a-3522-4e91-a659-b23e826606c8",
        "meta": {
          "profile": [
            "http://hl7.eu/fhir/laboratory/StructureDefinition/ServiceRequest-eu-lab"
          ]
        },
        "identifier": [
          {
            "system": "http://example.org",
            "value": "e2f28f4a-6514-4aef-a006-2deeb8921bc9"
          }
        ],
        "specimen": [
          {
            "reference": "urn:uuid:a6fedfd8-5c96-4610-9bb4-f26097aacc1b"
          },
          {
            "reference": "urn:uuid:bc59753f-cee8-47e5-8b29-1c62526f93d7"
          },
          {
            "reference": "urn:uuid:4c395af5-20fb-435d-838e-e50c56c81526"
          }
        ],
        "reasonCode": [
          {
            "coding": [
              {
                "code": "55822004",
                "system": "http://snomed.info/sct",
                "display": "Hyperlipidemia"
              }
            ]
          },
          {
            "coding": [
              {
                "code": "414545008",
                "system": "http://snomed.info/sct",
                "display": "Ischemic heart disease"
              }
            ]
          },
          {
            "coding": [
              {
                "code": "59621000",
                "system": "http://snomed.info/sct",
                "display": "Essential hypertension"
              }
            ]
          },
          {
            "coding": [
              {
                "code": "239873007",
                "system": "http://snomed.info/sct",
                "display": "Osteoarthritis of knee"
              }
            ]
          },
          {
            "coding": [
              {
                "code": "271737000",
                "system": "http://snomed.info/sct",
                "display": "Anemia"
              }
            ]
          },
          {
            "coding": [
              {
                "code": "15777000",
                "system": "http://snomed.info/sct",
                "display": "Prediabetes"
              }
            ]
          }
        ],
        "status": "active",
        "intent": "order",
        "code": {
          "coding": [
            {
              "code": "108252007",
              "system": "http://snomed.info/sct",
              "display": "Laboratory procedure"
            }
          ]
        },
        "subject": {
          "reference": "urn:uuid:af5953e7-083a-47cd-b14a-512778acd3ac",
          "display": "Leonhard Köhler"
        },
        "requester": {
          "reference": "urn:uuid:215b70aa-0d52-4b74-a833-d060dd56365b"
        }
      }
    },
    {
      "fullUrl": "urn:uuid:215b70aa-0d52-4b74-a833-d060dd56365b",
      "resource": {
        "resourceType": "PractitionerRole",
        "id": "215b70aa-0d52-4b74-a833-d060dd56365b",
        "meta": {
          "profile": [
            "http://hl7.eu/fhir/base/StructureDefinition/practitionerRole-eu"
          ]
        },
        "text": {
          "status": "generated",
          "div": "<div xmlns=\"http://www.w3.org/1999/xhtml\">Provider Role Id: 215b70aa-0d52-4b74-a833-d060dd56365b</div>"
        },
        "organization": {
          "reference": "urn:uuid:9376466a-f8f1-469b-8156-4986a9c90ea4"
        }
      }
    },
    {
      "fullUrl": "urn:uuid:9376466a-f8f1-469b-8156-4986a9c90ea4",
      "resource": {
        "resourceType": "Organization",
        "id": "9376466a-f8f1-469b-8156-4986a9c90ea4",
        "meta": {
          "profile": [
            "http://hl7.eu/fhir/base/StructureDefinition/organization-eu"
          ]
        },
        "identifier": [
          {
            "assigner": {
              "display": "HL7 Europe"
            },
            "system": "urn:oid:2.16.840.1.113883.2.51.999",
            "value": "08523955-f7b0-44ff-be15-fff68a31dff7"
          }
        ],
        "address": [
          {
            "line": [
              "Feistlestraße 2"
            ],
            "city": "Füssen",
            "postalCode": "87629",
            "country": "Germany"
          }
        ],
        "text": {
          "status": "generated",
          "div": "<div xmlns=\"http://www.w3.org/1999/xhtml\">Provider Organization: hier ist kein Ärztehaus</div>"
        },
        "name": "hier ist kein Ärztehaus"
      }
    },
    {
      "fullUrl": "urn:uuid:a6fedfd8-5c96-4610-9bb4-f26097aacc1b",
      "resource": {
        "resourceType": "Specimen",
        "id": "a6fedfd8-5c96-4610-9bb4-f26097aacc1b",
        "meta": {
          "profile": [
            "http://hl7.eu/fhir/laboratory/StructureDefinition/Specimen-eu-lab"
          ]
        },
        "collection": {
          "collectedDateTime": "2017-09-02"
        },
        "text": {
          "status": "generated",
          "div": "<div xmlns=\"http://www.w3.org/1999/xhtml\"><table class=\"hl7__eu__lab__report\"><tr><th>Specimen</th><th>Collection Date</th></tr><tr><td>Whole blood specimen (specimen)</td><td><span class=\"nb\">02-Sep-2017</span></td></tr></table></div>"
        },
        "type": {
          "coding": [
            {
              "code": "258580003",
              "system": "http://snomed.info/sct",
              "display": "Whole blood specimen (specimen)"
            }
          ]
        }
      }
    },
    {
      "fullUrl": "urn:uuid:bc59753f-cee8-47e5-8b29-1c62526f93d7",
      "resource": {
        "resourceType": "Specimen",
        "id": "bc59753f-cee8-47e5-8b29-1c62526f93d7",
        "meta": {
          "profile": [
            "http://hl7.eu/fhir/laboratory/StructureDefinition/Specimen-eu-lab"
          ]
        },
        "collection": {
          "collectedDateTime": "2017-09-02"
        },
        "text": {
          "status": "generated",
          "div": "<div xmlns=\"http://www.w3.org/1999/xhtml\"><table class=\"hl7__eu__lab__report\"><tr><th>Specimen</th><th>Collection Date</th></tr><tr><td>Acellular blood (serum or plasma) specimen</td><td><span class=\"nb\">02-Sep-2017</span></td></tr></table></div>"
        },
        "type": {
          "coding": [
            {
              "code": "122592007",
              "system": "http://snomed.info/sct",
              "display": "Acellular blood (serum or plasma) specimen"
            }
          ]
        }
      }
    },
    {
      "fullUrl": "urn:uuid:4c395af5-20fb-435d-838e-e50c56c81526",
      "resource": {
        "resourceType": "Specimen",
        "id": "4c395af5-20fb-435d-838e-e50c56c81526",
        "meta": {
          "profile": [
            "http://hl7.eu/fhir/laboratory/StructureDefinition/Specimen-eu-lab"
          ]
        },
        "collection": {
          "collectedDateTime": "2017-09-02"
        },
        "text": {
          "status": "generated",
          "div": "<div xmlns=\"http://www.w3.org/1999/xhtml\"><table class=\"hl7__eu__lab__report\"><tr><th>Specimen</th><th>Collection Date</th></tr><tr><td>Serum specimen</td><td><span class=\"nb\">02-Sep-2017</span></td></tr></table></div>"
        },
        "type": {
          "coding": [
            {
              "code": "119364003",
              "system": "http://snomed.info/sct",
              "display": "Serum specimen"
            }
          ]
        }
      }
    },
    {
      "fullUrl": "urn:uuid:9716008a-b122-4fad-9b90-251d24b62491",
      "resource": {
        "resourceType": "Observation",
        "id": "9716008a-b122-4fad-9b90-251d24b62491",
        "meta": {
          "profile": [
            "http://hl7.eu/fhir/laboratory/StructureDefinition/Observation-resultslab-eu-lab"
          ]
        },
        "performer": [
          {
            "display": "The Central European Lab"
          }
        ],
        "category": [
          {
            "coding": [
              {
                "system": "http://terminology.hl7.org/CodeSystem/observation-category",
                "code": "laboratory"
              }
            ]
          }
        ],
        "code": {
          "coding": [
            {
              "code": "2339-0",
              "system": "http://loinc.org",
              "display": "Glucose [Mass/volume] in Blood"
            }
          ],
          "text": "Glucose [Mass/volume] in Blood"
        },
        "valueQuantity": {
          "system": "http://unitsofmeasure.org",
          "value": 64.7,
          "unit": "mg/dL",
          "code": "mg/dL"
        },
        "referenceRange": [
          {
            "low": {
              "value": 70,
              "code": "mg/dL",
              "system": "http://unitsofmeasure.org"
            }
          },
          {
            "high": {
              "value": 140,
              "code": "mg/dL",
              "system": "http://unitsofmeasure.org"
            }
          }
        ],
        "interpretation": [
          {
            "coding": [
              {
                "code": "L",
                "system": "http://terminology.hl7.org/CodeSystem/v3-ObservationInterpretation",
                "display": "Low"
              }
            ]
          }
        ],
        "text": {
          "status": "generated",
          "div": "<div xmlns=\"http://www.w3.org/1999/xhtml\"><table class=\"hl7__eu__lab__report\"><tr><th>Test</th><th>02-Sep-2017</th><th>Reference&#xA0;Range</th><th>Unit</th></tr><tr><td>Glucose [Mass/volume] in Blood</td><td>64.7</td><td>70 - 140</td><td>L</td><td>mg/dL</td></tr></table></div>"
        },
        "status": "final",
        "subject": {
          "reference": "urn:uuid:af5953e7-083a-47cd-b14a-512778acd3ac",
          "display": "Leonhard Köhler"
        },
        "effectiveDateTime": "2017-09-02T02:48:23Z",
        "specimen": {
          "reference": "urn:uuid:a6fedfd8-5c96-4610-9bb4-f26097aacc1b"
        }
      }
    },
    {
      "fullUrl": "urn:uuid:9e67856e-293d-4b0c-aa28-1047726dee76",
      "resource": {
        "resourceType": "Observation",
        "id": "9e67856e-293d-4b0c-aa28-1047726dee76",
        "meta": {
          "profile": [
            "http://hl7.eu/fhir/laboratory/StructureDefinition/Observation-resultslab-eu-lab"
          ]
        },
        "performer": [
          {
            "display": "The Central European Lab"
          }
        ],
        "category": [
          {
            "coding": [
              {
                "system": "http://terminology.hl7.org/CodeSystem/observation-category",
                "code": "laboratory"
              }
            ]
          }
        ],
        "code": {
          "coding": [
            {
              "code": "6299-2",
              "system": "http://loinc.org",
              "display": "Urea nitrogen [Mass/volume] in Blood"
            }
          ],
          "text": "Urea nitrogen [Mass/volume] in Blood"
        },
        "valueQuantity": {
          "system": "http://unitsofmeasure.org",
          "value": 12.8,
          "unit": "mg/dL",
          "code": "mg/dL"
        },
        "referenceRange": [
          {
            "low": {
              "value": 7,
              "code": "mg/dL",
              "system": "http://unitsofmeasure.org"
            }
          },
          {
            "high": {
              "value": 20,
              "code": "mg/dL",
              "system": "http://unitsofmeasure.org"
            }
          }
        ],
        "text": {
          "status": "generated",
          "div": "<div xmlns=\"http://www.w3.org/1999/xhtml\"><table class=\"hl7__eu__lab__report\"><tr><th>Test</th><th>02-Sep-2017</th><th>Reference&#xA0;Range</th><th>Unit</th></tr><tr><td>Urea nitrogen [Mass/volume] in Blood</td><td>12.8</td><td>7 - 20</td><td></td><td>mg/dL</td></tr></table></div>"
        },
        "status": "final",
        "subject": {
          "reference": "urn:uuid:af5953e7-083a-47cd-b14a-512778acd3ac",
          "display": "Leonhard Köhler"
        },
        "effectiveDateTime": "2017-09-02T02:48:23Z",
        "specimen": {
          "reference": "urn:uuid:a6fedfd8-5c96-4610-9bb4-f26097aacc1b"
        }
      }
    },
    {
      "fullUrl": "urn:uuid:b29b1a4d-60f7-4ab4-9f9f-e9335ae4fea1",
      "resource": {
        "resourceType": "Observation",
        "id": "b29b1a4d-60f7-4ab4-9f9f-e9335ae4fea1",
        "meta": {
          "profile": [
            "http://hl7.eu/fhir/laboratory/StructureDefinition/Observation-resultslab-eu-lab"
          ]
        },
        "performer": [
          {
            "display": "The Central European Lab"
          }
        ],
        "category": [
          {
            "coding": [
              {
                "system": "http://terminology.hl7.org/CodeSystem/observation-category",
                "code": "laboratory"
              }
            ]
          }
        ],
        "code": {
          "coding": [
            {
              "code": "38483-4",
              "system": "http://loinc.org",
              "display": "Creatinine [Mass/volume] in Blood"
            }
          ],
          "text": "Creatinine [Mass/volume] in Blood"
        },
        "valueQuantity": {
          "system": "http://unitsofmeasure.org",
          "value": 2.9,
          "unit": "mg/dL",
          "code": "mg/dL"
        },
        "referenceRange": [
          {
            "low": {
              "value": 0.6,
              "code": "mg/dL",
              "system": "http://unitsofmeasure.org"
            }
          },
          {
            "high": {
              "value": 1.3,
              "code": "mg/dL",
              "system": "http://unitsofmeasure.org"
            }
          }
        ],
        "interpretation": [
          {
            "coding": [
              {
                "code": "H",
                "system": "http://terminology.hl7.org/CodeSystem/v3-ObservationInterpretation",
                "display": "High"
              }
            ]
          }
        ],
        "text": {
          "status": "generated",
          "div": "<div xmlns=\"http://www.w3.org/1999/xhtml\"><table class=\"hl7__eu__lab__report\"><tr><th>Test</th><th>02-Sep-2017</th><th>Reference&#xA0;Range</th><th>Unit</th></tr><tr><td>Creatinine [Mass/volume] in Blood</td><td>2.9</td><td>0.6 - 1.3</td><td>H</td><td>mg/dL</td></tr></table></div>"
        },
        "status": "final",
        "subject": {
          "reference": "urn:uuid:af5953e7-083a-47cd-b14a-512778acd3ac",
          "display": "Leonhard Köhler"
        },
        "effectiveDateTime": "2017-09-02T02:48:23Z",
        "specimen": {
          "reference": "urn:uuid:a6fedfd8-5c96-4610-9bb4-f26097aacc1b"
        }
      }
    },
    {
      "fullUrl": "urn:uuid:a8899d3e-237a-4fdb-bc2f-9cc8b971fcb6",
      "resource": {
        "resourceType": "Observation",
        "id": "a8899d3e-237a-4fdb-bc2f-9cc8b971fcb6",
        "meta": {
          "profile": [
            "http://hl7.eu/fhir/laboratory/StructureDefinition/Observation-resultslab-eu-lab"
          ]
        },
        "performer": [
          {
            "display": "The Central European Lab"
          }
        ],
        "category": [
          {
            "coding": [
              {
                "system": "http://terminology.hl7.org/CodeSystem/observation-category",
                "code": "laboratory"
              }
            ]
          }
        ],
        "code": {
          "coding": [
            {
              "code": "49765-1",
              "system": "http://loinc.org",
              "display": "Calcium [Mass/volume] in Blood"
            }
          ],
          "text": "Calcium [Mass/volume] in Blood"
        },
        "valueQuantity": {
          "system": "http://unitsofmeasure.org",
          "value": 9.6,
          "unit": "mg/dL",
          "code": "mg/dL"
        },
        "referenceRange": [
          {
            "low": {
              "value": 8.5,
              "code": "mg/dL",
              "system": "http://unitsofmeasure.org"
            }
          },
          {
            "high": {
              "value": 10.5,
              "code": "mg/dL",
              "system": "http://unitsofmeasure.org"
            }
          }
        ],
        "text": {
          "status": "generated",
          "div": "<div xmlns=\"http://www.w3.org/1999/xhtml\"><table class=\"hl7__eu__lab__report\"><tr><th>Test</th><th>02-Sep-2017</th><th>Reference&#xA0;Range</th><th>Unit</th></tr><tr><td>Calcium [Mass/volume] in Blood</td><td>9.6</td><td>8.5 - 10.5</td><td></td><td>mg/dL</td></tr></table></div>"
        },
        "status": "final",
        "subject": {
          "reference": "urn:uuid:af5953e7-083a-47cd-b14a-512778acd3ac",
          "display": "Leonhard Köhler"
        },
        "effectiveDateTime": "2017-09-02T02:48:23Z",
        "specimen": {
          "reference": "urn:uuid:a6fedfd8-5c96-4610-9bb4-f26097aacc1b"
        }
      }
    },
    {
      "fullUrl": "urn:uuid:3dc21ba0-c099-4394-803e-624d1befd8ac",
      "resource": {
        "resourceType": "Observation",
        "id": "3dc21ba0-c099-4394-803e-624d1befd8ac",
        "meta": {
          "profile": [
            "http://hl7.eu/fhir/laboratory/StructureDefinition/Observation-resultslab-eu-lab"
          ]
        },
        "performer": [
          {
            "display": "The Central European Lab"
          }
        ],
        "category": [
          {
            "coding": [
              {
                "system": "http://terminology.hl7.org/CodeSystem/observation-category",
                "code": "laboratory"
              }
            ]
          }
        ],
        "code": {
          "coding": [
            {
              "code": "2947-0",
              "system": "http://loinc.org",
              "display": "Sodium [Moles/volume] in Blood"
            }
          ],
          "text": "Sodium [Moles/volume] in Blood"
        },
        "valueQuantity": {
          "system": "http://unitsofmeasure.org",
          "value": 141.7,
          "unit": "mmol/L",
          "code": "mmol/L"
        },
        "referenceRange": [
          {
            "low": {
              "value": 135,
              "code": "mmol/L",
              "system": "http://unitsofmeasure.org"
            }
          },
          {
            "high": {
              "value": 145,
              "code": "mmol/L",
              "system": "http://unitsofmeasure.org"
            }
          }
        ],
        "text": {
          "status": "generated",
          "div": "<div xmlns=\"http://www.w3.org/1999/xhtml\"><table class=\"hl7__eu__lab__report\"><tr><th>Test</th><th>02-Sep-2017</th><th>Reference&#xA0;Range</th><th>Unit</th></tr><tr><td>Sodium [Moles/volume] in Blood</td><td>141.7</td><td>135 - 145</td><td></td><td>mmol/L</td></tr></table></div>"
        },
        "status": "final",
        "subject": {
          "reference": "urn:uuid:af5953e7-083a-47cd-b14a-512778acd3ac",
          "display": "Leonhard Köhler"
        },
        "effectiveDateTime": "2017-09-02T02:48:23Z",
        "specimen": {
          "reference": "urn:uuid:a6fedfd8-5c96-4610-9bb4-f26097aacc1b"
        }
      }
    },
    {
      "fullUrl": "urn:uuid:b851699b-1905-4ac1-9b1b-51d4e9f35e0a",
      "resource": {
        "resourceType": "Observation",
        "id": "b851699b-1905-4ac1-9b1b-51d4e9f35e0a",
        "meta": {
          "profile": [
            "http://hl7.eu/fhir/laboratory/StructureDefinition/Observation-resultslab-eu-lab"
          ]
        },
        "performer": [
          {
            "display": "The Central European Lab"
          }
        ],
        "category": [
          {
            "coding": [
              {
                "system": "http://terminology.hl7.org/CodeSystem/observation-category",
                "code": "laboratory"
              }
            ]
          }
        ],
        "code": {
          "coding": [
            {
              "code": "6298-4",
              "system": "http://loinc.org",
              "display": "Potassium [Moles/volume] in Blood"
            }
          ],
          "text": "Potassium [Moles/volume] in Blood"
        },
        "valueQuantity": {
          "system": "http://unitsofmeasure.org",
          "value": 4.3,
          "unit": "mmol/L",
          "code": "mmol/L"
        },
        "referenceRange": [
          {
            "low": {
              "value": 3.5,
              "code": "mmol/L",
              "system": "http://unitsofmeasure.org"
            }
          },
          {
            "high": {
              "value": 5.1,
              "code": "mmol/L",
              "system": "http://unitsofmeasure.org"
            }
          }
        ],
        "text": {
          "status": "generated",
          "div": "<div xmlns=\"http://www.w3.org/1999/xhtml\"><table class=\"hl7__eu__lab__report\"><tr><th>Test</th><th>02-Sep-2017</th><th>Reference&#xA0;Range</th><th>Unit</th></tr><tr><td>Potassium [Moles/volume] in Blood</td><td>4.3</td><td>3.5 - 5.1</td><td></td><td>mmol/L</td></tr></table></div>"
        },
        "status": "final",
        "subject": {
          "reference": "urn:uuid:af5953e7-083a-47cd-b14a-512778acd3ac",
          "display": "Leonhard Köhler"
        },
        "effectiveDateTime": "2017-09-02T02:48:23Z",
        "specimen": {
          "reference": "urn:uuid:a6fedfd8-5c96-4610-9bb4-f26097aacc1b"
        }
      }
    },
    {
      "fullUrl": "urn:uuid:bf28525b-56c1-4d19-99ba-1bc18b74afa6",
      "resource": {
        "resourceType": "Observation",
        "id": "bf28525b-56c1-4d19-99ba-1bc18b74afa6",
        "meta": {
          "profile": [
            "http://hl7.eu/fhir/laboratory/StructureDefinition/Observation-resultslab-eu-lab"
          ]
        },
        "performer": [
          {
            "display": "The Central European Lab"
          }
        ],
        "category": [
          {
            "coding": [
              {
                "system": "http://terminology.hl7.org/CodeSystem/observation-category",
                "code": "laboratory"
              }
            ]
          }
        ],
        "code": {
          "coding": [
            {
              "code": "2069-3",
              "system": "http://loinc.org",
              "display": "Chloride [Moles/volume] in Blood"
            }
          ],
          "text": "Chloride [Moles/volume] in Blood"
        },
        "valueQuantity": {
          "system": "http://unitsofmeasure.org",
          "value": 104.3,
          "unit": "mmol/L",
          "code": "mmol/L"
        },
        "referenceRange": [
          {
            "low": {
              "value": 98,
              "code": "mmol/L",
              "system": "http://unitsofmeasure.org"
            }
          },
          {
            "high": {
              "value": 108,
              "code": "mmol/L",
              "system": "http://unitsofmeasure.org"
            }
          }
        ],
        "text": {
          "status": "generated",
          "div": "<div xmlns=\"http://www.w3.org/1999/xhtml\"><table class=\"hl7__eu__lab__report\"><tr><th>Test</th><th>02-Sep-2017</th><th>Reference&#xA0;Range</th><th>Unit</th></tr><tr><td>Chloride [Moles/volume] in Blood</td><td>104.3</td><td>98 - 108</td><td></td><td>mmol/L</td></tr></table></div>"
        },
        "status": "final",
        "subject": {
          "reference": "urn:uuid:af5953e7-083a-47cd-b14a-512778acd3ac",
          "display": "Leonhard Köhler"
        },
        "effectiveDateTime": "2017-09-02T02:48:23Z",
        "specimen": {
          "reference": "urn:uuid:a6fedfd8-5c96-4610-9bb4-f26097aacc1b"
        }
      }
    },
    {
      "fullUrl": "urn:uuid:57a0e439-af2e-4298-b576-55e4d26c4bf8",
      "resource": {
        "resourceType": "Observation",
        "id": "57a0e439-af2e-4298-b576-55e4d26c4bf8",
        "meta": {
          "profile": [
            "http://hl7.eu/fhir/laboratory/StructureDefinition/Observation-resultslab-eu-lab"
          ]
        },
        "performer": [
          {
            "display": "The Central European Lab"
          }
        ],
        "category": [
          {
            "coding": [
              {
                "system": "http://terminology.hl7.org/CodeSystem/observation-category",
                "code": "laboratory"
              }
            ]
          }
        ],
        "code": {
          "coding": [
            {
              "code": "20565-8",
              "system": "http://loinc.org",
              "display": "Carbon dioxide, total [Moles/volume] in Blood"
            }
          ],
          "text": "Carbon dioxide, total [Moles/volume] in Blood"
        },
        "valueQuantity": {
          "system": "http://unitsofmeasure.org",
          "value": 28.6,
          "unit": "mmol/L",
          "code": "mmol/L"
        },
        "referenceRange": [
          {
            "low": {
              "value": 22,
              "code": "mmol/L",
              "system": "http://unitsofmeasure.org"
            }
          },
          {
            "high": {
              "value": 32,
              "code": "mmol/L",
              "system": "http://unitsofmeasure.org"
            }
          }
        ],
        "text": {
          "status": "generated",
          "div": "<div xmlns=\"http://www.w3.org/1999/xhtml\"><table class=\"hl7__eu__lab__report\"><tr><th>Test</th><th>02-Sep-2017</th><th>Reference&#xA0;Range</th><th>Unit</th></tr><tr><td>Carbon dioxide, total [Moles/volume] in Blood</td><td>28.6</td><td>22 - 32</td><td></td><td>mmol/L</td></tr></table></div>"
        },
        "status": "final",
        "subject": {
          "reference": "urn:uuid:af5953e7-083a-47cd-b14a-512778acd3ac",
          "display": "Leonhard Köhler"
        },
        "effectiveDateTime": "2017-09-02T02:48:23Z",
        "specimen": {
          "reference": "urn:uuid:a6fedfd8-5c96-4610-9bb4-f26097aacc1b"
        }
      }
    },
    {
      "fullUrl": "urn:uuid:cff17033-da0f-43f1-abe7-066f31fa9d4b",
      "resource": {
        "resourceType": "Observation",
        "id": "cff17033-da0f-43f1-abe7-066f31fa9d4b",
        "meta": {
          "profile": [
            "http://hl7.eu/fhir/laboratory/StructureDefinition/Observation-resultslab-eu-lab"
          ]
        },
        "performer": [
          {
            "display": "The Central European Lab"
          }
        ],
        "category": [
          {
            "coding": [
              {
                "system": "http://terminology.hl7.org/CodeSystem/observation-category",
                "code": "laboratory"
              }
            ]
          }
        ],
        "code": {
          "coding": [
            {
              "code": "2885-2",
              "system": "http://loinc.org",
              "display": "Protein [Mass/volume] in Serum or Plasma"
            }
          ],
          "text": "Protein [Mass/volume] in Serum or Plasma"
        },
        "valueQuantity": {
          "system": "http://unitsofmeasure.org",
          "value": 7.3,
          "unit": "g/dL",
          "code": "g/dL"
        },
        "referenceRange": [
          {
            "low": {
              "value": 6.6,
              "code": "g/dL",
              "system": "http://unitsofmeasure.org"
            }
          },
          {
            "high": {
              "value": 8.3,
              "code": "g/dL",
              "system": "http://unitsofmeasure.org"
            }
          }
        ],
        "text": {
          "status": "generated",
          "div": "<div xmlns=\"http://www.w3.org/1999/xhtml\"><table class=\"hl7__eu__lab__report\"><tr><th>Test</th><th>02-Sep-2017</th><th>Reference&#xA0;Range</th><th>Unit</th></tr><tr><td>Protein [Mass/volume] in Serum or Plasma</td><td>7.3</td><td>6.6 - 8.3</td><td></td><td>g/dL</td></tr></table></div>"
        },
        "status": "final",
        "subject": {
          "reference": "urn:uuid:af5953e7-083a-47cd-b14a-512778acd3ac",
          "display": "Leonhard Köhler"
        },
        "effectiveDateTime": "2017-09-02T02:48:23Z",
        "specimen": {
          "reference": "urn:uuid:bc59753f-cee8-47e5-8b29-1c62526f93d7"
        }
      }
    },
    {
      "fullUrl": "urn:uuid:6286f964-5574-4c81-a267-2c22a5fad676",
      "resource": {
        "resourceType": "Observation",
        "id": "6286f964-5574-4c81-a267-2c22a5fad676",
        "meta": {
          "profile": [
            "http://hl7.eu/fhir/laboratory/StructureDefinition/Observation-resultslab-eu-lab"
          ]
        },
        "performer": [
          {
            "display": "The Central European Lab"
          }
        ],
        "category": [
          {
            "coding": [
              {
                "system": "http://terminology.hl7.org/CodeSystem/observation-category",
                "code": "laboratory"
              }
            ]
          }
        ],
        "code": {
          "coding": [
            {
              "code": "1751-7",
              "system": "http://loinc.org",
              "display": "Albumin [Mass/volume] in Serum or Plasma"
            }
          ],
          "text": "Albumin [Mass/volume] in Serum or Plasma"
        },
        "valueQuantity": {
          "system": "http://unitsofmeasure.org",
          "value": 5.1,
          "unit": "g/dL",
          "code": "g/dL"
        },
        "referenceRange": [
          {
            "low": {
              "value": 3.5,
              "code": "g/dL",
              "system": "http://unitsofmeasure.org"
            }
          },
          {
            "high": {
              "value": 5.5,
              "code": "g/dL",
              "system": "http://unitsofmeasure.org"
            }
          }
        ],
        "text": {
          "status": "generated",
          "div": "<div xmlns=\"http://www.w3.org/1999/xhtml\"><table class=\"hl7__eu__lab__report\"><tr><th>Test</th><th>02-Sep-2017</th><th>Reference&#xA0;Range</th><th>Unit</th></tr><tr><td>Albumin [Mass/volume] in Serum or Plasma</td><td>5.1</td><td>3.5 - 5.5</td><td></td><td>g/dL</td></tr></table></div>"
        },
        "status": "final",
        "subject": {
          "reference": "urn:uuid:af5953e7-083a-47cd-b14a-512778acd3ac",
          "display": "Leonhard Köhler"
        },
        "effectiveDateTime": "2017-09-02T02:48:23Z",
        "specimen": {
          "reference": "urn:uuid:bc59753f-cee8-47e5-8b29-1c62526f93d7"
        }
      }
    },
    {
      "fullUrl": "urn:uuid:e99e5b42-b9d6-4c54-b034-48fc10729abc",
      "resource": {
        "resourceType": "Observation",
        "id": "e99e5b42-b9d6-4c54-b034-48fc10729abc",
        "meta": {
          "profile": [
            "http://hl7.eu/fhir/laboratory/StructureDefinition/Observation-resultslab-eu-lab"
          ]
        },
        "performer": [
          {
            "display": "The Central European Lab"
          }
        ],
        "category": [
          {
            "coding": [
              {
                "system": "http://terminology.hl7.org/CodeSystem/observation-category",
                "code": "laboratory"
              }
            ]
          }
        ],
        "code": {
          "coding": [
            {
              "code": "10834-0",
              "system": "http://loinc.org",
              "display": "Globulin [Mass/volume] in Serum by calculation"
            }
          ],
          "text": "Globulin [Mass/volume] in Serum by calculation"
        },
        "valueQuantity": {
          "system": "http://unitsofmeasure.org",
          "value": 2.5,
          "unit": "g/L",
          "code": "g/L"
        },
        "referenceRange": [
          {
            "low": {
              "value": 2,
              "code": "g/L",
              "system": "http://unitsofmeasure.org"
            }
          },
          {
            "high": {
              "value": 3.5,
              "code": "g/L",
              "system": "http://unitsofmeasure.org"
            }
          }
        ],
        "text": {
          "status": "generated",
          "div": "<div xmlns=\"http://www.w3.org/1999/xhtml\"><table class=\"hl7__eu__lab__report\"><tr><th>Test</th><th>02-Sep-2017</th><th>Reference&#xA0;Range</th><th>Unit</th></tr><tr><td>Globulin [Mass/volume] in Serum by calculation</td><td>2.5</td><td>2 - 3.5</td><td></td><td>g/L</td></tr></table></div>"
        },
        "status": "final",
        "subject": {
          "reference": "urn:uuid:af5953e7-083a-47cd-b14a-512778acd3ac",
          "display": "Leonhard Köhler"
        },
        "effectiveDateTime": "2017-09-02T02:48:23Z",
        "specimen": {
          "reference": "urn:uuid:4c395af5-20fb-435d-838e-e50c56c81526"
        }
      }
    },
    {
      "fullUrl": "urn:uuid:81d15156-ebbc-4ef3-ba4b-76aa790d0bac",
      "resource": {
        "resourceType": "Observation",
        "id": "81d15156-ebbc-4ef3-ba4b-76aa790d0bac",
        "meta": {
          "profile": [
            "http://hl7.eu/fhir/laboratory/StructureDefinition/Observation-resultslab-eu-lab"
          ]
        },
        "performer": [
          {
            "display": "The Central European Lab"
          }
        ],
        "category": [
          {
            "coding": [
              {
                "system": "http://terminology.hl7.org/CodeSystem/observation-category",
                "code": "laboratory"
              }
            ]
          }
        ],
        "code": {
          "coding": [
            {
              "code": "1975-2",
              "system": "http://loinc.org",
              "display": "Bilirubin.total [Mass/volume] in Serum or Plasma"
            }
          ],
          "text": "Bilirubin.total [Mass/volume] in Serum or Plasma"
        },
        "valueQuantity": {
          "system": "http://unitsofmeasure.org",
          "value": 1,
          "unit": "mg/dL",
          "code": "mg/dL"
        },
        "referenceRange": [
          {
            "low": {
              "value": 0.3,
              "code": "mg/dL",
              "system": "http://unitsofmeasure.org"
            }
          },
          {
            "high": {
              "value": 1.2,
              "code": "mg/dL",
              "system": "http://unitsofmeasure.org"
            }
          }
        ],
        "text": {
          "status": "generated",
          "div": "<div xmlns=\"http://www.w3.org/1999/xhtml\"><table class=\"hl7__eu__lab__report\"><tr><th>Test</th><th>02-Sep-2017</th><th>Reference&#xA0;Range</th><th>Unit</th></tr><tr><td>Bilirubin.total [Mass/volume] in Serum or Plasma</td><td>1.0</td><td>0.3 - 1.2</td><td></td><td>mg/dL</td></tr></table></div>"
        },
        "status": "final",
        "subject": {
          "reference": "urn:uuid:af5953e7-083a-47cd-b14a-512778acd3ac",
          "display": "Leonhard Köhler"
        },
        "effectiveDateTime": "2017-09-02T02:48:23Z",
        "specimen": {
          "reference": "urn:uuid:bc59753f-cee8-47e5-8b29-1c62526f93d7"
        }
      }
    },
    {
      "fullUrl": "urn:uuid:f1e460a8-26d9-430b-81fc-c8f9f8cf5b0d",
      "resource": {
        "resourceType": "Observation",
        "id": "f1e460a8-26d9-430b-81fc-c8f9f8cf5b0d",
        "meta": {
          "profile": [
            "http://hl7.eu/fhir/laboratory/StructureDefinition/Observation-resultslab-eu-lab"
          ]
        },
        "performer": [
          {
            "display": "The Central European Lab"
          }
        ],
        "category": [
          {
            "coding": [
              {
                "system": "http://terminology.hl7.org/CodeSystem/observation-category",
                "code": "laboratory"
              }
            ]
          }
        ],
        "code": {
          "coding": [
            {
              "code": "6768-6",
              "system": "http://loinc.org",
              "display": "Alkaline phosphatase [Enzymatic activity/volume] in Serum or Plasma"
            }
          ],
          "text": "Alkaline phosphatase [Enzymatic activity/volume] in Serum or Plasma"
        },
        "valueQuantity": {
          "system": "http://unitsofmeasure.org",
          "value": 115.6,
          "unit": "U/L",
          "code": "U/L"
        },
        "referenceRange": [
          {
            "low": {
              "value": 53,
              "code": "U/L",
              "system": "http://unitsofmeasure.org"
            }
          },
          {
            "high": {
              "value": 130,
              "code": "U/L",
              "system": "http://unitsofmeasure.org"
            }
          }
        ],
        "text": {
          "status": "generated",
          "div": "<div xmlns=\"http://www.w3.org/1999/xhtml\"><table class=\"hl7__eu__lab__report\"><tr><th>Test</th><th>02-Sep-2017</th><th>Reference&#xA0;Range</th><th>Unit</th></tr><tr><td>Alkaline phosphatase [Enzymatic activity/volume] in Serum or Plasma</td><td>115.6</td><td>53 - 130</td><td></td><td>U/L</td></tr></table></div>"
        },
        "status": "final",
        "subject": {
          "reference": "urn:uuid:af5953e7-083a-47cd-b14a-512778acd3ac",
          "display": "Leonhard Köhler"
        },
        "effectiveDateTime": "2017-09-02T02:48:23Z",
        "specimen": {
          "reference": "urn:uuid:bc59753f-cee8-47e5-8b29-1c62526f93d7"
        }
      }
    },
    {
      "fullUrl": "urn:uuid:ae38f177-7444-44cc-9cb9-83988d1707ad",
      "resource": {
        "resourceType": "Observation",
        "id": "ae38f177-7444-44cc-9cb9-83988d1707ad",
        "meta": {
          "profile": [
            "http://hl7.eu/fhir/laboratory/StructureDefinition/Observation-resultslab-eu-lab"
          ]
        },
        "performer": [
          {
            "display": "The Central European Lab"
          }
        ],
        "category": [
          {
            "coding": [
              {
                "system": "http://terminology.hl7.org/CodeSystem/observation-category",
                "code": "laboratory"
              }
            ]
          }
        ],
        "code": {
          "coding": [
            {
              "code": "1742-6",
              "system": "http://loinc.org",
              "display": "Alanine aminotransferase [Enzymatic activity/volume] in Serum or Plasma"
            }
          ],
          "text": "Alanine aminotransferase [Enzymatic activity/volume] in Serum or Plasma"
        },
        "valueQuantity": {
          "system": "http://unitsofmeasure.org",
          "value": 57.1,
          "unit": "U/L",
          "code": "U/L"
        },
        "referenceRange": [
          {
            "low": {
              "value": 7,
              "code": "U/L",
              "system": "http://unitsofmeasure.org"
            }
          },
          {
            "high": {
              "value": 60,
              "code": "U/L",
              "system": "http://unitsofmeasure.org"
            }
          }
        ],
        "text": {
          "status": "generated",
          "div": "<div xmlns=\"http://www.w3.org/1999/xhtml\"><table class=\"hl7__eu__lab__report\"><tr><th>Test</th><th>02-Sep-2017</th><th>Reference&#xA0;Range</th><th>Unit</th></tr><tr><td>Alanine aminotransferase [Enzymatic activity/volume] in Serum or Plasma</td><td>57.1</td><td>7 - 60</td><td></td><td>U/L</td></tr></table></div>"
        },
        "status": "final",
        "subject": {
          "reference": "urn:uuid:af5953e7-083a-47cd-b14a-512778acd3ac",
          "display": "Leonhard Köhler"
        },
        "effectiveDateTime": "2017-09-02T02:48:23Z",
        "specimen": {
          "reference": "urn:uuid:bc59753f-cee8-47e5-8b29-1c62526f93d7"
        }
      }
    },
    {
      "fullUrl": "urn:uuid:def5a03a-c01c-42e6-bc1f-bee860c084d4",
      "resource": {
        "resourceType": "Observation",
        "id": "def5a03a-c01c-42e6-bc1f-bee860c084d4",
        "meta": {
          "profile": [
            "http://hl7.eu/fhir/laboratory/StructureDefinition/Observation-resultslab-eu-lab"
          ]
        },
        "performer": [
          {
            "display": "The Central European Lab"
          }
        ],
        "category": [
          {
            "coding": [
              {
                "system": "http://terminology.hl7.org/CodeSystem/observation-category",
                "code": "laboratory"
              }
            ]
          }
        ],
        "code": {
          "coding": [
            {
              "code": "1920-8",
              "system": "http://loinc.org",
              "display": "Aspartate aminotransferase [Enzymatic activity/volume] in Serum or Plasma"
            }
          ],
          "text": "Aspartate aminotransferase [Enzymatic activity/volume] in Serum or Plasma"
        },
        "valueQuantity": {
          "system": "http://unitsofmeasure.org",
          "value": 6.5,
          "unit": "U/L",
          "code": "U/L"
        },
        "referenceRange": [
          {
            "low": {
              "value": 10,
              "code": "U/L",
              "system": "http://unitsofmeasure.org"
            }
          },
          {
            "high": {
              "value": 49,
              "code": "U/L",
              "system": "http://unitsofmeasure.org"
            }
          }
        ],
        "interpretation": [
          {
            "coding": [
              {
                "code": "L",
                "system": "http://terminology.hl7.org/CodeSystem/v3-ObservationInterpretation",
                "display": "Low"
              }
            ]
          }
        ],
        "text": {
          "status": "generated",
          "div": "<div xmlns=\"http://www.w3.org/1999/xhtml\"><table class=\"hl7__eu__lab__report\"><tr><th>Test</th><th>02-Sep-2017</th><th>Reference&#xA0;Range</th><th>Unit</th></tr><tr><td>Aspartate aminotransferase [Enzymatic activity/volume] in Serum or Plasma</td><td>6.5</td><td>10 - 49</td><td>L</td><td>U/L</td></tr></table></div>"
        },
        "status": "final",
        "subject": {
          "reference": "urn:uuid:af5953e7-083a-47cd-b14a-512778acd3ac",
          "display": "Leonhard Köhler"
        },
        "effectiveDateTime": "2017-09-02T02:48:23Z",
        "specimen": {
          "reference": "urn:uuid:bc59753f-cee8-47e5-8b29-1c62526f93d7"
        }
      }
    },
    {
      "fullUrl": "urn:uuid:379a38cb-c5e9-4b5c-a9b8-cf565a897726",
      "resource": {
        "resourceType": "Observation",
        "id": "379a38cb-c5e9-4b5c-a9b8-cf565a897726",
        "meta": {
          "profile": [
            "http://hl7.eu/fhir/laboratory/StructureDefinition/Observation-resultslab-eu-lab"
          ]
        },
        "performer": [
          {
            "display": "The Central European Lab"
          }
        ],
        "category": [
          {
            "coding": [
              {
                "system": "http://terminology.hl7.org/CodeSystem/observation-category",
                "code": "laboratory"
              }
            ]
          }
        ],
        "code": {
          "coding": [
            {
              "code": "2093-3",
              "system": "http://loinc.org",
              "display": "Cholesterol [Mass/volume] in Serum or Plasma"
            }
          ],
          "text": "Cholesterol [Mass/volume] in Serum or Plasma"
        },
        "valueQuantity": {
          "system": "http://unitsofmeasure.org",
          "value": 163.1,
          "unit": "mg/dL",
          "code": "mg/dL"
        },
        "referenceRange": [
          {
            "low": {
              "value": 125,
              "code": "mg/dL",
              "system": "http://unitsofmeasure.org"
            }
          },
          {
            "high": {
              "value": 200,
              "code": "mg/dL",
              "system": "http://unitsofmeasure.org"
            }
          }
        ],
        "text": {
          "status": "generated",
          "div": "<div xmlns=\"http://www.w3.org/1999/xhtml\"><table class=\"hl7__eu__lab__report\"><tr><th>Test</th><th>02-Sep-2017</th><th>Reference&#xA0;Range</th><th>Unit</th></tr><tr><td>Cholesterol [Mass/volume] in Serum or Plasma</td><td>163.1</td><td>125 - 200</td><td></td><td>mg/dL</td></tr></table></div>"
        },
        "status": "final",
        "subject": {
          "reference": "urn:uuid:af5953e7-083a-47cd-b14a-512778acd3ac",
          "display": "Leonhard Köhler"
        },
        "effectiveDateTime": "2017-09-02T02:48:23Z",
        "specimen": {
          "reference": "urn:uuid:bc59753f-cee8-47e5-8b29-1c62526f93d7"
        }
      }
    },
    {
      "fullUrl": "urn:uuid:d7645f2e-05cd-4fc3-80d3-1e94cf017a21",
      "resource": {
        "resourceType": "Observation",
        "id": "d7645f2e-05cd-4fc3-80d3-1e94cf017a21",
        "meta": {
          "profile": [
            "http://hl7.eu/fhir/laboratory/StructureDefinition/Observation-resultslab-eu-lab"
          ]
        },
        "performer": [
          {
            "display": "The Central European Lab"
          }
        ],
        "category": [
          {
            "coding": [
              {
                "system": "http://terminology.hl7.org/CodeSystem/observation-category",
                "code": "laboratory"
              }
            ]
          }
        ],
        "code": {
          "coding": [
            {
              "code": "2571-8",
              "system": "http://loinc.org",
              "display": "Triglyceride [Mass/volume] in Serum or Plasma"
            }
          ],
          "text": "Triglyceride [Mass/volume] in Serum or Plasma"
        },
        "valueQuantity": {
          "system": "http://unitsofmeasure.org",
          "value": 140.8,
          "unit": "mg/dL",
          "code": "mg/dL"
        },
        "referenceRange": [
          {
            "low": {
              "value": 40,
              "code": "mg/dL",
              "system": "http://unitsofmeasure.org"
            }
          },
          {
            "high": {
              "value": 150,
              "code": "mg/dL",
              "system": "http://unitsofmeasure.org"
            }
          }
        ],
        "text": {
          "status": "generated",
          "div": "<div xmlns=\"http://www.w3.org/1999/xhtml\"><table class=\"hl7__eu__lab__report\"><tr><th>Test</th><th>02-Sep-2017</th><th>Reference&#xA0;Range</th><th>Unit</th></tr><tr><td>Triglyceride [Mass/volume] in Serum or Plasma</td><td>140.8</td><td>40 - 150</td><td></td><td>mg/dL</td></tr></table></div>"
        },
        "status": "final",
        "subject": {
          "reference": "urn:uuid:af5953e7-083a-47cd-b14a-512778acd3ac",
          "display": "Leonhard Köhler"
        },
        "effectiveDateTime": "2017-09-02T02:48:23Z",
        "specimen": {
          "reference": "urn:uuid:bc59753f-cee8-47e5-8b29-1c62526f93d7"
        }
      }
    },
    {
      "fullUrl": "urn:uuid:e11654a4-de7c-4c84-a6f7-bc62393a7136",
      "resource": {
        "resourceType": "Observation",
        "id": "e11654a4-de7c-4c84-a6f7-bc62393a7136",
        "meta": {
          "profile": [
            "http://hl7.eu/fhir/laboratory/StructureDefinition/Observation-resultslab-eu-lab"
          ]
        },
        "performer": [
          {
            "display": "The Central European Lab"
          }
        ],
        "category": [
          {
            "coding": [
              {
                "system": "http://terminology.hl7.org/CodeSystem/observation-category",
                "code": "laboratory"
              }
            ]
          }
        ],
        "code": {
          "coding": [
            {
              "code": "18262-6",
              "system": "http://loinc.org",
              "display": "Cholesterol in LDL [Mass/volume] in Serum or Plasma by Direct assay"
            }
          ],
          "text": "Cholesterol in LDL [Mass/volume] in Serum or Plasma by Direct assay"
        },
        "valueQuantity": {
          "system": "http://unitsofmeasure.org",
          "value": 96.8,
          "unit": "mg/dL",
          "code": "mg/dL"
        },
        "referenceRange": [
          {
            "low": {
              "value": 0,
              "code": "mg/dL",
              "system": "http://unitsofmeasure.org"
            }
          },
          {
            "high": {
              "value": 190,
              "code": "mg/dL",
              "system": "http://unitsofmeasure.org"
            }
          }
        ],
        "text": {
          "status": "generated",
          "div": "<div xmlns=\"http://www.w3.org/1999/xhtml\"><table class=\"hl7__eu__lab__report\"><tr><th>Test</th><th>02-Sep-2017</th><th>Reference&#xA0;Range</th><th>Unit</th></tr><tr><td>Cholesterol in LDL [Mass/volume] in Serum or Plasma by Direct assay</td><td>96.8</td><td>0 - 190</td><td></td><td>mg/dL</td></tr></table></div>"
        },
        "status": "final",
        "subject": {
          "reference": "urn:uuid:af5953e7-083a-47cd-b14a-512778acd3ac",
          "display": "Leonhard Köhler"
        },
        "effectiveDateTime": "2017-09-02T02:48:23Z",
        "specimen": {
          "reference": "urn:uuid:bc59753f-cee8-47e5-8b29-1c62526f93d7"
        }
      }
    },
    {
      "fullUrl": "urn:uuid:64f20d2a-f2a0-471e-9e57-cd5170d5521d",
      "resource": {
        "resourceType": "Observation",
        "id": "64f20d2a-f2a0-471e-9e57-cd5170d5521d",
        "meta": {
          "profile": [
            "http://hl7.eu/fhir/laboratory/StructureDefinition/Observation-resultslab-eu-lab"
          ]
        },
        "performer": [
          {
            "display": "The Central European Lab"
          }
        ],
        "category": [
          {
            "coding": [
              {
                "system": "http://terminology.hl7.org/CodeSystem/observation-category",
                "code": "laboratory"
              }
            ]
          }
        ],
        "code": {
          "coding": [
            {
              "code": "2085-9",
              "system": "http://loinc.org",
              "display": "Cholesterol in HDL [Mass/volume] in Serum or Plasma"
            }
          ],
          "text": "Cholesterol in HDL [Mass/volume] in Serum or Plasma"
        },
        "valueQuantity": {
          "system": "http://unitsofmeasure.org",
          "value": 31.4,
          "unit": "mg/dL",
          "code": "mg/dL"
        },
        "referenceRange": [
          {
            "low": {
              "value": 40,
              "code": "mg/dL",
              "system": "http://unitsofmeasure.org"
            }
          },
          {
            "high": {
              "value": 60,
              "code": "mg/dL",
              "system": "http://unitsofmeasure.org"
            }
          }
        ],
        "interpretation": [
          {
            "coding": [
              {
                "code": "L",
                "system": "http://terminology.hl7.org/CodeSystem/v3-ObservationInterpretation",
                "display": "Low"
              }
            ]
          }
        ],
        "text": {
          "status": "generated",
          "div": "<div xmlns=\"http://www.w3.org/1999/xhtml\"><table class=\"hl7__eu__lab__report\"><tr><th>Test</th><th>02-Sep-2017</th><th>Reference&#xA0;Range</th><th>Unit</th></tr><tr><td>Cholesterol in HDL [Mass/volume] in Serum or Plasma</td><td>31.4</td><td>40 - 60</td><td>L</td><td>mg/dL</td></tr></table></div>"
        },
        "status": "final",
        "subject": {
          "reference": "urn:uuid:af5953e7-083a-47cd-b14a-512778acd3ac",
          "display": "Leonhard Köhler"
        },
        "effectiveDateTime": "2017-09-02T02:48:23Z",
        "specimen": {
          "reference": "urn:uuid:bc59753f-cee8-47e5-8b29-1c62526f93d7"
        }
      }
    },
    {
      "fullUrl": "urn:uuid:f14808d3-5f59-4d33-9805-d60e24f17cbb",
      "resource": {
        "resourceType": "Device",
        "id": "f14808d3-5f59-4d33-9805-d60e24f17cbb",
        "deviceName": [
          {
            "name": "SYNDERAI Synthetic Generator",
            "type": "manufacturer-name"
          }
        ],
        "version": [
          {
            "value": "5.0"
          }
        ],
        "text": {
          "status": "generated",
          "div": "<div xmlns=\"http://www.w3.org/1999/xhtml\">SYNDERAI Synthetic Generator v5.0</div>"
        },
        "status": "active\"",
        "distinctIdentifier": "synderai-generator-50",
        "manufacturer": "SYNDERAI Project"
      }
    },
    {
      "fullUrl": "urn:uuid:5b300d05-2ac6-464a-87cc-9df19ba0095f",
      "resource": {
        "resourceType": "Provenance",
        "id": "5b300d05-2ac6-464a-87cc-9df19ba0095f",
        "target": [
          {
            "reference": "Patient/af5953e7-083a-47cd-b14a-512778acd3ac"
          },
          {
            "reference": "Bundle/5c5e3ee2-4284-4a45-a265-df5b78de3874"
          },
          {
            "reference": "Composition/bd3efb09-3aef-4020-b675-25623c260d81"
          },
          {
            "reference": "PractitionerRole/e3595391-bce8-4b86-9b29-6f25be1065fe"
          },
          {
            "reference": "Practitioner/08df1dee-2ca3-4e5f-ac1d-0715c2d1b63a"
          },
          {
            "reference": "PractitionerRole/215b70aa-0d52-4b74-a833-d060dd56365b"
          },
          {
            "reference": "Organization/9376466a-f8f1-469b-8156-4986a9c90ea4"
          }
        ],
        "activity": {
          "text": "Synthetic Example Data Generation"
        },
        "policy": [
          "https://synderai.net/synderai-synthetic-data-policy"
        ],
        "agent": [
          {
            "type": {
              "text": "author"
            },
            "who": {
              "reference": "Device/f14808d3-5f59-4d33-9805-d60e24f17cbb"
            }
          }
        ],
        "reason": [
          {
            "text": "Interoperability Testing and Training (non-clinical use)"
          }
        ],
        "text": {
          "status": "generated",
          "div": "<div xmlns=\"http://www.w3.org/1999/xhtml\">Provenance for SYNDERAI Synthetic Example Data Resource</div>"
        },
        "recorded": "2017-09-02T04:48:23Z"
      }
    },
    {
      "fullUrl": "urn:uuid:e3595391-bce8-4b86-9b29-6f25be1065fe",
      "resource": {
        "resourceType": "PractitionerRole",
        "id": "e3595391-bce8-4b86-9b29-6f25be1065fe",
        "meta": {
          "profile": [
            "http://hl7.eu/fhir/base/StructureDefinition/practitionerRole-eu"
          ]
        },
        "text": {
          "status": "generated",
          "div": "<div xmlns=\"http://www.w3.org/1999/xhtml\">Laboratory Role Id: e3595391-bce8-4b86-9b29-6f25be1065fe</div>"
        },
        "practitioner": {
          "reference": "urn:uuid:08df1dee-2ca3-4e5f-ac1d-0715c2d1b63a"
        }
      }
    },
    {
      "fullUrl": "urn:uuid:08df1dee-2ca3-4e5f-ac1d-0715c2d1b63a",
      "resource": {
        "resourceType": "Practitioner",
        "id": "08df1dee-2ca3-4e5f-ac1d-0715c2d1b63a",
        "meta": {
          "profile": [
            "http://hl7.eu/fhir/base/StructureDefinition/practitioner-eu"
          ]
        },
        "identifier": [
          {
            "assigner": {
              "display": "HL7 Europe"
            },
            "system": "urn:oid:2.16.840.1.113883.2.51.999",
            "value": "789844b3-a100-4e9a-bb64-5251a7089c7b"
          }
        ],
        "name": [
          {
            "prefix": [
              "dr"
            ],
            "given": [
              "Ex"
            ],
            "family": "Ample"
          }
        ],
        "address": [
          {
            "line": [
              "Laboratoire Central Européenne",
              "Boulevard du Jardin Botanique 32"
            ],
            "postalCode": "1000",
            "city": "Brussels",
            "country": "Belgium"
          }
        ],
        "text": {
          "status": "generated",
          "div": "<div xmlns=\"http://www.w3.org/1999/xhtml\">Laboratory: Laboratoire Central Européenne, 1000 Brussels, Belgium</div>"
        }
      }
    }
  ],
  "type": "document",
  "timestamp": "2017-09-02T04:48:23Z"
}
