{
  "resourceType": "Bundle",
  "id": "23f69703-4903-4018-addf-9f791ac5d361",
  "meta": {
    "profile": [
      "http://hl7.eu/fhir/laboratory/StructureDefinition/Bundle-eu-lab"
    ]
  },
  "identifier": {
    "assigner": {
      "display": "HL7 Europe"
    },
    "system": "urn:oid:2.16.840.1.113883.2.51.999",
    "value": "3eea677e-d1a9-4788-8900-ad73a767aa6e"
  },
  "entry": [
    {
      "fullUrl": "urn:uuid:709040df-36d5-42a3-a070-f893d567e205",
      "resource": {
        "resourceType": "Composition",
        "id": "709040df-36d5-42a3-a070-f893d567e205",
        "meta": {
          "profile": [
            "http://hl7.eu/fhir/laboratory/StructureDefinition/Composition-eu-lab"
          ]
        },
        "identifier": {
          "assigner": {
            "display": "HL7 Europe"
          },
          "system": "urn:oid:2.16.840.1.113883.2.51.999",
          "value": "7f09d2e7-b8ca-486f-b347-2c1f56002861"
        },
        "author": [
          {
            "reference": "urn:uuid:7ef78704-2524-451a-8eaa-ba9f7ebd58c8"
          }
        ],
        "category": [
          {
            "coding": [
              {
                "code": "26436-6",
                "system": "http://loinc.org",
                "display": "Laboratory studies (set)"
              }
            ]
          }
        ],
        "type": {
          "coding": [
            {
              "code": "11502-2",
              "system": "http://loinc.org",
              "display": "Laboratory report"
            }
          ],
          "text": "Laboratory Report"
        },
        "section": [
          {
            "code": {
              "coding": [
                {
                  "code": "26436-6",
                  "system": "http://loinc.org",
                  "display": "Laboratory studies (set)"
                }
              ],
              "text": "Laboratory studies"
            },
            "section": [
              {
                "code": {
                  "coding": [
                    {
                      "code": "$18719-5",
                      "system": "http://loinc.org",
                      "display": "Chemistry studies (set)"
                    }
                  ],
                  "text": "Chemistry"
                },
                "entry": [
                  {
                    "reference": "urn:uuid:eade6d33-11cd-4c38-a9a9-0ed7bb0de880"
                  }
                ],
                "text": {
                  "status": "generated",
                  "div": "<div xmlns=\"http://www.w3.org/1999/xhtml\"><h3>Chemistry</h3><table class=\"hl7__eu__lab__report\"><thead><tr><th>Test</th><th>01-MAR-2021</th><th>Reference&#xA0;Range</th><th>Unit</th></tr></thead><tbody><tr><td>Hemoglobin A1c/Hemoglobin.total in Blood</td><td><strong>6.3 H</strong></td><td>4.8 - 5.7</td><td>%</td></tr></tbody></table></div>"
                },
                "title": "Chemistry"
              }
            ],
            "title": "Laboratory Report"
          },
          {
            "text": {
              "status": "generated",
              "div": "<div xmlns=\"http://www.w3.org/1999/xhtml\"><h3>Annotation</h3><table class=\"hl7__eu__lab__report\"><tr><th>Conclusion and Recommendations based on this report and previous findings known to us</th></tr><tr><td>The patient&quot;s HbA1c is elevated at 6.3%, indicating impaired glucose regulation consistent with prediabetes or possible diabetes. Further clinical evaluation and management of glycemic control are recommended.</td></tr></table></div>"
            },
            "code": {
              "coding": [
                {
                  "system": "http://loinc.org",
                  "code": "48767-8",
                  "display": "Annotation comment"
                }
              ]
            },
            "title": "Annotation comment"
          }
        ],
        "status": "final",
        "subject": {
          "reference": "urn:uuid:192a5ca6-e090-4943-883d-cee063427419",
          "display": "Pauline Grenier"
        },
        "date": "2021-03-01T12:54:46Z",
        "title": "Laboratory Report",
        "confidentiality": "N"
      }
    },
    {
      "fullUrl": "urn:uuid:51066671-e690-46c4-982b-679f08be586d",
      "resource": {
        "resourceType": "DiagnosticReport",
        "id": "51066671-e690-46c4-982b-679f08be586d",
        "meta": {
          "profile": [
            "http://hl7.eu/fhir/laboratory/StructureDefinition/DiagnosticReport-eu-lab"
          ]
        },
        "identifier": [
          {
            "assigner": {
              "display": "HL7 Europe"
            },
            "system": "urn:oid:2.16.840.1.113883.2.51.999",
            "value": "5f5ac91e-1903-4a2c-885f-024d514b1138"
          }
        ],
        "extension": [
          {
            "url": "http://hl7.org/fhir/5.0/StructureDefinition/extension-DiagnosticReport.composition",
            "valueReference": {
              "reference": "urn:uuid:7f09d2e7-b8ca-486f-b347-2c1f56002861"
            }
          }
        ],
        "category": [
          {
            "coding": [
              {
                "code": "26436-6",
                "system": "http://loinc.org",
                "display": "Laboratory studies (set)"
              }
            ]
          }
        ],
        "specimen": [
          {
            "reference": "urn:uuid:60400464-0710-4fe0-9795-caf5fd9fd466"
          }
        ],
        "result": [
          {
            "reference": "urn:uuid:eade6d33-11cd-4c38-a9a9-0ed7bb0de880"
          }
        ],
        "status": "registered",
        "code": {
          "coding": [
            {
              "code": "11502-2",
              "system": "http://loinc.org",
              "display": "Laboratory report"
            }
          ]
        },
        "subject": {
          "reference": "urn:uuid:192a5ca6-e090-4943-883d-cee063427419",
          "display": "Pauline Grenier"
        }
      }
    },
    {
      "fullUrl": "urn:uuid:192a5ca6-e090-4943-883d-cee063427419",
      "resource": {
        "resourceType": "Patient",
        "id": "192a5ca6-e090-4943-883d-cee063427419",
        "meta": {
          "security": [
            {
              "system": "http://terminology.hl7.org/CodeSystem/v3-ActReason",
              "code": "HTEST"
            },
            {
              "system": "http://terminology.hl7.org/CodeSystem/v3-ActReason",
              "code": "TRAIN"
            }
          ],
          "tag": [
            {
              "system": "https://synderai.net/fhir/CodeSystem/tags",
              "code": "synthetic",
              "display": "SYNDERAI Synthetic data"
            }
          ],
          "profile": [
            "http://hl7.eu/fhir/base/StructureDefinition/patient-eu-core"
          ]
        },
        "identifier": [
          {
            "type": {
              "coding": [
                {
                  "code": "PT",
                  "system": "http://terminology.hl7.org/CodeSystem/v2-0203"
                }
              ]
            },
            "system": "http://ec.europa.eu/identifier/eci",
            "value": "6776-872657-1"
          },
          {
            "type": {
              "coding": [
                {
                  "code": "MR",
                  "system": "http://terminology.hl7.org/CodeSystem/v2-0203"
                }
              ]
            },
            "system": "http://local.setting.eu/identifier",
            "value": "a90ff566-3092-3af0-91f2-c0514ba66d35"
          }
        ],
        "name": [
          {
            "family": "Grenier"
          },
          {
            "given": [
              "Pauline"
            ]
          },
          {
            "text": "Pauline Grenier"
          }
        ],
        "address": [
          {
            "line": [
              "114, avenue Georges"
            ],
            "use": "home",
            "type": "physical",
            "postalCode": "71110",
            "city": "Caron",
            "country": "France"
          }
        ],
        "telecom": [
          {
            "system": "phone",
            "value": "+33 4 26 27 51 56"
          }
        ],
        "extension": [
          {
            "url": "http://hl7.org/fhir/StructureDefinition/patient-nationality",
            "valueCodeableConcept": {
              "coding": [
                {
                  "code": "FR",
                  "system": "http://hl7.org/fhir/ValueSet/country"
                }
              ]
            }
          }
        ],
        "text": {
          "status": "generated",
          "div": "<div xmlns=\"http://www.w3.org/1999/xhtml\"><table class=\"hl7__ips\"><tr><td>Pauline Grenier</td><td>female</td><td>03-May-1971</td></tr></table></div>"
        },
        "gender": "female",
        "birthDate": "1971-05-03"
      }
    },
    {
      "fullUrl": "urn:uuid:0f33f2cf-cdb6-49d2-b9de-be327e8d40ee",
      "resource": {
        "resourceType": "ServiceRequest",
        "id": "0f33f2cf-cdb6-49d2-b9de-be327e8d40ee",
        "meta": {
          "profile": [
            "http://hl7.eu/fhir/laboratory/StructureDefinition/ServiceRequest-eu-lab"
          ]
        },
        "identifier": [
          {
            "system": "http://example.org",
            "value": "50664761-a8af-42d5-a061-56efef005d63"
          }
        ],
        "specimen": [
          {
            "reference": "urn:uuid:60400464-0710-4fe0-9795-caf5fd9fd466"
          }
        ],
        "reasonCode": [
          {
            "coding": [
              {
                "code": "59621000",
                "system": "http://snomed.info/sct",
                "display": "Essential hypertension"
              }
            ]
          },
          {
            "coding": [
              {
                "code": "237602007",
                "system": "http://snomed.info/sct",
                "display": "Metabolic syndrome X"
              }
            ]
          },
          {
            "coding": [
              {
                "code": "15777000",
                "system": "http://snomed.info/sct",
                "display": "Prediabetes"
              }
            ]
          }
        ],
        "status": "active",
        "intent": "order",
        "code": {
          "coding": [
            {
              "code": "108252007",
              "system": "http://snomed.info/sct",
              "display": "Laboratory procedure"
            }
          ]
        },
        "subject": {
          "reference": "urn:uuid:192a5ca6-e090-4943-883d-cee063427419",
          "display": "Pauline Grenier"
        },
        "requester": {
          "reference": "urn:uuid:fef377ff-f71e-4e03-9e14-f95bfd8b28b0"
        }
      }
    },
    {
      "fullUrl": "urn:uuid:fef377ff-f71e-4e03-9e14-f95bfd8b28b0",
      "resource": {
        "resourceType": "PractitionerRole",
        "id": "fef377ff-f71e-4e03-9e14-f95bfd8b28b0",
        "meta": {
          "profile": [
            "http://hl7.eu/fhir/base/StructureDefinition/practitionerRole-eu"
          ]
        },
        "text": {
          "status": "generated",
          "div": "<div xmlns=\"http://www.w3.org/1999/xhtml\">Provider Role Id: fef377ff-f71e-4e03-9e14-f95bfd8b28b0</div>"
        },
        "organization": {
          "reference": "urn:uuid:d5de733c-2f98-43e3-9e3e-8e39ca707c7e"
        }
      }
    },
    {
      "fullUrl": "urn:uuid:d5de733c-2f98-43e3-9e3e-8e39ca707c7e",
      "resource": {
        "resourceType": "Organization",
        "id": "d5de733c-2f98-43e3-9e3e-8e39ca707c7e",
        "meta": {
          "profile": [
            "http://hl7.eu/fhir/base/StructureDefinition/organization-eu"
          ]
        },
        "identifier": [
          {
            "assigner": {
              "display": "HL7 Europe"
            },
            "system": "urn:oid:2.16.840.1.113883.2.51.999",
            "value": "e9d2ff32-a89c-4c05-90f4-2737efca1296"
          }
        ],
        "address": [
          {
            "city": "Le Creusot",
            "postalCode": "71200",
            "country": "France"
          }
        ],
        "text": {
          "status": "generated",
          "div": "<div xmlns=\"http://www.w3.org/1999/xhtml\">Provider Organization: Hôpital du Creusot - Site Foch</div>"
        },
        "name": "Hôpital du Creusot - Site Foch"
      }
    },
    {
      "fullUrl": "urn:uuid:60400464-0710-4fe0-9795-caf5fd9fd466",
      "resource": {
        "resourceType": "Specimen",
        "id": "60400464-0710-4fe0-9795-caf5fd9fd466",
        "meta": {
          "profile": [
            "http://hl7.eu/fhir/laboratory/StructureDefinition/Specimen-eu-lab"
          ]
        },
        "collection": {
          "collectedDateTime": "2021-03-01"
        },
        "text": {
          "status": "generated",
          "div": "<div xmlns=\"http://www.w3.org/1999/xhtml\"><table class=\"hl7__eu__lab__report\"><tr><th>Specimen</th><th>Collection Date</th></tr><tr><td>Whole blood specimen (specimen)</td><td><span class=\"nb\">01-Mar-2021</span></td></tr></table></div>"
        },
        "type": {
          "coding": [
            {
              "code": "258580003",
              "system": "http://snomed.info/sct",
              "display": "Whole blood specimen (specimen)"
            }
          ]
        }
      }
    },
    {
      "fullUrl": "urn:uuid:eade6d33-11cd-4c38-a9a9-0ed7bb0de880",
      "resource": {
        "resourceType": "Observation",
        "id": "eade6d33-11cd-4c38-a9a9-0ed7bb0de880",
        "meta": {
          "profile": [
            "http://hl7.eu/fhir/laboratory/StructureDefinition/Observation-resultslab-eu-lab"
          ]
        },
        "performer": [
          {
            "display": "The Central European Lab"
          }
        ],
        "category": [
          {
            "coding": [
              {
                "system": "http://terminology.hl7.org/CodeSystem/observation-category",
                "code": "laboratory"
              }
            ]
          }
        ],
        "code": {
          "coding": [
            {
              "code": "4548-4",
              "system": "http://loinc.org",
              "display": "Hemoglobin A1c/Hemoglobin.total in Blood"
            }
          ],
          "text": "Hemoglobin A1c/Hemoglobin.total in Blood"
        },
        "valueQuantity": {
          "system": "http://unitsofmeasure.org",
          "value": 6.3,
          "unit": "%",
          "code": "%"
        },
        "referenceRange": [
          {
            "low": {
              "value": 4.8,
              "code": "%",
              "system": "http://unitsofmeasure.org"
            }
          },
          {
            "high": {
              "value": 5.7,
              "code": "%",
              "system": "http://unitsofmeasure.org"
            }
          }
        ],
        "interpretation": [
          {
            "coding": [
              {
                "code": "H",
                "system": "http://terminology.hl7.org/CodeSystem/v3-ObservationInterpretation",
                "display": "High"
              }
            ]
          }
        ],
        "text": {
          "status": "generated",
          "div": "<div xmlns=\"http://www.w3.org/1999/xhtml\"><table class=\"hl7__eu__lab__report\"><tr><th>Test</th><th>01-Mar-2021</th><th>Reference&#xA0;Range</th><th>Unit</th></tr><tr><td>Hemoglobin A1c/Hemoglobin.total in Blood</td><td>6.3</td><td>4.8 - 5.7</td><td>H</td><td>%</td></tr></table></div>"
        },
        "status": "final",
        "subject": {
          "reference": "urn:uuid:192a5ca6-e090-4943-883d-cee063427419",
          "display": "Pauline Grenier"
        },
        "effectiveDateTime": "2021-03-01T11:54:46Z",
        "specimen": {
          "reference": "urn:uuid:60400464-0710-4fe0-9795-caf5fd9fd466"
        }
      }
    },
    {
      "fullUrl": "urn:uuid:9c6ae497-aff6-498f-adfb-bff23943efb2",
      "resource": {
        "resourceType": "Device",
        "id": "9c6ae497-aff6-498f-adfb-bff23943efb2",
        "deviceName": [
          {
            "name": "SYNDERAI Synthetic Generator",
            "type": "manufacturer-name"
          }
        ],
        "version": [
          {
            "value": "5.0"
          }
        ],
        "text": {
          "status": "generated",
          "div": "<div xmlns=\"http://www.w3.org/1999/xhtml\">SYNDERAI Synthetic Generator v5.0</div>"
        },
        "status": "active\"",
        "distinctIdentifier": "synderai-generator-50",
        "manufacturer": "SYNDERAI Project"
      }
    },
    {
      "fullUrl": "urn:uuid:29c2c41a-feab-4008-80be-c537b7d931e9",
      "resource": {
        "resourceType": "Provenance",
        "id": "29c2c41a-feab-4008-80be-c537b7d931e9",
        "target": [
          {
            "reference": "Patient/192a5ca6-e090-4943-883d-cee063427419"
          },
          {
            "reference": "Bundle/23f69703-4903-4018-addf-9f791ac5d361"
          },
          {
            "reference": "Composition/709040df-36d5-42a3-a070-f893d567e205"
          },
          {
            "reference": "PractitionerRole/7ef78704-2524-451a-8eaa-ba9f7ebd58c8"
          },
          {
            "reference": "Practitioner/dd984887-3797-4a21-9931-15ba95f9d165"
          },
          {
            "reference": "PractitionerRole/fef377ff-f71e-4e03-9e14-f95bfd8b28b0"
          },
          {
            "reference": "Organization/d5de733c-2f98-43e3-9e3e-8e39ca707c7e"
          }
        ],
        "activity": {
          "text": "Synthetic Example Data Generation"
        },
        "policy": [
          "https://synderai.net/synderai-synthetic-data-policy"
        ],
        "agent": [
          {
            "type": {
              "text": "author"
            },
            "who": {
              "reference": "Device/9c6ae497-aff6-498f-adfb-bff23943efb2"
            }
          }
        ],
        "reason": [
          {
            "text": "Interoperability Testing and Training (non-clinical use)"
          }
        ],
        "text": {
          "status": "generated",
          "div": "<div xmlns=\"http://www.w3.org/1999/xhtml\">Provenance for SYNDERAI Synthetic Example Data Resource</div>"
        },
        "recorded": "2021-03-01T12:54:46Z"
      }
    },
    {
      "fullUrl": "urn:uuid:7ef78704-2524-451a-8eaa-ba9f7ebd58c8",
      "resource": {
        "resourceType": "PractitionerRole",
        "id": "7ef78704-2524-451a-8eaa-ba9f7ebd58c8",
        "meta": {
          "profile": [
            "http://hl7.eu/fhir/base/StructureDefinition/practitionerRole-eu"
          ]
        },
        "text": {
          "status": "generated",
          "div": "<div xmlns=\"http://www.w3.org/1999/xhtml\">Laboratory Role Id: 7ef78704-2524-451a-8eaa-ba9f7ebd58c8</div>"
        },
        "practitioner": {
          "reference": "urn:uuid:dd984887-3797-4a21-9931-15ba95f9d165"
        }
      }
    },
    {
      "fullUrl": "urn:uuid:dd984887-3797-4a21-9931-15ba95f9d165",
      "resource": {
        "resourceType": "Practitioner",
        "id": "dd984887-3797-4a21-9931-15ba95f9d165",
        "meta": {
          "profile": [
            "http://hl7.eu/fhir/base/StructureDefinition/practitioner-eu"
          ]
        },
        "identifier": [
          {
            "assigner": {
              "display": "HL7 Europe"
            },
            "system": "urn:oid:2.16.840.1.113883.2.51.999",
            "value": "0a3a8b93-e225-4030-9878-deaf1b3a76ab"
          }
        ],
        "name": [
          {
            "prefix": [
              "dr"
            ],
            "given": [
              "Ex"
            ],
            "family": "Ample"
          }
        ],
        "address": [
          {
            "line": [
              "Laboratoire Central Européenne",
              "Boulevard du Jardin Botanique 32"
            ],
            "postalCode": "1000",
            "city": "Brussels",
            "country": "Belgium"
          }
        ],
        "text": {
          "status": "generated",
          "div": "<div xmlns=\"http://www.w3.org/1999/xhtml\">Laboratory: Laboratoire Central Européenne, 1000 Brussels, Belgium</div>"
        }
      }
    }
  ],
  "type": "document",
  "timestamp": "2021-03-01T12:54:46Z"
}
