{
  "resourceType": "Bundle",
  "id": "db15eae2-db28-484d-9319-1f6f78925071",
  "meta": {
    "profile": [
      "http://hl7.eu/fhir/laboratory/StructureDefinition/Bundle-eu-lab"
    ]
  },
  "identifier": {
    "assigner": {
      "display": "HL7 Europe"
    },
    "system": "urn:oid:2.16.840.1.113883.2.51.999",
    "value": "051e27b7-afba-4a54-b0b8-8768477415e6"
  },
  "entry": [
    {
      "fullUrl": "urn:uuid:78ec1fd6-4ef7-4458-8d33-1d88737e211a",
      "resource": {
        "resourceType": "Composition",
        "id": "78ec1fd6-4ef7-4458-8d33-1d88737e211a",
        "meta": {
          "profile": [
            "http://hl7.eu/fhir/laboratory/StructureDefinition/Composition-eu-lab"
          ]
        },
        "identifier": {
          "assigner": {
            "display": "HL7 Europe"
          },
          "system": "urn:oid:2.16.840.1.113883.2.51.999",
          "value": "75cdf4f1-766e-46d8-84bc-dcccec9bcfd7"
        },
        "author": [
          {
            "reference": "urn:uuid:16f3b7ce-c763-421b-b668-6e687ccfbb9d"
          }
        ],
        "category": [
          {
            "coding": [
              {
                "code": "26436-6",
                "system": "http://loinc.org",
                "display": "Laboratory studies (set)"
              }
            ]
          }
        ],
        "type": {
          "coding": [
            {
              "code": "11502-2",
              "system": "http://loinc.org",
              "display": "Laboratory report"
            }
          ],
          "text": "Laboratory Report"
        },
        "section": [
          {
            "code": {
              "coding": [
                {
                  "code": "26436-6",
                  "system": "http://loinc.org",
                  "display": "Laboratory studies (set)"
                }
              ],
              "text": "Laboratory studies"
            },
            "section": [
              {
                "code": {
                  "coding": [
                    {
                      "code": "$18719-5",
                      "system": "http://loinc.org",
                      "display": "Chemistry studies (set)"
                    }
                  ],
                  "text": "Chemistry"
                },
                "entry": [
                  {
                    "reference": "urn:uuid:7f1c5cb2-be8b-4594-8d4b-20160b976a92"
                  }
                ],
                "text": {
                  "status": "generated",
                  "div": "<div xmlns=\"http://www.w3.org/1999/xhtml\"><h3>Chemistry</h3><table class=\"hl7__eu__lab__report\"><thead><tr><th>Test</th><th>27-NOV-2021</th><th>Reference&#xA0;Range</th><th>Unit</th></tr></thead><tbody><tr><td>Ketones [Presence] in Urine by Test strip</td><td>Urine ketone test negative</td><td></td><td></td></tr></tbody></table></div>"
                },
                "title": "Chemistry"
              },
              {
                "code": {
                  "coding": [
                    {
                      "code": "$18729-4",
                      "system": "http://loinc.org",
                      "display": "Urinalysis studies (set)"
                    }
                  ],
                  "text": "Urinalysis"
                },
                "entry": [
                  {
                    "reference": "urn:uuid:8707bc6c-8a38-46f1-ba7a-eb85e98dfc6b"
                  },
                  {
                    "reference": "urn:uuid:72b07159-bbba-462a-9c40-6f92f3f7d046"
                  },
                  {
                    "reference": "urn:uuid:73007af4-35c3-4d63-9873-0887549dfbbf"
                  },
                  {
                    "reference": "urn:uuid:adda65e4-265c-4501-81f6-67ff72c18cac"
                  },
                  {
                    "reference": "urn:uuid:56ec3435-1ed9-477b-bc6a-0af2cc1985ac"
                  },
                  {
                    "reference": "urn:uuid:d92ca43c-a750-45d3-bd51-398fcee8ecf1"
                  },
                  {
                    "reference": "urn:uuid:3fbc4446-6b2c-4c20-bc8c-03eeffe3a9ff"
                  },
                  {
                    "reference": "urn:uuid:e81101e7-6b66-4255-889a-625159c8dc4f"
                  },
                  {
                    "reference": "urn:uuid:4a8f36c3-9c93-4f67-aa6c-fdafe192bf6d"
                  },
                  {
                    "reference": "urn:uuid:934e9586-9265-4382-adbd-c765f64d76bd"
                  },
                  {
                    "reference": "urn:uuid:645c5413-6c88-4272-8210-f762522b6823"
                  },
                  {
                    "reference": "urn:uuid:6af7b5be-f9fd-441e-93ae-9d98f7d3e28e"
                  },
                  {
                    "reference": "urn:uuid:b856eb57-3cb5-4f90-b788-b7f0551347d9"
                  }
                ],
                "text": {
                  "status": "generated",
                  "div": "<div xmlns=\"http://www.w3.org/1999/xhtml\"><h3>Urinalysis</h3><table class=\"hl7__eu__lab__report\"><thead><tr><th>Test</th><th>27-NOV-2021</th><th>Reference&#xA0;Range</th><th>Unit</th></tr></thead><tbody><tr><td>Glucose [Mass/volume] in Urine by Test strip</td><td><strong>12.7 H</strong></td><td>0 - 0.8</td><td>mg/dL</td></tr><tr><td>Specific gravity of Urine by Test strip</td><td><strong>1.0 L</strong></td><td>1.005 - 1.03</td><td>{nominal}</td></tr><tr><td>pH of Urine by Test strip</td><td>5.7</td><td>4.5 - 7.5</td><td>pH</td></tr><tr><td>Protein [Mass/volume] in Urine by Test strip</td><td><strong>7.0 L</strong></td><td>14 - 20</td><td>mg/dL</td></tr><tr><td>Nitrite [Presence] in Urine by Test strip</td><td>Urine nitrite positive</td><td></td><td></td></tr><tr><td>Hemoglobin [Presence] in Urine by Test strip</td><td>Urine blood test = +</td><td></td><td></td></tr><tr><td>Leukocyte esterase [Presence] in Urine by Test strip</td><td>Urine leukocyte test</td><td></td><td></td></tr><tr><td>Leukocytes [#/area] in Urine sediment by Microscopy high power field</td><td><strong>16.5 H</strong></td><td>0 - 5</td><td>/[HPF]</td></tr><tr><td>Erythrocytes [#/area] in Urine sediment by Microscopy high power field</td><td>1.9</td><td>0 - 5</td><td>/[HPF]</td></tr><tr><td>Epithelial cells [#/area] in Urine sediment by Microscopy high power field</td><td>1.0</td><td>0 - 5</td><td>/[HPF]</td></tr><tr><td>Casts [Presence] in Urine sediment by Light microscopy</td><td>Urine microscopy: no casts</td><td></td><td></td></tr><tr><td>Mucus [Presence] in Urine sediment by Light microscopy</td><td>Mucus in urine</td><td></td><td></td></tr><tr><td>Bacteria [#/area] in Urine sediment by Microscopy high power field</td><td>Finding of presence of bacteria</td><td></td><td></td></tr></tbody></table></div>"
                },
                "title": "Urinalysis"
              },
              {
                "code": {
                  "coding": [
                    {
                      "code": "$18725-2",
                      "system": "http://loinc.org",
                      "display": "Microbiology studies"
                    }
                  ],
                  "text": "Microbiology"
                },
                "entry": [
                  {
                    "reference": "urn:uuid:be61f20f-813c-447c-9b71-8638365e291e"
                  }
                ],
                "text": {
                  "status": "generated",
                  "div": "<div xmlns=\"http://www.w3.org/1999/xhtml\"><h3>Microbiology</h3><table class=\"hl7__eu__lab__report\"><thead><tr><th>Test</th><th>27-NOV-2021</th><th>Reference&#xA0;Range</th><th>Unit</th></tr></thead><tbody><tr><td>Bacteria identified in Urine by Culture</td><td></td><td></td><td></td></tr></tbody></table></div>"
                },
                "title": "Microbiology"
              }
            ],
            "title": "Laboratory Report"
          },
          {
            "text": {
              "status": "generated",
              "div": "<div xmlns=\"http://www.w3.org/1999/xhtml\"><h3>Annotation</h3><table class=\"hl7__eu__lab__report\"><tr><th>Conclusion and Recommendations based on this report and previous findings known to us</th></tr><tr><td>Urinalysis shows significant bacteriuria (&gt;100,000 CFU/mL E. coli), positive nitrites, leukocyte esterase, hematuria, pyuria, and presence of bacteria and mucus, consistent with a urinary tract infection. Marked glucosuria is noted, suggestive of possible hyperglycemia/diabetes. No ketonuria. Low urine specific gravity may indicate dilute urine. Recommend clinical correlation and further evaluation for diabetes and urinary tract infection management.</td></tr></table></div>"
            },
            "code": {
              "coding": [
                {
                  "system": "http://loinc.org",
                  "code": "48767-8",
                  "display": "Annotation comment"
                }
              ]
            },
            "title": "Annotation comment"
          }
        ],
        "status": "final",
        "subject": {
          "reference": "urn:uuid:313f35af-8c8e-405d-aae6-cc0eb45d2772",
          "display": "Stephen Weinhage"
        },
        "date": "2021-11-27T03:30:19Z",
        "title": "Laboratory Report",
        "confidentiality": "N"
      }
    },
    {
      "fullUrl": "urn:uuid:3811c40c-5e31-4bc8-a040-c44876f84fc4",
      "resource": {
        "resourceType": "DiagnosticReport",
        "id": "3811c40c-5e31-4bc8-a040-c44876f84fc4",
        "meta": {
          "profile": [
            "http://hl7.eu/fhir/laboratory/StructureDefinition/DiagnosticReport-eu-lab"
          ]
        },
        "identifier": [
          {
            "assigner": {
              "display": "HL7 Europe"
            },
            "system": "urn:oid:2.16.840.1.113883.2.51.999",
            "value": "cb3aafc3-39f3-4a8a-a230-6f948669465f"
          }
        ],
        "extension": [
          {
            "url": "http://hl7.org/fhir/5.0/StructureDefinition/extension-DiagnosticReport.composition",
            "valueReference": {
              "reference": "urn:uuid:75cdf4f1-766e-46d8-84bc-dcccec9bcfd7"
            }
          }
        ],
        "category": [
          {
            "coding": [
              {
                "code": "26436-6",
                "system": "http://loinc.org",
                "display": "Laboratory studies (set)"
              }
            ]
          }
        ],
        "specimen": [
          {
            "reference": "urn:uuid:299216e6-fef0-4c20-b229-0597aa97808d"
          },
          {
            "reference": "urn:uuid:8833a457-dab6-4567-88fc-0531820781f5"
          }
        ],
        "result": [
          {
            "reference": "urn:uuid:8707bc6c-8a38-46f1-ba7a-eb85e98dfc6b"
          },
          {
            "reference": "urn:uuid:7f1c5cb2-be8b-4594-8d4b-20160b976a92"
          },
          {
            "reference": "urn:uuid:72b07159-bbba-462a-9c40-6f92f3f7d046"
          },
          {
            "reference": "urn:uuid:73007af4-35c3-4d63-9873-0887549dfbbf"
          },
          {
            "reference": "urn:uuid:adda65e4-265c-4501-81f6-67ff72c18cac"
          },
          {
            "reference": "urn:uuid:56ec3435-1ed9-477b-bc6a-0af2cc1985ac"
          },
          {
            "reference": "urn:uuid:d92ca43c-a750-45d3-bd51-398fcee8ecf1"
          },
          {
            "reference": "urn:uuid:3fbc4446-6b2c-4c20-bc8c-03eeffe3a9ff"
          },
          {
            "reference": "urn:uuid:e81101e7-6b66-4255-889a-625159c8dc4f"
          },
          {
            "reference": "urn:uuid:4a8f36c3-9c93-4f67-aa6c-fdafe192bf6d"
          },
          {
            "reference": "urn:uuid:934e9586-9265-4382-adbd-c765f64d76bd"
          },
          {
            "reference": "urn:uuid:645c5413-6c88-4272-8210-f762522b6823"
          },
          {
            "reference": "urn:uuid:6af7b5be-f9fd-441e-93ae-9d98f7d3e28e"
          },
          {
            "reference": "urn:uuid:b856eb57-3cb5-4f90-b788-b7f0551347d9"
          },
          {
            "reference": "urn:uuid:be61f20f-813c-447c-9b71-8638365e291e"
          }
        ],
        "status": "registered",
        "code": {
          "coding": [
            {
              "code": "11502-2",
              "system": "http://loinc.org",
              "display": "Laboratory report"
            }
          ]
        },
        "subject": {
          "reference": "urn:uuid:313f35af-8c8e-405d-aae6-cc0eb45d2772",
          "display": "Stephen Weinhage"
        }
      }
    },
    {
      "fullUrl": "urn:uuid:313f35af-8c8e-405d-aae6-cc0eb45d2772",
      "resource": {
        "resourceType": "Patient",
        "id": "313f35af-8c8e-405d-aae6-cc0eb45d2772",
        "meta": {
          "security": [
            {
              "system": "http://terminology.hl7.org/CodeSystem/v3-ActReason",
              "code": "HTEST"
            },
            {
              "system": "http://terminology.hl7.org/CodeSystem/v3-ActReason",
              "code": "TRAIN"
            }
          ],
          "tag": [
            {
              "system": "https://synderai.net/fhir/CodeSystem/tags",
              "code": "synthetic",
              "display": "SYNDERAI Synthetic data"
            }
          ],
          "profile": [
            "http://hl7.eu/fhir/base/StructureDefinition/patient-eu-core"
          ]
        },
        "identifier": [
          {
            "type": {
              "coding": [
                {
                  "code": "PT",
                  "system": "http://terminology.hl7.org/CodeSystem/v2-0203"
                }
              ]
            },
            "system": "http://ec.europa.eu/identifier/eci",
            "value": "6413-101438-9"
          },
          {
            "type": {
              "coding": [
                {
                  "code": "MR",
                  "system": "http://terminology.hl7.org/CodeSystem/v2-0203"
                }
              ]
            },
            "system": "http://local.setting.eu/identifier",
            "value": "24ebd065-2072-c582-96d3-10256a4a5a7d"
          }
        ],
        "name": [
          {
            "family": "Weinhage"
          },
          {
            "given": [
              "Stephen"
            ]
          },
          {
            "text": "Stephen Weinhage"
          }
        ],
        "address": [
          {
            "line": [
              "Bertold-Stahr-Platz 6/3"
            ],
            "use": "home",
            "type": "physical",
            "postalCode": "31535",
            "city": "Neustadt am Rübenberge",
            "country": "Germany"
          }
        ],
        "telecom": [
          {
            "system": "phone",
            "value": "+49(0)5355171263"
          }
        ],
        "extension": [
          {
            "url": "http://hl7.org/fhir/StructureDefinition/patient-nationality",
            "valueCodeableConcept": {
              "coding": [
                {
                  "code": "DE",
                  "system": "http://hl7.org/fhir/ValueSet/country"
                }
              ]
            }
          }
        ],
        "text": {
          "status": "generated",
          "div": "<div xmlns=\"http://www.w3.org/1999/xhtml\"><table class=\"hl7__ips\"><tr><td>Stephen Weinhage</td><td>male</td><td>11-Aug-1950</td></tr></table></div>"
        },
        "gender": "male",
        "birthDate": "1950-08-11"
      }
    },
    {
      "fullUrl": "urn:uuid:3026c721-3437-4164-b29c-d93066bd37a2",
      "resource": {
        "resourceType": "ServiceRequest",
        "id": "3026c721-3437-4164-b29c-d93066bd37a2",
        "meta": {
          "profile": [
            "http://hl7.eu/fhir/laboratory/StructureDefinition/ServiceRequest-eu-lab"
          ]
        },
        "identifier": [
          {
            "system": "http://example.org",
            "value": "c2e80265-69fb-4fa5-a3f1-88ffcc083a0b"
          }
        ],
        "specimen": [
          {
            "reference": "urn:uuid:299216e6-fef0-4c20-b229-0597aa97808d"
          },
          {
            "reference": "urn:uuid:8833a457-dab6-4567-88fc-0531820781f5"
          }
        ],
        "reasonCode": [
          {
            "coding": [
              {
                "code": "422034002",
                "system": "http://snomed.info/sct",
                "display": "Retinopathy due to type 2 diabetes mellitus"
              }
            ]
          },
          {
            "coding": [
              {
                "code": "55822004",
                "system": "http://snomed.info/sct",
                "display": "Hyperlipidemia"
              }
            ]
          },
          {
            "coding": [
              {
                "code": "302870006",
                "system": "http://snomed.info/sct",
                "display": "Hypertriglyceridemia"
              }
            ]
          },
          {
            "coding": [
              {
                "code": "44054006",
                "system": "http://snomed.info/sct",
                "display": "Type 2 diabetes mellitus"
              }
            ]
          },
          {
            "coding": [
              {
                "code": "414545008",
                "system": "http://snomed.info/sct",
                "display": "Ischemic heart disease"
              }
            ]
          },
          {
            "coding": [
              {
                "code": "237602007",
                "system": "http://snomed.info/sct",
                "display": "Metabolic syndrome X"
              }
            ]
          },
          {
            "coding": [
              {
                "code": "68496003",
                "system": "http://snomed.info/sct",
                "display": "Polyp of colon"
              }
            ]
          },
          {
            "coding": [
              {
                "code": "59621000",
                "system": "http://snomed.info/sct",
                "display": "Essential hypertension"
              }
            ]
          },
          {
            "coding": [
              {
                "code": "15777000",
                "system": "http://snomed.info/sct",
                "display": "Prediabetes"
              }
            ]
          },
          {
            "coding": [
              {
                "code": "271737000",
                "system": "http://snomed.info/sct",
                "display": "Anemia"
              }
            ]
          },
          {
            "coding": [
              {
                "code": "40055000",
                "system": "http://snomed.info/sct",
                "display": "Chronic sinusitis"
              }
            ]
          }
        ],
        "status": "active",
        "intent": "order",
        "code": {
          "coding": [
            {
              "code": "108252007",
              "system": "http://snomed.info/sct",
              "display": "Laboratory procedure"
            }
          ]
        },
        "subject": {
          "reference": "urn:uuid:313f35af-8c8e-405d-aae6-cc0eb45d2772",
          "display": "Stephen Weinhage"
        },
        "requester": {
          "reference": "urn:uuid:8e27dd14-bfab-4cc5-93a5-580a494ac504"
        }
      }
    },
    {
      "fullUrl": "urn:uuid:8e27dd14-bfab-4cc5-93a5-580a494ac504",
      "resource": {
        "resourceType": "PractitionerRole",
        "id": "8e27dd14-bfab-4cc5-93a5-580a494ac504",
        "meta": {
          "profile": [
            "http://hl7.eu/fhir/base/StructureDefinition/practitionerRole-eu"
          ]
        },
        "text": {
          "status": "generated",
          "div": "<div xmlns=\"http://www.w3.org/1999/xhtml\">Provider Role Id: 8e27dd14-bfab-4cc5-93a5-580a494ac504</div>"
        },
        "organization": {
          "reference": "urn:uuid:90b4112c-373e-43b0-9e35-662475ff3f02"
        }
      }
    },
    {
      "fullUrl": "urn:uuid:90b4112c-373e-43b0-9e35-662475ff3f02",
      "resource": {
        "resourceType": "Organization",
        "id": "90b4112c-373e-43b0-9e35-662475ff3f02",
        "meta": {
          "profile": [
            "http://hl7.eu/fhir/base/StructureDefinition/organization-eu"
          ]
        },
        "identifier": [
          {
            "assigner": {
              "display": "HL7 Europe"
            },
            "system": "urn:oid:2.16.840.1.113883.2.51.999",
            "value": "ae02b965-1d8f-4f35-a05d-37eb080a2fda"
          }
        ],
        "address": [
          {
            "line": [
              "Dudenser Straße 41A"
            ],
            "city": "Neustadt am Rübenberge",
            "postalCode": "31535",
            "country": "Germany"
          }
        ],
        "text": {
          "status": "generated",
          "div": "<div xmlns=\"http://www.w3.org/1999/xhtml\">Provider Organization: Landarztpraxis Dudensen</div>"
        },
        "name": "Landarztpraxis Dudensen"
      }
    },
    {
      "fullUrl": "urn:uuid:299216e6-fef0-4c20-b229-0597aa97808d",
      "resource": {
        "resourceType": "Specimen",
        "id": "299216e6-fef0-4c20-b229-0597aa97808d",
        "meta": {
          "profile": [
            "http://hl7.eu/fhir/laboratory/StructureDefinition/Specimen-eu-lab"
          ]
        },
        "collection": {
          "collectedDateTime": "2021-11-27"
        },
        "text": {
          "status": "generated",
          "div": "<div xmlns=\"http://www.w3.org/1999/xhtml\"><table class=\"hl7__eu__lab__report\"><tr><th>Specimen</th><th>Collection Date</th></tr><tr><td>Urine specimen</td><td><span class=\"nb\">27-Nov-2021</span></td></tr></table></div>"
        },
        "type": {
          "coding": [
            {
              "code": "122575003",
              "system": "http://snomed.info/sct",
              "display": "Urine specimen"
            }
          ]
        }
      }
    },
    {
      "fullUrl": "urn:uuid:8833a457-dab6-4567-88fc-0531820781f5",
      "resource": {
        "resourceType": "Specimen",
        "id": "8833a457-dab6-4567-88fc-0531820781f5",
        "meta": {
          "profile": [
            "http://hl7.eu/fhir/laboratory/StructureDefinition/Specimen-eu-lab"
          ]
        },
        "collection": {
          "collectedDateTime": "2021-11-27"
        },
        "text": {
          "status": "generated",
          "div": "<div xmlns=\"http://www.w3.org/1999/xhtml\"><table class=\"hl7__eu__lab__report\"><tr><th>Specimen</th><th>Collection Date</th></tr><tr><td>Urine sediment specimen (specimen)</td><td><span class=\"nb\">27-Nov-2021</span></td></tr></table></div>"
        },
        "type": {
          "coding": [
            {
              "code": "122567009",
              "system": "http://snomed.info/sct",
              "display": "Urine sediment specimen (specimen)"
            }
          ]
        }
      }
    },
    {
      "fullUrl": "urn:uuid:8707bc6c-8a38-46f1-ba7a-eb85e98dfc6b",
      "resource": {
        "resourceType": "Observation",
        "id": "8707bc6c-8a38-46f1-ba7a-eb85e98dfc6b",
        "meta": {
          "profile": [
            "http://hl7.eu/fhir/laboratory/StructureDefinition/Observation-resultslab-eu-lab"
          ]
        },
        "performer": [
          {
            "display": "The Central European Lab"
          }
        ],
        "category": [
          {
            "coding": [
              {
                "system": "http://terminology.hl7.org/CodeSystem/observation-category",
                "code": "laboratory"
              }
            ]
          }
        ],
        "code": {
          "coding": [
            {
              "code": "5792-7",
              "system": "http://loinc.org",
              "display": "Glucose [Mass/volume] in Urine by Test strip"
            }
          ],
          "text": "Glucose [Mass/volume] in Urine by Test strip"
        },
        "valueQuantity": {
          "system": "http://unitsofmeasure.org",
          "value": 12.7,
          "unit": "mg/dL",
          "code": "mg/dL"
        },
        "referenceRange": [
          {
            "low": {
              "value": 0,
              "code": "mg/dL",
              "system": "http://unitsofmeasure.org"
            }
          },
          {
            "high": {
              "value": 0.8,
              "code": "mg/dL",
              "system": "http://unitsofmeasure.org"
            }
          }
        ],
        "interpretation": [
          {
            "coding": [
              {
                "code": "H",
                "system": "http://terminology.hl7.org/CodeSystem/v3-ObservationInterpretation",
                "display": "High"
              }
            ]
          }
        ],
        "text": {
          "status": "generated",
          "div": "<div xmlns=\"http://www.w3.org/1999/xhtml\"><table class=\"hl7__eu__lab__report\"><tr><th>Test</th><th>27-Nov-2021</th><th>Reference&#xA0;Range</th><th>Unit</th></tr><tr><td>Glucose [Mass/volume] in Urine by Test strip</td><td>12.7</td><td>0 - 0.8</td><td>H</td><td>mg/dL</td></tr></table></div>"
        },
        "status": "final",
        "subject": {
          "reference": "urn:uuid:313f35af-8c8e-405d-aae6-cc0eb45d2772",
          "display": "Stephen Weinhage"
        },
        "effectiveDateTime": "2021-11-27T02:30:19Z",
        "specimen": {
          "reference": "urn:uuid:299216e6-fef0-4c20-b229-0597aa97808d"
        }
      }
    },
    {
      "fullUrl": "urn:uuid:7f1c5cb2-be8b-4594-8d4b-20160b976a92",
      "resource": {
        "resourceType": "Observation",
        "id": "7f1c5cb2-be8b-4594-8d4b-20160b976a92",
        "meta": {
          "profile": [
            "http://hl7.eu/fhir/laboratory/StructureDefinition/Observation-resultslab-eu-lab"
          ]
        },
        "performer": [
          {
            "display": "The Central European Lab"
          }
        ],
        "category": [
          {
            "coding": [
              {
                "system": "http://terminology.hl7.org/CodeSystem/observation-category",
                "code": "laboratory"
              }
            ]
          }
        ],
        "code": {
          "coding": [
            {
              "code": "2514-8",
              "system": "http://loinc.org",
              "display": "Ketones [Presence] in Urine by Test strip"
            }
          ],
          "text": "Ketones [Presence] in Urine by Test strip"
        },
        "text": {
          "status": "generated",
          "div": "<div xmlns=\"http://www.w3.org/1999/xhtml\"><table class=\"hl7__eu__lab__report\"><tr><th>Test</th><th>27-Nov-2021</th><th>Reference&#xA0;Range</th><th>Unit</th></tr><tr><td>Ketones [Presence] in Urine by Test strip</td></tr></table></div>"
        },
        "status": "final",
        "subject": {
          "reference": "urn:uuid:313f35af-8c8e-405d-aae6-cc0eb45d2772",
          "display": "Stephen Weinhage"
        },
        "effectiveDateTime": "2021-11-27T02:30:19Z",
        "specimen": {
          "reference": "urn:uuid:299216e6-fef0-4c20-b229-0597aa97808d"
        }
      }
    },
    {
      "fullUrl": "urn:uuid:72b07159-bbba-462a-9c40-6f92f3f7d046",
      "resource": {
        "resourceType": "Observation",
        "id": "72b07159-bbba-462a-9c40-6f92f3f7d046",
        "meta": {
          "profile": [
            "http://hl7.eu/fhir/laboratory/StructureDefinition/Observation-resultslab-eu-lab"
          ]
        },
        "performer": [
          {
            "display": "The Central European Lab"
          }
        ],
        "category": [
          {
            "coding": [
              {
                "system": "http://terminology.hl7.org/CodeSystem/observation-category",
                "code": "laboratory"
              }
            ]
          }
        ],
        "code": {
          "coding": [
            {
              "code": "5811-5",
              "system": "http://loinc.org",
              "display": "Specific gravity of Urine by Test strip"
            }
          ],
          "text": "Specific gravity of Urine by Test strip"
        },
        "valueQuantity": {
          "system": "http://unitsofmeasure.org",
          "value": 1,
          "unit": "{nominal}",
          "code": "{nominal}"
        },
        "referenceRange": [
          {
            "low": {
              "value": 1.005,
              "code": "g/mL",
              "system": "http://unitsofmeasure.org"
            }
          },
          {
            "high": {
              "value": 1.03,
              "code": "g/mL",
              "system": "http://unitsofmeasure.org"
            }
          }
        ],
        "interpretation": [
          {
            "coding": [
              {
                "code": "L",
                "system": "http://terminology.hl7.org/CodeSystem/v3-ObservationInterpretation",
                "display": "Low"
              }
            ]
          }
        ],
        "text": {
          "status": "generated",
          "div": "<div xmlns=\"http://www.w3.org/1999/xhtml\"><table class=\"hl7__eu__lab__report\"><tr><th>Test</th><th>27-Nov-2021</th><th>Reference&#xA0;Range</th><th>Unit</th></tr><tr><td>Specific gravity of Urine by Test strip</td><td>1.0</td><td>1.005 - 1.03</td><td>L</td><td>{nominal}</td></tr></table></div>"
        },
        "status": "final",
        "subject": {
          "reference": "urn:uuid:313f35af-8c8e-405d-aae6-cc0eb45d2772",
          "display": "Stephen Weinhage"
        },
        "effectiveDateTime": "2021-11-27T02:30:19Z",
        "specimen": {
          "reference": "urn:uuid:299216e6-fef0-4c20-b229-0597aa97808d"
        }
      }
    },
    {
      "fullUrl": "urn:uuid:73007af4-35c3-4d63-9873-0887549dfbbf",
      "resource": {
        "resourceType": "Observation",
        "id": "73007af4-35c3-4d63-9873-0887549dfbbf",
        "meta": {
          "profile": [
            "http://hl7.eu/fhir/laboratory/StructureDefinition/Observation-resultslab-eu-lab"
          ]
        },
        "performer": [
          {
            "display": "The Central European Lab"
          }
        ],
        "category": [
          {
            "coding": [
              {
                "system": "http://terminology.hl7.org/CodeSystem/observation-category",
                "code": "laboratory"
              }
            ]
          }
        ],
        "code": {
          "coding": [
            {
              "code": "5803-2",
              "system": "http://loinc.org",
              "display": "pH of Urine by Test strip"
            }
          ],
          "text": "pH of Urine by Test strip"
        },
        "valueQuantity": {
          "system": "http://unitsofmeasure.org",
          "value": 5.7,
          "unit": "pH",
          "code": "pH"
        },
        "referenceRange": [
          {
            "low": {
              "value": 4.5,
              "code": "pH",
              "system": "http://unitsofmeasure.org"
            }
          },
          {
            "high": {
              "value": 7.5,
              "code": "pH",
              "system": "http://unitsofmeasure.org"
            }
          }
        ],
        "text": {
          "status": "generated",
          "div": "<div xmlns=\"http://www.w3.org/1999/xhtml\"><table class=\"hl7__eu__lab__report\"><tr><th>Test</th><th>27-Nov-2021</th><th>Reference&#xA0;Range</th><th>Unit</th></tr><tr><td>pH of Urine by Test strip</td><td>5.7</td><td>4.5 - 7.5</td><td></td><td>pH</td></tr></table></div>"
        },
        "status": "final",
        "subject": {
          "reference": "urn:uuid:313f35af-8c8e-405d-aae6-cc0eb45d2772",
          "display": "Stephen Weinhage"
        },
        "effectiveDateTime": "2021-11-27T02:30:19Z",
        "specimen": {
          "reference": "urn:uuid:299216e6-fef0-4c20-b229-0597aa97808d"
        }
      }
    },
    {
      "fullUrl": "urn:uuid:adda65e4-265c-4501-81f6-67ff72c18cac",
      "resource": {
        "resourceType": "Observation",
        "id": "adda65e4-265c-4501-81f6-67ff72c18cac",
        "meta": {
          "profile": [
            "http://hl7.eu/fhir/laboratory/StructureDefinition/Observation-resultslab-eu-lab"
          ]
        },
        "performer": [
          {
            "display": "The Central European Lab"
          }
        ],
        "category": [
          {
            "coding": [
              {
                "system": "http://terminology.hl7.org/CodeSystem/observation-category",
                "code": "laboratory"
              }
            ]
          }
        ],
        "code": {
          "coding": [
            {
              "code": "5804-0",
              "system": "http://loinc.org",
              "display": "Protein [Mass/volume] in Urine by Test strip"
            }
          ],
          "text": "Protein [Mass/volume] in Urine by Test strip"
        },
        "valueQuantity": {
          "system": "http://unitsofmeasure.org",
          "value": 7,
          "unit": "mg/dL",
          "code": "mg/dL"
        },
        "referenceRange": [
          {
            "low": {
              "value": 14,
              "code": "mg/dL",
              "system": "http://unitsofmeasure.org"
            }
          },
          {
            "high": {
              "value": 20,
              "code": "mg/dL",
              "system": "http://unitsofmeasure.org"
            }
          }
        ],
        "interpretation": [
          {
            "coding": [
              {
                "code": "L",
                "system": "http://terminology.hl7.org/CodeSystem/v3-ObservationInterpretation",
                "display": "Low"
              }
            ]
          }
        ],
        "text": {
          "status": "generated",
          "div": "<div xmlns=\"http://www.w3.org/1999/xhtml\"><table class=\"hl7__eu__lab__report\"><tr><th>Test</th><th>27-Nov-2021</th><th>Reference&#xA0;Range</th><th>Unit</th></tr><tr><td>Protein [Mass/volume] in Urine by Test strip</td><td>7.0</td><td>14 - 20</td><td>L</td><td>mg/dL</td></tr></table></div>"
        },
        "status": "final",
        "subject": {
          "reference": "urn:uuid:313f35af-8c8e-405d-aae6-cc0eb45d2772",
          "display": "Stephen Weinhage"
        },
        "effectiveDateTime": "2021-11-27T02:30:19Z",
        "specimen": {
          "reference": "urn:uuid:299216e6-fef0-4c20-b229-0597aa97808d"
        }
      }
    },
    {
      "fullUrl": "urn:uuid:56ec3435-1ed9-477b-bc6a-0af2cc1985ac",
      "resource": {
        "resourceType": "Observation",
        "id": "56ec3435-1ed9-477b-bc6a-0af2cc1985ac",
        "meta": {
          "profile": [
            "http://hl7.eu/fhir/laboratory/StructureDefinition/Observation-resultslab-eu-lab"
          ]
        },
        "performer": [
          {
            "display": "The Central European Lab"
          }
        ],
        "category": [
          {
            "coding": [
              {
                "system": "http://terminology.hl7.org/CodeSystem/observation-category",
                "code": "laboratory"
              }
            ]
          }
        ],
        "code": {
          "coding": [
            {
              "code": "5802-4",
              "system": "http://loinc.org",
              "display": "Nitrite [Presence] in Urine by Test strip"
            }
          ],
          "text": "Nitrite [Presence] in Urine by Test strip"
        },
        "text": {
          "status": "generated",
          "div": "<div xmlns=\"http://www.w3.org/1999/xhtml\"><table class=\"hl7__eu__lab__report\"><tr><th>Test</th><th>27-Nov-2021</th><th>Reference&#xA0;Range</th><th>Unit</th></tr><tr><td>Nitrite [Presence] in Urine by Test strip</td></tr></table></div>"
        },
        "status": "final",
        "subject": {
          "reference": "urn:uuid:313f35af-8c8e-405d-aae6-cc0eb45d2772",
          "display": "Stephen Weinhage"
        },
        "effectiveDateTime": "2021-11-27T02:30:19Z",
        "specimen": {
          "reference": "urn:uuid:299216e6-fef0-4c20-b229-0597aa97808d"
        }
      }
    },
    {
      "fullUrl": "urn:uuid:d92ca43c-a750-45d3-bd51-398fcee8ecf1",
      "resource": {
        "resourceType": "Observation",
        "id": "d92ca43c-a750-45d3-bd51-398fcee8ecf1",
        "meta": {
          "profile": [
            "http://hl7.eu/fhir/laboratory/StructureDefinition/Observation-resultslab-eu-lab"
          ]
        },
        "performer": [
          {
            "display": "The Central European Lab"
          }
        ],
        "category": [
          {
            "coding": [
              {
                "system": "http://terminology.hl7.org/CodeSystem/observation-category",
                "code": "laboratory"
              }
            ]
          }
        ],
        "code": {
          "coding": [
            {
              "code": "5794-3",
              "system": "http://loinc.org",
              "display": "Hemoglobin [Presence] in Urine by Test strip"
            }
          ],
          "text": "Hemoglobin [Presence] in Urine by Test strip"
        },
        "text": {
          "status": "generated",
          "div": "<div xmlns=\"http://www.w3.org/1999/xhtml\"><table class=\"hl7__eu__lab__report\"><tr><th>Test</th><th>27-Nov-2021</th><th>Reference&#xA0;Range</th><th>Unit</th></tr><tr><td>Hemoglobin [Presence] in Urine by Test strip</td></tr></table></div>"
        },
        "status": "final",
        "subject": {
          "reference": "urn:uuid:313f35af-8c8e-405d-aae6-cc0eb45d2772",
          "display": "Stephen Weinhage"
        },
        "effectiveDateTime": "2021-11-27T02:30:19Z",
        "specimen": {
          "reference": "urn:uuid:299216e6-fef0-4c20-b229-0597aa97808d"
        }
      }
    },
    {
      "fullUrl": "urn:uuid:3fbc4446-6b2c-4c20-bc8c-03eeffe3a9ff",
      "resource": {
        "resourceType": "Observation",
        "id": "3fbc4446-6b2c-4c20-bc8c-03eeffe3a9ff",
        "meta": {
          "profile": [
            "http://hl7.eu/fhir/laboratory/StructureDefinition/Observation-resultslab-eu-lab"
          ]
        },
        "performer": [
          {
            "display": "The Central European Lab"
          }
        ],
        "category": [
          {
            "coding": [
              {
                "system": "http://terminology.hl7.org/CodeSystem/observation-category",
                "code": "laboratory"
              }
            ]
          }
        ],
        "code": {
          "coding": [
            {
              "code": "5799-2",
              "system": "http://loinc.org",
              "display": "Leukocyte esterase [Presence] in Urine by Test strip"
            }
          ],
          "text": "Leukocyte esterase [Presence] in Urine by Test strip"
        },
        "text": {
          "status": "generated",
          "div": "<div xmlns=\"http://www.w3.org/1999/xhtml\"><table class=\"hl7__eu__lab__report\"><tr><th>Test</th><th>27-Nov-2021</th><th>Reference&#xA0;Range</th><th>Unit</th></tr><tr><td>Leukocyte esterase [Presence] in Urine by Test strip</td></tr></table></div>"
        },
        "status": "final",
        "subject": {
          "reference": "urn:uuid:313f35af-8c8e-405d-aae6-cc0eb45d2772",
          "display": "Stephen Weinhage"
        },
        "effectiveDateTime": "2021-11-27T02:30:19Z",
        "specimen": {
          "reference": "urn:uuid:299216e6-fef0-4c20-b229-0597aa97808d"
        }
      }
    },
    {
      "fullUrl": "urn:uuid:e81101e7-6b66-4255-889a-625159c8dc4f",
      "resource": {
        "resourceType": "Observation",
        "id": "e81101e7-6b66-4255-889a-625159c8dc4f",
        "meta": {
          "profile": [
            "http://hl7.eu/fhir/laboratory/StructureDefinition/Observation-resultslab-eu-lab"
          ]
        },
        "performer": [
          {
            "display": "The Central European Lab"
          }
        ],
        "category": [
          {
            "coding": [
              {
                "system": "http://terminology.hl7.org/CodeSystem/observation-category",
                "code": "laboratory"
              }
            ]
          }
        ],
        "code": {
          "coding": [
            {
              "code": "5821-4",
              "system": "http://loinc.org",
              "display": "Leukocytes [#/area] in Urine sediment by Microscopy high power field"
            }
          ],
          "text": "Leukocytes [#/area] in Urine sediment by Microscopy high power field"
        },
        "valueQuantity": {
          "system": "http://unitsofmeasure.org",
          "value": 16.5,
          "unit": "/[HPF]",
          "code": "/[HPF]"
        },
        "referenceRange": [
          {
            "low": {
              "value": 0,
              "code": "#/area",
              "system": "http://unitsofmeasure.org"
            }
          },
          {
            "high": {
              "value": 5,
              "code": "#/area",
              "system": "http://unitsofmeasure.org"
            }
          }
        ],
        "interpretation": [
          {
            "coding": [
              {
                "code": "H",
                "system": "http://terminology.hl7.org/CodeSystem/v3-ObservationInterpretation",
                "display": "High"
              }
            ]
          }
        ],
        "text": {
          "status": "generated",
          "div": "<div xmlns=\"http://www.w3.org/1999/xhtml\"><table class=\"hl7__eu__lab__report\"><tr><th>Test</th><th>27-Nov-2021</th><th>Reference&#xA0;Range</th><th>Unit</th></tr><tr><td>Leukocytes [#/area] in Urine sediment by Microscopy high power field</td><td>16.5</td><td>0 - 5</td><td>H</td><td>/[HPF]</td></tr></table></div>"
        },
        "status": "final",
        "subject": {
          "reference": "urn:uuid:313f35af-8c8e-405d-aae6-cc0eb45d2772",
          "display": "Stephen Weinhage"
        },
        "effectiveDateTime": "2021-11-27T02:30:19Z",
        "specimen": {
          "reference": "urn:uuid:8833a457-dab6-4567-88fc-0531820781f5"
        }
      }
    },
    {
      "fullUrl": "urn:uuid:4a8f36c3-9c93-4f67-aa6c-fdafe192bf6d",
      "resource": {
        "resourceType": "Observation",
        "id": "4a8f36c3-9c93-4f67-aa6c-fdafe192bf6d",
        "meta": {
          "profile": [
            "http://hl7.eu/fhir/laboratory/StructureDefinition/Observation-resultslab-eu-lab"
          ]
        },
        "performer": [
          {
            "display": "The Central European Lab"
          }
        ],
        "category": [
          {
            "coding": [
              {
                "system": "http://terminology.hl7.org/CodeSystem/observation-category",
                "code": "laboratory"
              }
            ]
          }
        ],
        "code": {
          "coding": [
            {
              "code": "13945-1",
              "system": "http://loinc.org",
              "display": "Erythrocytes [#/area] in Urine sediment by Microscopy high power field"
            }
          ],
          "text": "Erythrocytes [#/area] in Urine sediment by Microscopy high power field"
        },
        "valueQuantity": {
          "system": "http://unitsofmeasure.org",
          "value": 1.9,
          "unit": "/[HPF]",
          "code": "/[HPF]"
        },
        "referenceRange": [
          {
            "low": {
              "value": 0,
              "code": "[#/area]",
              "system": "http://unitsofmeasure.org"
            }
          },
          {
            "high": {
              "value": 5,
              "code": "[#/area]",
              "system": "http://unitsofmeasure.org"
            }
          }
        ],
        "text": {
          "status": "generated",
          "div": "<div xmlns=\"http://www.w3.org/1999/xhtml\"><table class=\"hl7__eu__lab__report\"><tr><th>Test</th><th>27-Nov-2021</th><th>Reference&#xA0;Range</th><th>Unit</th></tr><tr><td>Erythrocytes [#/area] in Urine sediment by Microscopy high power field</td><td>1.9</td><td>0 - 5</td><td></td><td>/[HPF]</td></tr></table></div>"
        },
        "status": "final",
        "subject": {
          "reference": "urn:uuid:313f35af-8c8e-405d-aae6-cc0eb45d2772",
          "display": "Stephen Weinhage"
        },
        "effectiveDateTime": "2021-11-27T02:30:19Z",
        "specimen": {
          "reference": "urn:uuid:8833a457-dab6-4567-88fc-0531820781f5"
        }
      }
    },
    {
      "fullUrl": "urn:uuid:934e9586-9265-4382-adbd-c765f64d76bd",
      "resource": {
        "resourceType": "Observation",
        "id": "934e9586-9265-4382-adbd-c765f64d76bd",
        "meta": {
          "profile": [
            "http://hl7.eu/fhir/laboratory/StructureDefinition/Observation-resultslab-eu-lab"
          ]
        },
        "performer": [
          {
            "display": "The Central European Lab"
          }
        ],
        "category": [
          {
            "coding": [
              {
                "system": "http://terminology.hl7.org/CodeSystem/observation-category",
                "code": "laboratory"
              }
            ]
          }
        ],
        "code": {
          "coding": [
            {
              "code": "5787-7",
              "system": "http://loinc.org",
              "display": "Epithelial cells [#/area] in Urine sediment by Microscopy high power field"
            }
          ],
          "text": "Epithelial cells [#/area] in Urine sediment by Microscopy high power field"
        },
        "valueQuantity": {
          "system": "http://unitsofmeasure.org",
          "value": 1,
          "unit": "/[HPF]",
          "code": "/[HPF]"
        },
        "referenceRange": [
          {
            "low": {
              "value": 0,
              "code": "#/area",
              "system": "http://unitsofmeasure.org"
            }
          },
          {
            "high": {
              "value": 5,
              "code": "#/area",
              "system": "http://unitsofmeasure.org"
            }
          }
        ],
        "text": {
          "status": "generated",
          "div": "<div xmlns=\"http://www.w3.org/1999/xhtml\"><table class=\"hl7__eu__lab__report\"><tr><th>Test</th><th>27-Nov-2021</th><th>Reference&#xA0;Range</th><th>Unit</th></tr><tr><td>Epithelial cells [#/area] in Urine sediment by Microscopy high power field</td><td>1.0</td><td>0 - 5</td><td></td><td>/[HPF]</td></tr></table></div>"
        },
        "status": "final",
        "subject": {
          "reference": "urn:uuid:313f35af-8c8e-405d-aae6-cc0eb45d2772",
          "display": "Stephen Weinhage"
        },
        "effectiveDateTime": "2021-11-27T02:30:19Z",
        "specimen": {
          "reference": "urn:uuid:8833a457-dab6-4567-88fc-0531820781f5"
        }
      }
    },
    {
      "fullUrl": "urn:uuid:645c5413-6c88-4272-8210-f762522b6823",
      "resource": {
        "resourceType": "Observation",
        "id": "645c5413-6c88-4272-8210-f762522b6823",
        "meta": {
          "profile": [
            "http://hl7.eu/fhir/laboratory/StructureDefinition/Observation-resultslab-eu-lab"
          ]
        },
        "performer": [
          {
            "display": "The Central European Lab"
          }
        ],
        "category": [
          {
            "coding": [
              {
                "system": "http://terminology.hl7.org/CodeSystem/observation-category",
                "code": "laboratory"
              }
            ]
          }
        ],
        "code": {
          "coding": [
            {
              "code": "24124-0",
              "system": "http://loinc.org",
              "display": "Casts [Presence] in Urine sediment by Light microscopy"
            }
          ],
          "text": "Casts [Presence] in Urine sediment by Light microscopy"
        },
        "text": {
          "status": "generated",
          "div": "<div xmlns=\"http://www.w3.org/1999/xhtml\"><table class=\"hl7__eu__lab__report\"><tr><th>Test</th><th>27-Nov-2021</th><th>Reference&#xA0;Range</th><th>Unit</th></tr><tr><td>Casts [Presence] in Urine sediment by Light microscopy</td></tr></table></div>"
        },
        "status": "final",
        "subject": {
          "reference": "urn:uuid:313f35af-8c8e-405d-aae6-cc0eb45d2772",
          "display": "Stephen Weinhage"
        },
        "effectiveDateTime": "2021-11-27T02:30:19Z",
        "specimen": {
          "reference": "urn:uuid:8833a457-dab6-4567-88fc-0531820781f5"
        }
      }
    },
    {
      "fullUrl": "urn:uuid:6af7b5be-f9fd-441e-93ae-9d98f7d3e28e",
      "resource": {
        "resourceType": "Observation",
        "id": "6af7b5be-f9fd-441e-93ae-9d98f7d3e28e",
        "meta": {
          "profile": [
            "http://hl7.eu/fhir/laboratory/StructureDefinition/Observation-resultslab-eu-lab"
          ]
        },
        "performer": [
          {
            "display": "The Central European Lab"
          }
        ],
        "category": [
          {
            "coding": [
              {
                "system": "http://terminology.hl7.org/CodeSystem/observation-category",
                "code": "laboratory"
              }
            ]
          }
        ],
        "code": {
          "coding": [
            {
              "code": "8247-9",
              "system": "http://loinc.org",
              "display": "Mucus [Presence] in Urine sediment by Light microscopy"
            }
          ],
          "text": "Mucus [Presence] in Urine sediment by Light microscopy"
        },
        "text": {
          "status": "generated",
          "div": "<div xmlns=\"http://www.w3.org/1999/xhtml\"><table class=\"hl7__eu__lab__report\"><tr><th>Test</th><th>27-Nov-2021</th><th>Reference&#xA0;Range</th><th>Unit</th></tr><tr><td>Mucus [Presence] in Urine sediment by Light microscopy</td></tr></table></div>"
        },
        "status": "final",
        "subject": {
          "reference": "urn:uuid:313f35af-8c8e-405d-aae6-cc0eb45d2772",
          "display": "Stephen Weinhage"
        },
        "effectiveDateTime": "2021-11-27T02:30:19Z",
        "specimen": {
          "reference": "urn:uuid:8833a457-dab6-4567-88fc-0531820781f5"
        }
      }
    },
    {
      "fullUrl": "urn:uuid:b856eb57-3cb5-4f90-b788-b7f0551347d9",
      "resource": {
        "resourceType": "Observation",
        "id": "b856eb57-3cb5-4f90-b788-b7f0551347d9",
        "meta": {
          "profile": [
            "http://hl7.eu/fhir/laboratory/StructureDefinition/Observation-resultslab-eu-lab"
          ]
        },
        "performer": [
          {
            "display": "The Central European Lab"
          }
        ],
        "category": [
          {
            "coding": [
              {
                "system": "http://terminology.hl7.org/CodeSystem/observation-category",
                "code": "laboratory"
              }
            ]
          }
        ],
        "code": {
          "coding": [
            {
              "code": "5769-5",
              "system": "http://loinc.org",
              "display": "Bacteria [#/area] in Urine sediment by Microscopy high power field"
            }
          ],
          "text": "Bacteria [#/area] in Urine sediment by Microscopy high power field"
        },
        "text": {
          "status": "generated",
          "div": "<div xmlns=\"http://www.w3.org/1999/xhtml\"><table class=\"hl7__eu__lab__report\"><tr><th>Test</th><th>27-Nov-2021</th><th>Reference&#xA0;Range</th><th>Unit</th></tr><tr><td>Bacteria [#/area] in Urine sediment by Microscopy high power field</td></tr></table></div>"
        },
        "status": "final",
        "subject": {
          "reference": "urn:uuid:313f35af-8c8e-405d-aae6-cc0eb45d2772",
          "display": "Stephen Weinhage"
        },
        "effectiveDateTime": "2021-11-27T02:30:19Z",
        "specimen": {
          "reference": "urn:uuid:8833a457-dab6-4567-88fc-0531820781f5"
        }
      }
    },
    {
      "fullUrl": "urn:uuid:be61f20f-813c-447c-9b71-8638365e291e",
      "resource": {
        "resourceType": "Observation",
        "id": "be61f20f-813c-447c-9b71-8638365e291e",
        "meta": {
          "profile": [
            "http://hl7.eu/fhir/laboratory/StructureDefinition/Observation-resultslab-eu-lab"
          ]
        },
        "performer": [
          {
            "display": "The Central European Lab"
          }
        ],
        "category": [
          {
            "coding": [
              {
                "system": "http://terminology.hl7.org/CodeSystem/observation-category",
                "code": "laboratory"
              }
            ]
          }
        ],
        "code": {
          "coding": [
            {
              "code": "630-4",
              "system": "http://loinc.org",
              "display": "Bacteria identified in Urine by Culture"
            }
          ],
          "text": "Bacteria identified in Urine by Culture"
        },
        "text": {
          "status": "generated",
          "div": "<div xmlns=\"http://www.w3.org/1999/xhtml\"><table class=\"hl7__eu__lab__report\"><tr><th>Test</th><th>27-Nov-2021</th><th>Reference&#xA0;Range</th><th>Unit</th></tr><tr><td>Bacteria identified in Urine by Culture</td></tr></table></div>"
        },
        "status": "final",
        "subject": {
          "reference": "urn:uuid:313f35af-8c8e-405d-aae6-cc0eb45d2772",
          "display": "Stephen Weinhage"
        },
        "effectiveDateTime": "2021-11-27T02:30:19Z",
        "specimen": {
          "reference": "urn:uuid:299216e6-fef0-4c20-b229-0597aa97808d"
        }
      }
    },
    {
      "fullUrl": "urn:uuid:3ff2cc10-edfb-4c95-835e-86fc2d84c352",
      "resource": {
        "resourceType": "Device",
        "id": "3ff2cc10-edfb-4c95-835e-86fc2d84c352",
        "deviceName": [
          {
            "name": "SYNDERAI Synthetic Generator",
            "type": "manufacturer-name"
          }
        ],
        "version": [
          {
            "value": "5.0"
          }
        ],
        "text": {
          "status": "generated",
          "div": "<div xmlns=\"http://www.w3.org/1999/xhtml\">SYNDERAI Synthetic Generator v5.0</div>"
        },
        "status": "active\"",
        "distinctIdentifier": "synderai-generator-50",
        "manufacturer": "SYNDERAI Project"
      }
    },
    {
      "fullUrl": "urn:uuid:ece4296c-e210-4279-957e-7361e2a6a45a",
      "resource": {
        "resourceType": "Provenance",
        "id": "ece4296c-e210-4279-957e-7361e2a6a45a",
        "target": [
          {
            "reference": "Patient/313f35af-8c8e-405d-aae6-cc0eb45d2772"
          },
          {
            "reference": "Bundle/db15eae2-db28-484d-9319-1f6f78925071"
          },
          {
            "reference": "Composition/78ec1fd6-4ef7-4458-8d33-1d88737e211a"
          },
          {
            "reference": "PractitionerRole/16f3b7ce-c763-421b-b668-6e687ccfbb9d"
          },
          {
            "reference": "Practitioner/a75d184e-0fed-4991-95fd-402f1e9e46ea"
          },
          {
            "reference": "PractitionerRole/8e27dd14-bfab-4cc5-93a5-580a494ac504"
          },
          {
            "reference": "Organization/90b4112c-373e-43b0-9e35-662475ff3f02"
          }
        ],
        "activity": {
          "text": "Synthetic Example Data Generation"
        },
        "policy": [
          "https://synderai.net/synderai-synthetic-data-policy"
        ],
        "agent": [
          {
            "type": {
              "text": "author"
            },
            "who": {
              "reference": "Device/3ff2cc10-edfb-4c95-835e-86fc2d84c352"
            }
          }
        ],
        "reason": [
          {
            "text": "Interoperability Testing and Training (non-clinical use)"
          }
        ],
        "text": {
          "status": "generated",
          "div": "<div xmlns=\"http://www.w3.org/1999/xhtml\">Provenance for SYNDERAI Synthetic Example Data Resource</div>"
        },
        "recorded": "2021-11-27T03:30:19Z"
      }
    },
    {
      "fullUrl": "urn:uuid:16f3b7ce-c763-421b-b668-6e687ccfbb9d",
      "resource": {
        "resourceType": "PractitionerRole",
        "id": "16f3b7ce-c763-421b-b668-6e687ccfbb9d",
        "meta": {
          "profile": [
            "http://hl7.eu/fhir/base/StructureDefinition/practitionerRole-eu"
          ]
        },
        "text": {
          "status": "generated",
          "div": "<div xmlns=\"http://www.w3.org/1999/xhtml\">Laboratory Role Id: 16f3b7ce-c763-421b-b668-6e687ccfbb9d</div>"
        },
        "practitioner": {
          "reference": "urn:uuid:a75d184e-0fed-4991-95fd-402f1e9e46ea"
        }
      }
    },
    {
      "fullUrl": "urn:uuid:a75d184e-0fed-4991-95fd-402f1e9e46ea",
      "resource": {
        "resourceType": "Practitioner",
        "id": "a75d184e-0fed-4991-95fd-402f1e9e46ea",
        "meta": {
          "profile": [
            "http://hl7.eu/fhir/base/StructureDefinition/practitioner-eu"
          ]
        },
        "identifier": [
          {
            "assigner": {
              "display": "HL7 Europe"
            },
            "system": "urn:oid:2.16.840.1.113883.2.51.999",
            "value": "f60dfdb4-ac33-4703-922c-81aafc773f1f"
          }
        ],
        "name": [
          {
            "prefix": [
              "dr"
            ],
            "given": [
              "Ex"
            ],
            "family": "Ample"
          }
        ],
        "address": [
          {
            "line": [
              "Laboratoire Central Européenne",
              "Boulevard du Jardin Botanique 32"
            ],
            "postalCode": "1000",
            "city": "Brussels",
            "country": "Belgium"
          }
        ],
        "text": {
          "status": "generated",
          "div": "<div xmlns=\"http://www.w3.org/1999/xhtml\">Laboratory: Laboratoire Central Européenne, 1000 Brussels, Belgium</div>"
        }
      }
    }
  ],
  "type": "document",
  "timestamp": "2021-11-27T03:30:19Z"
}
