{
  "resourceType": "Bundle",
  "id": "993f3f67-155e-4a85-b304-a66ead6c0261",
  "meta": {
    "profile": [
      "http://hl7.eu/fhir/laboratory/StructureDefinition/Bundle-eu-lab"
    ]
  },
  "identifier": {
    "assigner": {
      "display": "HL7 Europe"
    },
    "system": "urn:oid:2.16.840.1.113883.2.51.999",
    "value": "86a53782-36e2-43ce-99e6-bfac2e82c4b8"
  },
  "entry": [
    {
      "fullUrl": "urn:uuid:3987003d-6cf8-45a0-b1af-10da2fee23a8",
      "resource": {
        "resourceType": "Composition",
        "id": "3987003d-6cf8-45a0-b1af-10da2fee23a8",
        "meta": {
          "profile": [
            "http://hl7.eu/fhir/laboratory/StructureDefinition/Composition-eu-lab"
          ]
        },
        "identifier": {
          "assigner": {
            "display": "HL7 Europe"
          },
          "system": "urn:oid:2.16.840.1.113883.2.51.999",
          "value": "96bf1b74-c578-42a5-b0f9-d345161e78b1"
        },
        "author": [
          {
            "reference": "urn:uuid:b50bd32f-2ed4-46e1-a0ae-a40daf539e64"
          }
        ],
        "category": [
          {
            "coding": [
              {
                "code": "26436-6",
                "system": "http://loinc.org",
                "display": "Laboratory studies (set)"
              }
            ]
          }
        ],
        "type": {
          "coding": [
            {
              "code": "11502-2",
              "system": "http://loinc.org",
              "display": "Laboratory report"
            }
          ],
          "text": "Laboratory Report"
        },
        "section": [
          {
            "code": {
              "coding": [
                {
                  "code": "26436-6",
                  "system": "http://loinc.org",
                  "display": "Laboratory studies (set)"
                }
              ],
              "text": "Laboratory studies"
            },
            "section": [
              {
                "code": {
                  "coding": [
                    {
                      "code": "$18719-5",
                      "system": "http://loinc.org",
                      "display": "Chemistry studies (set)"
                    }
                  ],
                  "text": "Chemistry"
                },
                "entry": [
                  {
                    "reference": "urn:uuid:5ed023d8-b55a-4466-bb3a-0c9a1a741bf7"
                  },
                  {
                    "reference": "urn:uuid:c62f3ee2-0810-49cb-84e1-1a04b4caa483"
                  },
                  {
                    "reference": "urn:uuid:cf014e23-1bd9-4cdc-87a3-e2be82489398"
                  },
                  {
                    "reference": "urn:uuid:3e7fe53a-f04b-4a1d-96c7-1264eb8d0f09"
                  },
                  {
                    "reference": "urn:uuid:1086c08e-6c74-4f9f-b400-da6268795c5a"
                  },
                  {
                    "reference": "urn:uuid:888938b7-4381-4d06-ad7f-e25b10bed799"
                  },
                  {
                    "reference": "urn:uuid:aa368e74-a085-4516-9591-fe85a67ce0f4"
                  },
                  {
                    "reference": "urn:uuid:dd19a4fb-d8ca-4b12-a64c-0af90f2109b9"
                  },
                  {
                    "reference": "urn:uuid:295c9205-0fe7-46b2-8ea5-6a72fc8ea399"
                  },
                  {
                    "reference": "urn:uuid:8d6acccd-f52e-4868-b115-68fb5c7de5e6"
                  },
                  {
                    "reference": "urn:uuid:c4e0c375-fc70-4569-85fb-277a8240f99b"
                  },
                  {
                    "reference": "urn:uuid:367e3703-00b1-421c-8393-7b46158df78c"
                  },
                  {
                    "reference": "urn:uuid:09cb0fd0-4503-4da4-b8c6-0510ca37b661"
                  },
                  {
                    "reference": "urn:uuid:584dcfc5-202a-4d97-91bc-993e972e6f63"
                  },
                  {
                    "reference": "urn:uuid:7245fe59-677c-4a0d-bc43-8dfac9ab7c82"
                  },
                  {
                    "reference": "urn:uuid:a72f8d7b-22c6-43c5-b678-2a4cf801f0b3"
                  },
                  {
                    "reference": "urn:uuid:0ce9ee1d-d8be-4bee-8e7a-1957a5a99fb2"
                  },
                  {
                    "reference": "urn:uuid:84b3fe36-1014-447a-b99a-3af6546a6455"
                  },
                  {
                    "reference": "urn:uuid:81ec3207-643c-452c-8cd8-100af010b10f"
                  }
                ],
                "text": {
                  "status": "generated",
                  "div": "<div xmlns=\"http://www.w3.org/1999/xhtml\"><h3>Chemistry</h3><table class=\"hl7__eu__lab__report\"><thead><tr><th>Test</th><th>23-SEP-2022</th><th>Reference&#xA0;Range</th><th>Unit</th></tr></thead><tbody><tr><td>Glucose [Mass/volume] in Blood</td><td>88.5</td><td>70 - 140</td><td>mg/dL</td></tr><tr><td>Urea nitrogen [Mass/volume] in Blood</td><td>12.1</td><td>7 - 20</td><td>mg/dL</td></tr><tr><td>Creatinine [Mass/volume] in Blood</td><td><strong>3.0 H</strong></td><td>0.6 - 1.3</td><td>mg/dL</td></tr><tr><td>Calcium [Mass/volume] in Blood</td><td>9.9</td><td>8.5 - 10.5</td><td>mg/dL</td></tr><tr><td>Sodium [Moles/volume] in Blood</td><td>137.3</td><td>135 - 145</td><td>mmol/L</td></tr><tr><td>Potassium [Moles/volume] in Blood</td><td><strong>5.2 H</strong></td><td>3.5 - 5.1</td><td>mmol/L</td></tr><tr><td>Chloride [Moles/volume] in Blood</td><td>102.5</td><td>98 - 108</td><td>mmol/L</td></tr><tr><td>Carbon dioxide, total [Moles/volume] in Blood</td><td><strong>21.6 L</strong></td><td>22 - 32</td><td>mmol/L</td></tr><tr><td>Protein [Mass/volume] in Serum or Plasma</td><td><strong>6.1 L</strong></td><td>6.6 - 8.3</td><td>g/dL</td></tr><tr><td>Albumin [Mass/volume] in Serum or Plasma</td><td>4.9</td><td>3.5 - 5.5</td><td>g/dL</td></tr><tr><td>Globulin [Mass/volume] in Serum by calculation</td><td>2.5</td><td>2 - 3.5</td><td>g/L</td></tr><tr><td>Bilirubin.total [Mass/volume] in Serum or Plasma</td><td>0.3</td><td>0.3 - 1.2</td><td>mg/dL</td></tr><tr><td>Alkaline phosphatase [Enzymatic activity/volume] in Serum or Plasma</td><td><strong>36.0 L</strong></td><td>53 - 130</td><td>U/L</td></tr><tr><td>Alanine aminotransferase [Enzymatic activity/volume] in Serum or Plasma</td><td>28.7</td><td>7 - 60</td><td>U/L</td></tr><tr><td>Aspartate aminotransferase [Enzymatic activity/volume] in Serum or Plasma</td><td>38.7</td><td>10 - 49</td><td>U/L</td></tr><tr><td>Cholesterol [Mass/volume] in Serum or Plasma</td><td>183.8</td><td>125 - 200</td><td>mg/dL</td></tr><tr><td>Triglyceride [Mass/volume] in Serum or Plasma</td><td>113.6</td><td>40 - 150</td><td>mg/dL</td></tr><tr><td>Cholesterol in LDL [Mass/volume] in Serum or Plasma by Direct assay</td><td>90.9</td><td>0 - 190</td><td>mg/dL</td></tr><tr><td>Cholesterol in HDL [Mass/volume] in Serum or Plasma</td><td><strong>37.3 L</strong></td><td>40 - 60</td><td>mg/dL</td></tr></tbody></table></div>"
                },
                "title": "Chemistry"
              }
            ],
            "title": "Laboratory Report"
          },
          {
            "text": {
              "status": "generated",
              "div": "<div xmlns=\"http://www.w3.org/1999/xhtml\"><h3>Annotation</h3><table class=\"hl7__eu__lab__report\"><tr><th>Conclusion and Recommendations based on this report and previous findings known to us</th></tr><tr><td>The patient shows elevated creatinine and potassium, with low total protein, CO₂, HDL cholesterol, and alkaline phosphatase. These findings suggest impaired renal function, possible mild metabolic acidosis, and mild hypoalbuminemia. Liver enzymes are within normal limits. Recommend clinical correlation for renal insufficiency and monitoring of electrolyte and protein status.</td></tr></table></div>"
            },
            "code": {
              "coding": [
                {
                  "system": "http://loinc.org",
                  "code": "48767-8",
                  "display": "Annotation comment"
                }
              ]
            },
            "title": "Annotation comment"
          }
        ],
        "status": "final",
        "subject": {
          "reference": "urn:uuid:7697f258-a42b-4eff-8881-d17140e73687",
          "display": "Leonhard Köhler"
        },
        "date": "2022-09-23T04:48:23Z",
        "title": "Laboratory Report",
        "confidentiality": "N"
      }
    },
    {
      "fullUrl": "urn:uuid:e2d4a6e2-4d0a-4f43-8506-ffe89e0c117f",
      "resource": {
        "resourceType": "DiagnosticReport",
        "id": "e2d4a6e2-4d0a-4f43-8506-ffe89e0c117f",
        "meta": {
          "profile": [
            "http://hl7.eu/fhir/laboratory/StructureDefinition/DiagnosticReport-eu-lab"
          ]
        },
        "identifier": [
          {
            "assigner": {
              "display": "HL7 Europe"
            },
            "system": "urn:oid:2.16.840.1.113883.2.51.999",
            "value": "d1c0db7e-20ab-459d-9fc9-3271ced9cf8b"
          }
        ],
        "extension": [
          {
            "url": "http://hl7.org/fhir/5.0/StructureDefinition/extension-DiagnosticReport.composition",
            "valueReference": {
              "reference": "urn:uuid:96bf1b74-c578-42a5-b0f9-d345161e78b1"
            }
          }
        ],
        "category": [
          {
            "coding": [
              {
                "code": "26436-6",
                "system": "http://loinc.org",
                "display": "Laboratory studies (set)"
              }
            ]
          }
        ],
        "specimen": [
          {
            "reference": "urn:uuid:c612a915-2d64-474d-8b89-fb00e3755cc2"
          },
          {
            "reference": "urn:uuid:6c2cc9a5-dd31-49f0-9894-8a3bc441adc1"
          },
          {
            "reference": "urn:uuid:1dac04d6-5833-433d-9a2f-44900f0cf09e"
          }
        ],
        "result": [
          {
            "reference": "urn:uuid:5ed023d8-b55a-4466-bb3a-0c9a1a741bf7"
          },
          {
            "reference": "urn:uuid:c62f3ee2-0810-49cb-84e1-1a04b4caa483"
          },
          {
            "reference": "urn:uuid:cf014e23-1bd9-4cdc-87a3-e2be82489398"
          },
          {
            "reference": "urn:uuid:3e7fe53a-f04b-4a1d-96c7-1264eb8d0f09"
          },
          {
            "reference": "urn:uuid:1086c08e-6c74-4f9f-b400-da6268795c5a"
          },
          {
            "reference": "urn:uuid:888938b7-4381-4d06-ad7f-e25b10bed799"
          },
          {
            "reference": "urn:uuid:aa368e74-a085-4516-9591-fe85a67ce0f4"
          },
          {
            "reference": "urn:uuid:dd19a4fb-d8ca-4b12-a64c-0af90f2109b9"
          },
          {
            "reference": "urn:uuid:295c9205-0fe7-46b2-8ea5-6a72fc8ea399"
          },
          {
            "reference": "urn:uuid:8d6acccd-f52e-4868-b115-68fb5c7de5e6"
          },
          {
            "reference": "urn:uuid:c4e0c375-fc70-4569-85fb-277a8240f99b"
          },
          {
            "reference": "urn:uuid:367e3703-00b1-421c-8393-7b46158df78c"
          },
          {
            "reference": "urn:uuid:09cb0fd0-4503-4da4-b8c6-0510ca37b661"
          },
          {
            "reference": "urn:uuid:584dcfc5-202a-4d97-91bc-993e972e6f63"
          },
          {
            "reference": "urn:uuid:7245fe59-677c-4a0d-bc43-8dfac9ab7c82"
          },
          {
            "reference": "urn:uuid:a72f8d7b-22c6-43c5-b678-2a4cf801f0b3"
          },
          {
            "reference": "urn:uuid:0ce9ee1d-d8be-4bee-8e7a-1957a5a99fb2"
          },
          {
            "reference": "urn:uuid:84b3fe36-1014-447a-b99a-3af6546a6455"
          },
          {
            "reference": "urn:uuid:81ec3207-643c-452c-8cd8-100af010b10f"
          }
        ],
        "status": "registered",
        "code": {
          "coding": [
            {
              "code": "11502-2",
              "system": "http://loinc.org",
              "display": "Laboratory report"
            }
          ]
        },
        "subject": {
          "reference": "urn:uuid:7697f258-a42b-4eff-8881-d17140e73687",
          "display": "Leonhard Köhler"
        }
      }
    },
    {
      "fullUrl": "urn:uuid:7697f258-a42b-4eff-8881-d17140e73687",
      "resource": {
        "resourceType": "Patient",
        "id": "7697f258-a42b-4eff-8881-d17140e73687",
        "meta": {
          "security": [
            {
              "system": "http://terminology.hl7.org/CodeSystem/v3-ActReason",
              "code": "HTEST"
            },
            {
              "system": "http://terminology.hl7.org/CodeSystem/v3-ActReason",
              "code": "TRAIN"
            }
          ],
          "tag": [
            {
              "system": "https://synderai.net/fhir/CodeSystem/tags",
              "code": "synthetic",
              "display": "SYNDERAI Synthetic data"
            }
          ],
          "profile": [
            "http://hl7.eu/fhir/base/StructureDefinition/patient-eu-core"
          ]
        },
        "identifier": [
          {
            "type": {
              "coding": [
                {
                  "code": "PT",
                  "system": "http://terminology.hl7.org/CodeSystem/v2-0203"
                }
              ]
            },
            "system": "http://ec.europa.eu/identifier/eci",
            "value": "5321-442678-4"
          },
          {
            "type": {
              "coding": [
                {
                  "code": "MR",
                  "system": "http://terminology.hl7.org/CodeSystem/v2-0203"
                }
              ]
            },
            "system": "http://local.setting.eu/identifier",
            "value": "ffa9f0d8-c016-d46c-e666-000f53715b47"
          }
        ],
        "name": [
          {
            "family": "Köhler"
          },
          {
            "given": [
              "Leonhard"
            ]
          },
          {
            "text": "Leonhard Köhler"
          }
        ],
        "address": [
          {
            "line": [
              "Henckweg 97/34"
            ],
            "use": "home",
            "type": "physical",
            "postalCode": "87629",
            "city": "Füssen",
            "country": "Germany"
          }
        ],
        "telecom": [
          {
            "system": "phone",
            "value": "00028839855"
          }
        ],
        "extension": [
          {
            "url": "http://hl7.org/fhir/StructureDefinition/patient-nationality",
            "valueCodeableConcept": {
              "coding": [
                {
                  "code": "DE",
                  "system": "http://hl7.org/fhir/ValueSet/country"
                }
              ]
            }
          }
        ],
        "text": {
          "status": "generated",
          "div": "<div xmlns=\"http://www.w3.org/1999/xhtml\"><table class=\"hl7__ips\"><tr><td>Leonhard Köhler</td><td>male</td><td>19-Dec-1949</td></tr></table></div>"
        },
        "gender": "male",
        "birthDate": "1949-12-19"
      }
    },
    {
      "fullUrl": "urn:uuid:44378590-4bf4-4893-a496-45f24bcdc292",
      "resource": {
        "resourceType": "ServiceRequest",
        "id": "44378590-4bf4-4893-a496-45f24bcdc292",
        "meta": {
          "profile": [
            "http://hl7.eu/fhir/laboratory/StructureDefinition/ServiceRequest-eu-lab"
          ]
        },
        "identifier": [
          {
            "system": "http://example.org",
            "value": "09da39ec-9d86-4d61-bcb6-25658898e699"
          }
        ],
        "specimen": [
          {
            "reference": "urn:uuid:c612a915-2d64-474d-8b89-fb00e3755cc2"
          },
          {
            "reference": "urn:uuid:6c2cc9a5-dd31-49f0-9894-8a3bc441adc1"
          },
          {
            "reference": "urn:uuid:1dac04d6-5833-433d-9a2f-44900f0cf09e"
          }
        ],
        "reasonCode": [
          {
            "coding": [
              {
                "code": "55822004",
                "system": "http://snomed.info/sct",
                "display": "Hyperlipidemia"
              }
            ]
          },
          {
            "coding": [
              {
                "code": "414545008",
                "system": "http://snomed.info/sct",
                "display": "Ischemic heart disease"
              }
            ]
          },
          {
            "coding": [
              {
                "code": "59621000",
                "system": "http://snomed.info/sct",
                "display": "Essential hypertension"
              }
            ]
          },
          {
            "coding": [
              {
                "code": "239873007",
                "system": "http://snomed.info/sct",
                "display": "Osteoarthritis of knee"
              }
            ]
          },
          {
            "coding": [
              {
                "code": "271737000",
                "system": "http://snomed.info/sct",
                "display": "Anemia"
              }
            ]
          },
          {
            "coding": [
              {
                "code": "15777000",
                "system": "http://snomed.info/sct",
                "display": "Prediabetes"
              }
            ]
          }
        ],
        "status": "active",
        "intent": "order",
        "code": {
          "coding": [
            {
              "code": "108252007",
              "system": "http://snomed.info/sct",
              "display": "Laboratory procedure"
            }
          ]
        },
        "subject": {
          "reference": "urn:uuid:7697f258-a42b-4eff-8881-d17140e73687",
          "display": "Leonhard Köhler"
        },
        "requester": {
          "reference": "urn:uuid:718bdf1b-9c06-4f79-ae5c-40b69c409e5b"
        }
      }
    },
    {
      "fullUrl": "urn:uuid:718bdf1b-9c06-4f79-ae5c-40b69c409e5b",
      "resource": {
        "resourceType": "PractitionerRole",
        "id": "718bdf1b-9c06-4f79-ae5c-40b69c409e5b",
        "meta": {
          "profile": [
            "http://hl7.eu/fhir/base/StructureDefinition/practitionerRole-eu"
          ]
        },
        "text": {
          "status": "generated",
          "div": "<div xmlns=\"http://www.w3.org/1999/xhtml\">Provider Role Id: 718bdf1b-9c06-4f79-ae5c-40b69c409e5b</div>"
        },
        "organization": {
          "reference": "urn:uuid:29e84e7c-1bfd-4784-bfd6-62dc02adb5cf"
        }
      }
    },
    {
      "fullUrl": "urn:uuid:29e84e7c-1bfd-4784-bfd6-62dc02adb5cf",
      "resource": {
        "resourceType": "Organization",
        "id": "29e84e7c-1bfd-4784-bfd6-62dc02adb5cf",
        "meta": {
          "profile": [
            "http://hl7.eu/fhir/base/StructureDefinition/organization-eu"
          ]
        },
        "identifier": [
          {
            "assigner": {
              "display": "HL7 Europe"
            },
            "system": "urn:oid:2.16.840.1.113883.2.51.999",
            "value": "4912516c-9f97-4be8-a673-febf37b6e7ad"
          }
        ],
        "address": [
          {
            "line": [
              "Feistlestraße 2"
            ],
            "city": "Füssen",
            "postalCode": "87629",
            "country": "Germany"
          }
        ],
        "text": {
          "status": "generated",
          "div": "<div xmlns=\"http://www.w3.org/1999/xhtml\">Provider Organization: hier ist kein Ärztehaus</div>"
        },
        "name": "hier ist kein Ärztehaus"
      }
    },
    {
      "fullUrl": "urn:uuid:c612a915-2d64-474d-8b89-fb00e3755cc2",
      "resource": {
        "resourceType": "Specimen",
        "id": "c612a915-2d64-474d-8b89-fb00e3755cc2",
        "meta": {
          "profile": [
            "http://hl7.eu/fhir/laboratory/StructureDefinition/Specimen-eu-lab"
          ]
        },
        "collection": {
          "collectedDateTime": "2022-09-23"
        },
        "text": {
          "status": "generated",
          "div": "<div xmlns=\"http://www.w3.org/1999/xhtml\"><table class=\"hl7__eu__lab__report\"><tr><th>Specimen</th><th>Collection Date</th></tr><tr><td>Whole blood specimen (specimen)</td><td><span class=\"nb\">23-Sep-2022</span></td></tr></table></div>"
        },
        "type": {
          "coding": [
            {
              "code": "258580003",
              "system": "http://snomed.info/sct",
              "display": "Whole blood specimen (specimen)"
            }
          ]
        }
      }
    },
    {
      "fullUrl": "urn:uuid:6c2cc9a5-dd31-49f0-9894-8a3bc441adc1",
      "resource": {
        "resourceType": "Specimen",
        "id": "6c2cc9a5-dd31-49f0-9894-8a3bc441adc1",
        "meta": {
          "profile": [
            "http://hl7.eu/fhir/laboratory/StructureDefinition/Specimen-eu-lab"
          ]
        },
        "collection": {
          "collectedDateTime": "2022-09-23"
        },
        "text": {
          "status": "generated",
          "div": "<div xmlns=\"http://www.w3.org/1999/xhtml\"><table class=\"hl7__eu__lab__report\"><tr><th>Specimen</th><th>Collection Date</th></tr><tr><td>Acellular blood (serum or plasma) specimen</td><td><span class=\"nb\">23-Sep-2022</span></td></tr></table></div>"
        },
        "type": {
          "coding": [
            {
              "code": "122592007",
              "system": "http://snomed.info/sct",
              "display": "Acellular blood (serum or plasma) specimen"
            }
          ]
        }
      }
    },
    {
      "fullUrl": "urn:uuid:1dac04d6-5833-433d-9a2f-44900f0cf09e",
      "resource": {
        "resourceType": "Specimen",
        "id": "1dac04d6-5833-433d-9a2f-44900f0cf09e",
        "meta": {
          "profile": [
            "http://hl7.eu/fhir/laboratory/StructureDefinition/Specimen-eu-lab"
          ]
        },
        "collection": {
          "collectedDateTime": "2022-09-23"
        },
        "text": {
          "status": "generated",
          "div": "<div xmlns=\"http://www.w3.org/1999/xhtml\"><table class=\"hl7__eu__lab__report\"><tr><th>Specimen</th><th>Collection Date</th></tr><tr><td>Serum specimen</td><td><span class=\"nb\">23-Sep-2022</span></td></tr></table></div>"
        },
        "type": {
          "coding": [
            {
              "code": "119364003",
              "system": "http://snomed.info/sct",
              "display": "Serum specimen"
            }
          ]
        }
      }
    },
    {
      "fullUrl": "urn:uuid:5ed023d8-b55a-4466-bb3a-0c9a1a741bf7",
      "resource": {
        "resourceType": "Observation",
        "id": "5ed023d8-b55a-4466-bb3a-0c9a1a741bf7",
        "meta": {
          "profile": [
            "http://hl7.eu/fhir/laboratory/StructureDefinition/Observation-resultslab-eu-lab"
          ]
        },
        "performer": [
          {
            "display": "The Central European Lab"
          }
        ],
        "category": [
          {
            "coding": [
              {
                "system": "http://terminology.hl7.org/CodeSystem/observation-category",
                "code": "laboratory"
              }
            ]
          }
        ],
        "code": {
          "coding": [
            {
              "code": "2339-0",
              "system": "http://loinc.org",
              "display": "Glucose [Mass/volume] in Blood"
            }
          ],
          "text": "Glucose [Mass/volume] in Blood"
        },
        "valueQuantity": {
          "system": "http://unitsofmeasure.org",
          "value": 88.5,
          "unit": "mg/dL",
          "code": "mg/dL"
        },
        "referenceRange": [
          {
            "low": {
              "value": 70,
              "code": "mg/dL",
              "system": "http://unitsofmeasure.org"
            }
          },
          {
            "high": {
              "value": 140,
              "code": "mg/dL",
              "system": "http://unitsofmeasure.org"
            }
          }
        ],
        "text": {
          "status": "generated",
          "div": "<div xmlns=\"http://www.w3.org/1999/xhtml\"><table class=\"hl7__eu__lab__report\"><tr><th>Test</th><th>23-Sep-2022</th><th>Reference&#xA0;Range</th><th>Unit</th></tr><tr><td>Glucose [Mass/volume] in Blood</td><td>88.5</td><td>70 - 140</td><td></td><td>mg/dL</td></tr></table></div>"
        },
        "status": "final",
        "subject": {
          "reference": "urn:uuid:7697f258-a42b-4eff-8881-d17140e73687",
          "display": "Leonhard Köhler"
        },
        "effectiveDateTime": "2022-09-23T02:48:23Z",
        "specimen": {
          "reference": "urn:uuid:c612a915-2d64-474d-8b89-fb00e3755cc2"
        }
      }
    },
    {
      "fullUrl": "urn:uuid:c62f3ee2-0810-49cb-84e1-1a04b4caa483",
      "resource": {
        "resourceType": "Observation",
        "id": "c62f3ee2-0810-49cb-84e1-1a04b4caa483",
        "meta": {
          "profile": [
            "http://hl7.eu/fhir/laboratory/StructureDefinition/Observation-resultslab-eu-lab"
          ]
        },
        "performer": [
          {
            "display": "The Central European Lab"
          }
        ],
        "category": [
          {
            "coding": [
              {
                "system": "http://terminology.hl7.org/CodeSystem/observation-category",
                "code": "laboratory"
              }
            ]
          }
        ],
        "code": {
          "coding": [
            {
              "code": "6299-2",
              "system": "http://loinc.org",
              "display": "Urea nitrogen [Mass/volume] in Blood"
            }
          ],
          "text": "Urea nitrogen [Mass/volume] in Blood"
        },
        "valueQuantity": {
          "system": "http://unitsofmeasure.org",
          "value": 12.1,
          "unit": "mg/dL",
          "code": "mg/dL"
        },
        "referenceRange": [
          {
            "low": {
              "value": 7,
              "code": "mg/dL",
              "system": "http://unitsofmeasure.org"
            }
          },
          {
            "high": {
              "value": 20,
              "code": "mg/dL",
              "system": "http://unitsofmeasure.org"
            }
          }
        ],
        "text": {
          "status": "generated",
          "div": "<div xmlns=\"http://www.w3.org/1999/xhtml\"><table class=\"hl7__eu__lab__report\"><tr><th>Test</th><th>23-Sep-2022</th><th>Reference&#xA0;Range</th><th>Unit</th></tr><tr><td>Urea nitrogen [Mass/volume] in Blood</td><td>12.1</td><td>7 - 20</td><td></td><td>mg/dL</td></tr></table></div>"
        },
        "status": "final",
        "subject": {
          "reference": "urn:uuid:7697f258-a42b-4eff-8881-d17140e73687",
          "display": "Leonhard Köhler"
        },
        "effectiveDateTime": "2022-09-23T02:48:23Z",
        "specimen": {
          "reference": "urn:uuid:c612a915-2d64-474d-8b89-fb00e3755cc2"
        }
      }
    },
    {
      "fullUrl": "urn:uuid:cf014e23-1bd9-4cdc-87a3-e2be82489398",
      "resource": {
        "resourceType": "Observation",
        "id": "cf014e23-1bd9-4cdc-87a3-e2be82489398",
        "meta": {
          "profile": [
            "http://hl7.eu/fhir/laboratory/StructureDefinition/Observation-resultslab-eu-lab"
          ]
        },
        "performer": [
          {
            "display": "The Central European Lab"
          }
        ],
        "category": [
          {
            "coding": [
              {
                "system": "http://terminology.hl7.org/CodeSystem/observation-category",
                "code": "laboratory"
              }
            ]
          }
        ],
        "code": {
          "coding": [
            {
              "code": "38483-4",
              "system": "http://loinc.org",
              "display": "Creatinine [Mass/volume] in Blood"
            }
          ],
          "text": "Creatinine [Mass/volume] in Blood"
        },
        "valueQuantity": {
          "system": "http://unitsofmeasure.org",
          "value": 3,
          "unit": "mg/dL",
          "code": "mg/dL"
        },
        "referenceRange": [
          {
            "low": {
              "value": 0.6,
              "code": "mg/dL",
              "system": "http://unitsofmeasure.org"
            }
          },
          {
            "high": {
              "value": 1.3,
              "code": "mg/dL",
              "system": "http://unitsofmeasure.org"
            }
          }
        ],
        "interpretation": [
          {
            "coding": [
              {
                "code": "H",
                "system": "http://terminology.hl7.org/CodeSystem/v3-ObservationInterpretation",
                "display": "High"
              }
            ]
          }
        ],
        "text": {
          "status": "generated",
          "div": "<div xmlns=\"http://www.w3.org/1999/xhtml\"><table class=\"hl7__eu__lab__report\"><tr><th>Test</th><th>23-Sep-2022</th><th>Reference&#xA0;Range</th><th>Unit</th></tr><tr><td>Creatinine [Mass/volume] in Blood</td><td>3.0</td><td>0.6 - 1.3</td><td>H</td><td>mg/dL</td></tr></table></div>"
        },
        "status": "final",
        "subject": {
          "reference": "urn:uuid:7697f258-a42b-4eff-8881-d17140e73687",
          "display": "Leonhard Köhler"
        },
        "effectiveDateTime": "2022-09-23T02:48:23Z",
        "specimen": {
          "reference": "urn:uuid:c612a915-2d64-474d-8b89-fb00e3755cc2"
        }
      }
    },
    {
      "fullUrl": "urn:uuid:3e7fe53a-f04b-4a1d-96c7-1264eb8d0f09",
      "resource": {
        "resourceType": "Observation",
        "id": "3e7fe53a-f04b-4a1d-96c7-1264eb8d0f09",
        "meta": {
          "profile": [
            "http://hl7.eu/fhir/laboratory/StructureDefinition/Observation-resultslab-eu-lab"
          ]
        },
        "performer": [
          {
            "display": "The Central European Lab"
          }
        ],
        "category": [
          {
            "coding": [
              {
                "system": "http://terminology.hl7.org/CodeSystem/observation-category",
                "code": "laboratory"
              }
            ]
          }
        ],
        "code": {
          "coding": [
            {
              "code": "49765-1",
              "system": "http://loinc.org",
              "display": "Calcium [Mass/volume] in Blood"
            }
          ],
          "text": "Calcium [Mass/volume] in Blood"
        },
        "valueQuantity": {
          "system": "http://unitsofmeasure.org",
          "value": 9.9,
          "unit": "mg/dL",
          "code": "mg/dL"
        },
        "referenceRange": [
          {
            "low": {
              "value": 8.5,
              "code": "mg/dL",
              "system": "http://unitsofmeasure.org"
            }
          },
          {
            "high": {
              "value": 10.5,
              "code": "mg/dL",
              "system": "http://unitsofmeasure.org"
            }
          }
        ],
        "text": {
          "status": "generated",
          "div": "<div xmlns=\"http://www.w3.org/1999/xhtml\"><table class=\"hl7__eu__lab__report\"><tr><th>Test</th><th>23-Sep-2022</th><th>Reference&#xA0;Range</th><th>Unit</th></tr><tr><td>Calcium [Mass/volume] in Blood</td><td>9.9</td><td>8.5 - 10.5</td><td></td><td>mg/dL</td></tr></table></div>"
        },
        "status": "final",
        "subject": {
          "reference": "urn:uuid:7697f258-a42b-4eff-8881-d17140e73687",
          "display": "Leonhard Köhler"
        },
        "effectiveDateTime": "2022-09-23T02:48:23Z",
        "specimen": {
          "reference": "urn:uuid:c612a915-2d64-474d-8b89-fb00e3755cc2"
        }
      }
    },
    {
      "fullUrl": "urn:uuid:1086c08e-6c74-4f9f-b400-da6268795c5a",
      "resource": {
        "resourceType": "Observation",
        "id": "1086c08e-6c74-4f9f-b400-da6268795c5a",
        "meta": {
          "profile": [
            "http://hl7.eu/fhir/laboratory/StructureDefinition/Observation-resultslab-eu-lab"
          ]
        },
        "performer": [
          {
            "display": "The Central European Lab"
          }
        ],
        "category": [
          {
            "coding": [
              {
                "system": "http://terminology.hl7.org/CodeSystem/observation-category",
                "code": "laboratory"
              }
            ]
          }
        ],
        "code": {
          "coding": [
            {
              "code": "2947-0",
              "system": "http://loinc.org",
              "display": "Sodium [Moles/volume] in Blood"
            }
          ],
          "text": "Sodium [Moles/volume] in Blood"
        },
        "valueQuantity": {
          "system": "http://unitsofmeasure.org",
          "value": 137.3,
          "unit": "mmol/L",
          "code": "mmol/L"
        },
        "referenceRange": [
          {
            "low": {
              "value": 135,
              "code": "mmol/L",
              "system": "http://unitsofmeasure.org"
            }
          },
          {
            "high": {
              "value": 145,
              "code": "mmol/L",
              "system": "http://unitsofmeasure.org"
            }
          }
        ],
        "text": {
          "status": "generated",
          "div": "<div xmlns=\"http://www.w3.org/1999/xhtml\"><table class=\"hl7__eu__lab__report\"><tr><th>Test</th><th>23-Sep-2022</th><th>Reference&#xA0;Range</th><th>Unit</th></tr><tr><td>Sodium [Moles/volume] in Blood</td><td>137.3</td><td>135 - 145</td><td></td><td>mmol/L</td></tr></table></div>"
        },
        "status": "final",
        "subject": {
          "reference": "urn:uuid:7697f258-a42b-4eff-8881-d17140e73687",
          "display": "Leonhard Köhler"
        },
        "effectiveDateTime": "2022-09-23T02:48:23Z",
        "specimen": {
          "reference": "urn:uuid:c612a915-2d64-474d-8b89-fb00e3755cc2"
        }
      }
    },
    {
      "fullUrl": "urn:uuid:888938b7-4381-4d06-ad7f-e25b10bed799",
      "resource": {
        "resourceType": "Observation",
        "id": "888938b7-4381-4d06-ad7f-e25b10bed799",
        "meta": {
          "profile": [
            "http://hl7.eu/fhir/laboratory/StructureDefinition/Observation-resultslab-eu-lab"
          ]
        },
        "performer": [
          {
            "display": "The Central European Lab"
          }
        ],
        "category": [
          {
            "coding": [
              {
                "system": "http://terminology.hl7.org/CodeSystem/observation-category",
                "code": "laboratory"
              }
            ]
          }
        ],
        "code": {
          "coding": [
            {
              "code": "6298-4",
              "system": "http://loinc.org",
              "display": "Potassium [Moles/volume] in Blood"
            }
          ],
          "text": "Potassium [Moles/volume] in Blood"
        },
        "valueQuantity": {
          "system": "http://unitsofmeasure.org",
          "value": 5.2,
          "unit": "mmol/L",
          "code": "mmol/L"
        },
        "referenceRange": [
          {
            "low": {
              "value": 3.5,
              "code": "mmol/L",
              "system": "http://unitsofmeasure.org"
            }
          },
          {
            "high": {
              "value": 5.1,
              "code": "mmol/L",
              "system": "http://unitsofmeasure.org"
            }
          }
        ],
        "interpretation": [
          {
            "coding": [
              {
                "code": "H",
                "system": "http://terminology.hl7.org/CodeSystem/v3-ObservationInterpretation",
                "display": "High"
              }
            ]
          }
        ],
        "text": {
          "status": "generated",
          "div": "<div xmlns=\"http://www.w3.org/1999/xhtml\"><table class=\"hl7__eu__lab__report\"><tr><th>Test</th><th>23-Sep-2022</th><th>Reference&#xA0;Range</th><th>Unit</th></tr><tr><td>Potassium [Moles/volume] in Blood</td><td>5.2</td><td>3.5 - 5.1</td><td>H</td><td>mmol/L</td></tr></table></div>"
        },
        "status": "final",
        "subject": {
          "reference": "urn:uuid:7697f258-a42b-4eff-8881-d17140e73687",
          "display": "Leonhard Köhler"
        },
        "effectiveDateTime": "2022-09-23T02:48:23Z",
        "specimen": {
          "reference": "urn:uuid:c612a915-2d64-474d-8b89-fb00e3755cc2"
        }
      }
    },
    {
      "fullUrl": "urn:uuid:aa368e74-a085-4516-9591-fe85a67ce0f4",
      "resource": {
        "resourceType": "Observation",
        "id": "aa368e74-a085-4516-9591-fe85a67ce0f4",
        "meta": {
          "profile": [
            "http://hl7.eu/fhir/laboratory/StructureDefinition/Observation-resultslab-eu-lab"
          ]
        },
        "performer": [
          {
            "display": "The Central European Lab"
          }
        ],
        "category": [
          {
            "coding": [
              {
                "system": "http://terminology.hl7.org/CodeSystem/observation-category",
                "code": "laboratory"
              }
            ]
          }
        ],
        "code": {
          "coding": [
            {
              "code": "2069-3",
              "system": "http://loinc.org",
              "display": "Chloride [Moles/volume] in Blood"
            }
          ],
          "text": "Chloride [Moles/volume] in Blood"
        },
        "valueQuantity": {
          "system": "http://unitsofmeasure.org",
          "value": 102.5,
          "unit": "mmol/L",
          "code": "mmol/L"
        },
        "referenceRange": [
          {
            "low": {
              "value": 98,
              "code": "mmol/L",
              "system": "http://unitsofmeasure.org"
            }
          },
          {
            "high": {
              "value": 108,
              "code": "mmol/L",
              "system": "http://unitsofmeasure.org"
            }
          }
        ],
        "text": {
          "status": "generated",
          "div": "<div xmlns=\"http://www.w3.org/1999/xhtml\"><table class=\"hl7__eu__lab__report\"><tr><th>Test</th><th>23-Sep-2022</th><th>Reference&#xA0;Range</th><th>Unit</th></tr><tr><td>Chloride [Moles/volume] in Blood</td><td>102.5</td><td>98 - 108</td><td></td><td>mmol/L</td></tr></table></div>"
        },
        "status": "final",
        "subject": {
          "reference": "urn:uuid:7697f258-a42b-4eff-8881-d17140e73687",
          "display": "Leonhard Köhler"
        },
        "effectiveDateTime": "2022-09-23T02:48:23Z",
        "specimen": {
          "reference": "urn:uuid:c612a915-2d64-474d-8b89-fb00e3755cc2"
        }
      }
    },
    {
      "fullUrl": "urn:uuid:dd19a4fb-d8ca-4b12-a64c-0af90f2109b9",
      "resource": {
        "resourceType": "Observation",
        "id": "dd19a4fb-d8ca-4b12-a64c-0af90f2109b9",
        "meta": {
          "profile": [
            "http://hl7.eu/fhir/laboratory/StructureDefinition/Observation-resultslab-eu-lab"
          ]
        },
        "performer": [
          {
            "display": "The Central European Lab"
          }
        ],
        "category": [
          {
            "coding": [
              {
                "system": "http://terminology.hl7.org/CodeSystem/observation-category",
                "code": "laboratory"
              }
            ]
          }
        ],
        "code": {
          "coding": [
            {
              "code": "20565-8",
              "system": "http://loinc.org",
              "display": "Carbon dioxide, total [Moles/volume] in Blood"
            }
          ],
          "text": "Carbon dioxide, total [Moles/volume] in Blood"
        },
        "valueQuantity": {
          "system": "http://unitsofmeasure.org",
          "value": 21.6,
          "unit": "mmol/L",
          "code": "mmol/L"
        },
        "referenceRange": [
          {
            "low": {
              "value": 22,
              "code": "mmol/L",
              "system": "http://unitsofmeasure.org"
            }
          },
          {
            "high": {
              "value": 32,
              "code": "mmol/L",
              "system": "http://unitsofmeasure.org"
            }
          }
        ],
        "interpretation": [
          {
            "coding": [
              {
                "code": "L",
                "system": "http://terminology.hl7.org/CodeSystem/v3-ObservationInterpretation",
                "display": "Low"
              }
            ]
          }
        ],
        "text": {
          "status": "generated",
          "div": "<div xmlns=\"http://www.w3.org/1999/xhtml\"><table class=\"hl7__eu__lab__report\"><tr><th>Test</th><th>23-Sep-2022</th><th>Reference&#xA0;Range</th><th>Unit</th></tr><tr><td>Carbon dioxide, total [Moles/volume] in Blood</td><td>21.6</td><td>22 - 32</td><td>L</td><td>mmol/L</td></tr></table></div>"
        },
        "status": "final",
        "subject": {
          "reference": "urn:uuid:7697f258-a42b-4eff-8881-d17140e73687",
          "display": "Leonhard Köhler"
        },
        "effectiveDateTime": "2022-09-23T02:48:23Z",
        "specimen": {
          "reference": "urn:uuid:c612a915-2d64-474d-8b89-fb00e3755cc2"
        }
      }
    },
    {
      "fullUrl": "urn:uuid:295c9205-0fe7-46b2-8ea5-6a72fc8ea399",
      "resource": {
        "resourceType": "Observation",
        "id": "295c9205-0fe7-46b2-8ea5-6a72fc8ea399",
        "meta": {
          "profile": [
            "http://hl7.eu/fhir/laboratory/StructureDefinition/Observation-resultslab-eu-lab"
          ]
        },
        "performer": [
          {
            "display": "The Central European Lab"
          }
        ],
        "category": [
          {
            "coding": [
              {
                "system": "http://terminology.hl7.org/CodeSystem/observation-category",
                "code": "laboratory"
              }
            ]
          }
        ],
        "code": {
          "coding": [
            {
              "code": "2885-2",
              "system": "http://loinc.org",
              "display": "Protein [Mass/volume] in Serum or Plasma"
            }
          ],
          "text": "Protein [Mass/volume] in Serum or Plasma"
        },
        "valueQuantity": {
          "system": "http://unitsofmeasure.org",
          "value": 6.1,
          "unit": "g/dL",
          "code": "g/dL"
        },
        "referenceRange": [
          {
            "low": {
              "value": 6.6,
              "code": "g/dL",
              "system": "http://unitsofmeasure.org"
            }
          },
          {
            "high": {
              "value": 8.3,
              "code": "g/dL",
              "system": "http://unitsofmeasure.org"
            }
          }
        ],
        "interpretation": [
          {
            "coding": [
              {
                "code": "L",
                "system": "http://terminology.hl7.org/CodeSystem/v3-ObservationInterpretation",
                "display": "Low"
              }
            ]
          }
        ],
        "text": {
          "status": "generated",
          "div": "<div xmlns=\"http://www.w3.org/1999/xhtml\"><table class=\"hl7__eu__lab__report\"><tr><th>Test</th><th>23-Sep-2022</th><th>Reference&#xA0;Range</th><th>Unit</th></tr><tr><td>Protein [Mass/volume] in Serum or Plasma</td><td>6.1</td><td>6.6 - 8.3</td><td>L</td><td>g/dL</td></tr></table></div>"
        },
        "status": "final",
        "subject": {
          "reference": "urn:uuid:7697f258-a42b-4eff-8881-d17140e73687",
          "display": "Leonhard Köhler"
        },
        "effectiveDateTime": "2022-09-23T02:48:23Z",
        "specimen": {
          "reference": "urn:uuid:6c2cc9a5-dd31-49f0-9894-8a3bc441adc1"
        }
      }
    },
    {
      "fullUrl": "urn:uuid:8d6acccd-f52e-4868-b115-68fb5c7de5e6",
      "resource": {
        "resourceType": "Observation",
        "id": "8d6acccd-f52e-4868-b115-68fb5c7de5e6",
        "meta": {
          "profile": [
            "http://hl7.eu/fhir/laboratory/StructureDefinition/Observation-resultslab-eu-lab"
          ]
        },
        "performer": [
          {
            "display": "The Central European Lab"
          }
        ],
        "category": [
          {
            "coding": [
              {
                "system": "http://terminology.hl7.org/CodeSystem/observation-category",
                "code": "laboratory"
              }
            ]
          }
        ],
        "code": {
          "coding": [
            {
              "code": "1751-7",
              "system": "http://loinc.org",
              "display": "Albumin [Mass/volume] in Serum or Plasma"
            }
          ],
          "text": "Albumin [Mass/volume] in Serum or Plasma"
        },
        "valueQuantity": {
          "system": "http://unitsofmeasure.org",
          "value": 4.9,
          "unit": "g/dL",
          "code": "g/dL"
        },
        "referenceRange": [
          {
            "low": {
              "value": 3.5,
              "code": "g/dL",
              "system": "http://unitsofmeasure.org"
            }
          },
          {
            "high": {
              "value": 5.5,
              "code": "g/dL",
              "system": "http://unitsofmeasure.org"
            }
          }
        ],
        "text": {
          "status": "generated",
          "div": "<div xmlns=\"http://www.w3.org/1999/xhtml\"><table class=\"hl7__eu__lab__report\"><tr><th>Test</th><th>23-Sep-2022</th><th>Reference&#xA0;Range</th><th>Unit</th></tr><tr><td>Albumin [Mass/volume] in Serum or Plasma</td><td>4.9</td><td>3.5 - 5.5</td><td></td><td>g/dL</td></tr></table></div>"
        },
        "status": "final",
        "subject": {
          "reference": "urn:uuid:7697f258-a42b-4eff-8881-d17140e73687",
          "display": "Leonhard Köhler"
        },
        "effectiveDateTime": "2022-09-23T02:48:23Z",
        "specimen": {
          "reference": "urn:uuid:6c2cc9a5-dd31-49f0-9894-8a3bc441adc1"
        }
      }
    },
    {
      "fullUrl": "urn:uuid:c4e0c375-fc70-4569-85fb-277a8240f99b",
      "resource": {
        "resourceType": "Observation",
        "id": "c4e0c375-fc70-4569-85fb-277a8240f99b",
        "meta": {
          "profile": [
            "http://hl7.eu/fhir/laboratory/StructureDefinition/Observation-resultslab-eu-lab"
          ]
        },
        "performer": [
          {
            "display": "The Central European Lab"
          }
        ],
        "category": [
          {
            "coding": [
              {
                "system": "http://terminology.hl7.org/CodeSystem/observation-category",
                "code": "laboratory"
              }
            ]
          }
        ],
        "code": {
          "coding": [
            {
              "code": "10834-0",
              "system": "http://loinc.org",
              "display": "Globulin [Mass/volume] in Serum by calculation"
            }
          ],
          "text": "Globulin [Mass/volume] in Serum by calculation"
        },
        "valueQuantity": {
          "system": "http://unitsofmeasure.org",
          "value": 2.5,
          "unit": "g/L",
          "code": "g/L"
        },
        "referenceRange": [
          {
            "low": {
              "value": 2,
              "code": "g/L",
              "system": "http://unitsofmeasure.org"
            }
          },
          {
            "high": {
              "value": 3.5,
              "code": "g/L",
              "system": "http://unitsofmeasure.org"
            }
          }
        ],
        "text": {
          "status": "generated",
          "div": "<div xmlns=\"http://www.w3.org/1999/xhtml\"><table class=\"hl7__eu__lab__report\"><tr><th>Test</th><th>23-Sep-2022</th><th>Reference&#xA0;Range</th><th>Unit</th></tr><tr><td>Globulin [Mass/volume] in Serum by calculation</td><td>2.5</td><td>2 - 3.5</td><td></td><td>g/L</td></tr></table></div>"
        },
        "status": "final",
        "subject": {
          "reference": "urn:uuid:7697f258-a42b-4eff-8881-d17140e73687",
          "display": "Leonhard Köhler"
        },
        "effectiveDateTime": "2022-09-23T02:48:23Z",
        "specimen": {
          "reference": "urn:uuid:1dac04d6-5833-433d-9a2f-44900f0cf09e"
        }
      }
    },
    {
      "fullUrl": "urn:uuid:367e3703-00b1-421c-8393-7b46158df78c",
      "resource": {
        "resourceType": "Observation",
        "id": "367e3703-00b1-421c-8393-7b46158df78c",
        "meta": {
          "profile": [
            "http://hl7.eu/fhir/laboratory/StructureDefinition/Observation-resultslab-eu-lab"
          ]
        },
        "performer": [
          {
            "display": "The Central European Lab"
          }
        ],
        "category": [
          {
            "coding": [
              {
                "system": "http://terminology.hl7.org/CodeSystem/observation-category",
                "code": "laboratory"
              }
            ]
          }
        ],
        "code": {
          "coding": [
            {
              "code": "1975-2",
              "system": "http://loinc.org",
              "display": "Bilirubin.total [Mass/volume] in Serum or Plasma"
            }
          ],
          "text": "Bilirubin.total [Mass/volume] in Serum or Plasma"
        },
        "valueQuantity": {
          "system": "http://unitsofmeasure.org",
          "value": 0.3,
          "unit": "mg/dL",
          "code": "mg/dL"
        },
        "referenceRange": [
          {
            "low": {
              "value": 0.3,
              "code": "mg/dL",
              "system": "http://unitsofmeasure.org"
            }
          },
          {
            "high": {
              "value": 1.2,
              "code": "mg/dL",
              "system": "http://unitsofmeasure.org"
            }
          }
        ],
        "text": {
          "status": "generated",
          "div": "<div xmlns=\"http://www.w3.org/1999/xhtml\"><table class=\"hl7__eu__lab__report\"><tr><th>Test</th><th>23-Sep-2022</th><th>Reference&#xA0;Range</th><th>Unit</th></tr><tr><td>Bilirubin.total [Mass/volume] in Serum or Plasma</td><td>0.3</td><td>0.3 - 1.2</td><td></td><td>mg/dL</td></tr></table></div>"
        },
        "status": "final",
        "subject": {
          "reference": "urn:uuid:7697f258-a42b-4eff-8881-d17140e73687",
          "display": "Leonhard Köhler"
        },
        "effectiveDateTime": "2022-09-23T02:48:23Z",
        "specimen": {
          "reference": "urn:uuid:6c2cc9a5-dd31-49f0-9894-8a3bc441adc1"
        }
      }
    },
    {
      "fullUrl": "urn:uuid:09cb0fd0-4503-4da4-b8c6-0510ca37b661",
      "resource": {
        "resourceType": "Observation",
        "id": "09cb0fd0-4503-4da4-b8c6-0510ca37b661",
        "meta": {
          "profile": [
            "http://hl7.eu/fhir/laboratory/StructureDefinition/Observation-resultslab-eu-lab"
          ]
        },
        "performer": [
          {
            "display": "The Central European Lab"
          }
        ],
        "category": [
          {
            "coding": [
              {
                "system": "http://terminology.hl7.org/CodeSystem/observation-category",
                "code": "laboratory"
              }
            ]
          }
        ],
        "code": {
          "coding": [
            {
              "code": "6768-6",
              "system": "http://loinc.org",
              "display": "Alkaline phosphatase [Enzymatic activity/volume] in Serum or Plasma"
            }
          ],
          "text": "Alkaline phosphatase [Enzymatic activity/volume] in Serum or Plasma"
        },
        "valueQuantity": {
          "system": "http://unitsofmeasure.org",
          "value": 36,
          "unit": "U/L",
          "code": "U/L"
        },
        "referenceRange": [
          {
            "low": {
              "value": 53,
              "code": "U/L",
              "system": "http://unitsofmeasure.org"
            }
          },
          {
            "high": {
              "value": 130,
              "code": "U/L",
              "system": "http://unitsofmeasure.org"
            }
          }
        ],
        "interpretation": [
          {
            "coding": [
              {
                "code": "L",
                "system": "http://terminology.hl7.org/CodeSystem/v3-ObservationInterpretation",
                "display": "Low"
              }
            ]
          }
        ],
        "text": {
          "status": "generated",
          "div": "<div xmlns=\"http://www.w3.org/1999/xhtml\"><table class=\"hl7__eu__lab__report\"><tr><th>Test</th><th>23-Sep-2022</th><th>Reference&#xA0;Range</th><th>Unit</th></tr><tr><td>Alkaline phosphatase [Enzymatic activity/volume] in Serum or Plasma</td><td>36.0</td><td>53 - 130</td><td>L</td><td>U/L</td></tr></table></div>"
        },
        "status": "final",
        "subject": {
          "reference": "urn:uuid:7697f258-a42b-4eff-8881-d17140e73687",
          "display": "Leonhard Köhler"
        },
        "effectiveDateTime": "2022-09-23T02:48:23Z",
        "specimen": {
          "reference": "urn:uuid:6c2cc9a5-dd31-49f0-9894-8a3bc441adc1"
        }
      }
    },
    {
      "fullUrl": "urn:uuid:584dcfc5-202a-4d97-91bc-993e972e6f63",
      "resource": {
        "resourceType": "Observation",
        "id": "584dcfc5-202a-4d97-91bc-993e972e6f63",
        "meta": {
          "profile": [
            "http://hl7.eu/fhir/laboratory/StructureDefinition/Observation-resultslab-eu-lab"
          ]
        },
        "performer": [
          {
            "display": "The Central European Lab"
          }
        ],
        "category": [
          {
            "coding": [
              {
                "system": "http://terminology.hl7.org/CodeSystem/observation-category",
                "code": "laboratory"
              }
            ]
          }
        ],
        "code": {
          "coding": [
            {
              "code": "1742-6",
              "system": "http://loinc.org",
              "display": "Alanine aminotransferase [Enzymatic activity/volume] in Serum or Plasma"
            }
          ],
          "text": "Alanine aminotransferase [Enzymatic activity/volume] in Serum or Plasma"
        },
        "valueQuantity": {
          "system": "http://unitsofmeasure.org",
          "value": 28.7,
          "unit": "U/L",
          "code": "U/L"
        },
        "referenceRange": [
          {
            "low": {
              "value": 7,
              "code": "U/L",
              "system": "http://unitsofmeasure.org"
            }
          },
          {
            "high": {
              "value": 60,
              "code": "U/L",
              "system": "http://unitsofmeasure.org"
            }
          }
        ],
        "text": {
          "status": "generated",
          "div": "<div xmlns=\"http://www.w3.org/1999/xhtml\"><table class=\"hl7__eu__lab__report\"><tr><th>Test</th><th>23-Sep-2022</th><th>Reference&#xA0;Range</th><th>Unit</th></tr><tr><td>Alanine aminotransferase [Enzymatic activity/volume] in Serum or Plasma</td><td>28.7</td><td>7 - 60</td><td></td><td>U/L</td></tr></table></div>"
        },
        "status": "final",
        "subject": {
          "reference": "urn:uuid:7697f258-a42b-4eff-8881-d17140e73687",
          "display": "Leonhard Köhler"
        },
        "effectiveDateTime": "2022-09-23T02:48:23Z",
        "specimen": {
          "reference": "urn:uuid:6c2cc9a5-dd31-49f0-9894-8a3bc441adc1"
        }
      }
    },
    {
      "fullUrl": "urn:uuid:7245fe59-677c-4a0d-bc43-8dfac9ab7c82",
      "resource": {
        "resourceType": "Observation",
        "id": "7245fe59-677c-4a0d-bc43-8dfac9ab7c82",
        "meta": {
          "profile": [
            "http://hl7.eu/fhir/laboratory/StructureDefinition/Observation-resultslab-eu-lab"
          ]
        },
        "performer": [
          {
            "display": "The Central European Lab"
          }
        ],
        "category": [
          {
            "coding": [
              {
                "system": "http://terminology.hl7.org/CodeSystem/observation-category",
                "code": "laboratory"
              }
            ]
          }
        ],
        "code": {
          "coding": [
            {
              "code": "1920-8",
              "system": "http://loinc.org",
              "display": "Aspartate aminotransferase [Enzymatic activity/volume] in Serum or Plasma"
            }
          ],
          "text": "Aspartate aminotransferase [Enzymatic activity/volume] in Serum or Plasma"
        },
        "valueQuantity": {
          "system": "http://unitsofmeasure.org",
          "value": 38.7,
          "unit": "U/L",
          "code": "U/L"
        },
        "referenceRange": [
          {
            "low": {
              "value": 10,
              "code": "U/L",
              "system": "http://unitsofmeasure.org"
            }
          },
          {
            "high": {
              "value": 49,
              "code": "U/L",
              "system": "http://unitsofmeasure.org"
            }
          }
        ],
        "text": {
          "status": "generated",
          "div": "<div xmlns=\"http://www.w3.org/1999/xhtml\"><table class=\"hl7__eu__lab__report\"><tr><th>Test</th><th>23-Sep-2022</th><th>Reference&#xA0;Range</th><th>Unit</th></tr><tr><td>Aspartate aminotransferase [Enzymatic activity/volume] in Serum or Plasma</td><td>38.7</td><td>10 - 49</td><td></td><td>U/L</td></tr></table></div>"
        },
        "status": "final",
        "subject": {
          "reference": "urn:uuid:7697f258-a42b-4eff-8881-d17140e73687",
          "display": "Leonhard Köhler"
        },
        "effectiveDateTime": "2022-09-23T02:48:23Z",
        "specimen": {
          "reference": "urn:uuid:6c2cc9a5-dd31-49f0-9894-8a3bc441adc1"
        }
      }
    },
    {
      "fullUrl": "urn:uuid:a72f8d7b-22c6-43c5-b678-2a4cf801f0b3",
      "resource": {
        "resourceType": "Observation",
        "id": "a72f8d7b-22c6-43c5-b678-2a4cf801f0b3",
        "meta": {
          "profile": [
            "http://hl7.eu/fhir/laboratory/StructureDefinition/Observation-resultslab-eu-lab"
          ]
        },
        "performer": [
          {
            "display": "The Central European Lab"
          }
        ],
        "category": [
          {
            "coding": [
              {
                "system": "http://terminology.hl7.org/CodeSystem/observation-category",
                "code": "laboratory"
              }
            ]
          }
        ],
        "code": {
          "coding": [
            {
              "code": "2093-3",
              "system": "http://loinc.org",
              "display": "Cholesterol [Mass/volume] in Serum or Plasma"
            }
          ],
          "text": "Cholesterol [Mass/volume] in Serum or Plasma"
        },
        "valueQuantity": {
          "system": "http://unitsofmeasure.org",
          "value": 183.8,
          "unit": "mg/dL",
          "code": "mg/dL"
        },
        "referenceRange": [
          {
            "low": {
              "value": 125,
              "code": "mg/dL",
              "system": "http://unitsofmeasure.org"
            }
          },
          {
            "high": {
              "value": 200,
              "code": "mg/dL",
              "system": "http://unitsofmeasure.org"
            }
          }
        ],
        "text": {
          "status": "generated",
          "div": "<div xmlns=\"http://www.w3.org/1999/xhtml\"><table class=\"hl7__eu__lab__report\"><tr><th>Test</th><th>23-Sep-2022</th><th>Reference&#xA0;Range</th><th>Unit</th></tr><tr><td>Cholesterol [Mass/volume] in Serum or Plasma</td><td>183.8</td><td>125 - 200</td><td></td><td>mg/dL</td></tr></table></div>"
        },
        "status": "final",
        "subject": {
          "reference": "urn:uuid:7697f258-a42b-4eff-8881-d17140e73687",
          "display": "Leonhard Köhler"
        },
        "effectiveDateTime": "2022-09-23T02:48:23Z",
        "specimen": {
          "reference": "urn:uuid:6c2cc9a5-dd31-49f0-9894-8a3bc441adc1"
        }
      }
    },
    {
      "fullUrl": "urn:uuid:0ce9ee1d-d8be-4bee-8e7a-1957a5a99fb2",
      "resource": {
        "resourceType": "Observation",
        "id": "0ce9ee1d-d8be-4bee-8e7a-1957a5a99fb2",
        "meta": {
          "profile": [
            "http://hl7.eu/fhir/laboratory/StructureDefinition/Observation-resultslab-eu-lab"
          ]
        },
        "performer": [
          {
            "display": "The Central European Lab"
          }
        ],
        "category": [
          {
            "coding": [
              {
                "system": "http://terminology.hl7.org/CodeSystem/observation-category",
                "code": "laboratory"
              }
            ]
          }
        ],
        "code": {
          "coding": [
            {
              "code": "2571-8",
              "system": "http://loinc.org",
              "display": "Triglyceride [Mass/volume] in Serum or Plasma"
            }
          ],
          "text": "Triglyceride [Mass/volume] in Serum or Plasma"
        },
        "valueQuantity": {
          "system": "http://unitsofmeasure.org",
          "value": 113.6,
          "unit": "mg/dL",
          "code": "mg/dL"
        },
        "referenceRange": [
          {
            "low": {
              "value": 40,
              "code": "mg/dL",
              "system": "http://unitsofmeasure.org"
            }
          },
          {
            "high": {
              "value": 150,
              "code": "mg/dL",
              "system": "http://unitsofmeasure.org"
            }
          }
        ],
        "text": {
          "status": "generated",
          "div": "<div xmlns=\"http://www.w3.org/1999/xhtml\"><table class=\"hl7__eu__lab__report\"><tr><th>Test</th><th>23-Sep-2022</th><th>Reference&#xA0;Range</th><th>Unit</th></tr><tr><td>Triglyceride [Mass/volume] in Serum or Plasma</td><td>113.6</td><td>40 - 150</td><td></td><td>mg/dL</td></tr></table></div>"
        },
        "status": "final",
        "subject": {
          "reference": "urn:uuid:7697f258-a42b-4eff-8881-d17140e73687",
          "display": "Leonhard Köhler"
        },
        "effectiveDateTime": "2022-09-23T02:48:23Z",
        "specimen": {
          "reference": "urn:uuid:6c2cc9a5-dd31-49f0-9894-8a3bc441adc1"
        }
      }
    },
    {
      "fullUrl": "urn:uuid:84b3fe36-1014-447a-b99a-3af6546a6455",
      "resource": {
        "resourceType": "Observation",
        "id": "84b3fe36-1014-447a-b99a-3af6546a6455",
        "meta": {
          "profile": [
            "http://hl7.eu/fhir/laboratory/StructureDefinition/Observation-resultslab-eu-lab"
          ]
        },
        "performer": [
          {
            "display": "The Central European Lab"
          }
        ],
        "category": [
          {
            "coding": [
              {
                "system": "http://terminology.hl7.org/CodeSystem/observation-category",
                "code": "laboratory"
              }
            ]
          }
        ],
        "code": {
          "coding": [
            {
              "code": "18262-6",
              "system": "http://loinc.org",
              "display": "Cholesterol in LDL [Mass/volume] in Serum or Plasma by Direct assay"
            }
          ],
          "text": "Cholesterol in LDL [Mass/volume] in Serum or Plasma by Direct assay"
        },
        "valueQuantity": {
          "system": "http://unitsofmeasure.org",
          "value": 90.9,
          "unit": "mg/dL",
          "code": "mg/dL"
        },
        "referenceRange": [
          {
            "low": {
              "value": 0,
              "code": "mg/dL",
              "system": "http://unitsofmeasure.org"
            }
          },
          {
            "high": {
              "value": 190,
              "code": "mg/dL",
              "system": "http://unitsofmeasure.org"
            }
          }
        ],
        "text": {
          "status": "generated",
          "div": "<div xmlns=\"http://www.w3.org/1999/xhtml\"><table class=\"hl7__eu__lab__report\"><tr><th>Test</th><th>23-Sep-2022</th><th>Reference&#xA0;Range</th><th>Unit</th></tr><tr><td>Cholesterol in LDL [Mass/volume] in Serum or Plasma by Direct assay</td><td>90.9</td><td>0 - 190</td><td></td><td>mg/dL</td></tr></table></div>"
        },
        "status": "final",
        "subject": {
          "reference": "urn:uuid:7697f258-a42b-4eff-8881-d17140e73687",
          "display": "Leonhard Köhler"
        },
        "effectiveDateTime": "2022-09-23T02:48:23Z",
        "specimen": {
          "reference": "urn:uuid:6c2cc9a5-dd31-49f0-9894-8a3bc441adc1"
        }
      }
    },
    {
      "fullUrl": "urn:uuid:81ec3207-643c-452c-8cd8-100af010b10f",
      "resource": {
        "resourceType": "Observation",
        "id": "81ec3207-643c-452c-8cd8-100af010b10f",
        "meta": {
          "profile": [
            "http://hl7.eu/fhir/laboratory/StructureDefinition/Observation-resultslab-eu-lab"
          ]
        },
        "performer": [
          {
            "display": "The Central European Lab"
          }
        ],
        "category": [
          {
            "coding": [
              {
                "system": "http://terminology.hl7.org/CodeSystem/observation-category",
                "code": "laboratory"
              }
            ]
          }
        ],
        "code": {
          "coding": [
            {
              "code": "2085-9",
              "system": "http://loinc.org",
              "display": "Cholesterol in HDL [Mass/volume] in Serum or Plasma"
            }
          ],
          "text": "Cholesterol in HDL [Mass/volume] in Serum or Plasma"
        },
        "valueQuantity": {
          "system": "http://unitsofmeasure.org",
          "value": 37.3,
          "unit": "mg/dL",
          "code": "mg/dL"
        },
        "referenceRange": [
          {
            "low": {
              "value": 40,
              "code": "mg/dL",
              "system": "http://unitsofmeasure.org"
            }
          },
          {
            "high": {
              "value": 60,
              "code": "mg/dL",
              "system": "http://unitsofmeasure.org"
            }
          }
        ],
        "interpretation": [
          {
            "coding": [
              {
                "code": "L",
                "system": "http://terminology.hl7.org/CodeSystem/v3-ObservationInterpretation",
                "display": "Low"
              }
            ]
          }
        ],
        "text": {
          "status": "generated",
          "div": "<div xmlns=\"http://www.w3.org/1999/xhtml\"><table class=\"hl7__eu__lab__report\"><tr><th>Test</th><th>23-Sep-2022</th><th>Reference&#xA0;Range</th><th>Unit</th></tr><tr><td>Cholesterol in HDL [Mass/volume] in Serum or Plasma</td><td>37.3</td><td>40 - 60</td><td>L</td><td>mg/dL</td></tr></table></div>"
        },
        "status": "final",
        "subject": {
          "reference": "urn:uuid:7697f258-a42b-4eff-8881-d17140e73687",
          "display": "Leonhard Köhler"
        },
        "effectiveDateTime": "2022-09-23T02:48:23Z",
        "specimen": {
          "reference": "urn:uuid:6c2cc9a5-dd31-49f0-9894-8a3bc441adc1"
        }
      }
    },
    {
      "fullUrl": "urn:uuid:cb209894-99bf-4d50-a396-4303514ee121",
      "resource": {
        "resourceType": "Device",
        "id": "cb209894-99bf-4d50-a396-4303514ee121",
        "deviceName": [
          {
            "name": "SYNDERAI Synthetic Generator",
            "type": "manufacturer-name"
          }
        ],
        "version": [
          {
            "value": "5.0"
          }
        ],
        "text": {
          "status": "generated",
          "div": "<div xmlns=\"http://www.w3.org/1999/xhtml\">SYNDERAI Synthetic Generator v5.0</div>"
        },
        "status": "active\"",
        "distinctIdentifier": "synderai-generator-50",
        "manufacturer": "SYNDERAI Project"
      }
    },
    {
      "fullUrl": "urn:uuid:bb6aec28-332a-4c08-b6b3-8e409ebc19fe",
      "resource": {
        "resourceType": "Provenance",
        "id": "bb6aec28-332a-4c08-b6b3-8e409ebc19fe",
        "target": [
          {
            "reference": "Patient/7697f258-a42b-4eff-8881-d17140e73687"
          },
          {
            "reference": "Bundle/993f3f67-155e-4a85-b304-a66ead6c0261"
          },
          {
            "reference": "Composition/3987003d-6cf8-45a0-b1af-10da2fee23a8"
          },
          {
            "reference": "PractitionerRole/b50bd32f-2ed4-46e1-a0ae-a40daf539e64"
          },
          {
            "reference": "Practitioner/4f4348d2-9ad6-4001-8ec0-946f682febe2"
          },
          {
            "reference": "PractitionerRole/718bdf1b-9c06-4f79-ae5c-40b69c409e5b"
          },
          {
            "reference": "Organization/29e84e7c-1bfd-4784-bfd6-62dc02adb5cf"
          }
        ],
        "activity": {
          "text": "Synthetic Example Data Generation"
        },
        "policy": [
          "https://synderai.net/synderai-synthetic-data-policy"
        ],
        "agent": [
          {
            "type": {
              "text": "author"
            },
            "who": {
              "reference": "Device/cb209894-99bf-4d50-a396-4303514ee121"
            }
          }
        ],
        "reason": [
          {
            "text": "Interoperability Testing and Training (non-clinical use)"
          }
        ],
        "text": {
          "status": "generated",
          "div": "<div xmlns=\"http://www.w3.org/1999/xhtml\">Provenance for SYNDERAI Synthetic Example Data Resource</div>"
        },
        "recorded": "2022-09-23T04:48:23Z"
      }
    },
    {
      "fullUrl": "urn:uuid:b50bd32f-2ed4-46e1-a0ae-a40daf539e64",
      "resource": {
        "resourceType": "PractitionerRole",
        "id": "b50bd32f-2ed4-46e1-a0ae-a40daf539e64",
        "meta": {
          "profile": [
            "http://hl7.eu/fhir/base/StructureDefinition/practitionerRole-eu"
          ]
        },
        "text": {
          "status": "generated",
          "div": "<div xmlns=\"http://www.w3.org/1999/xhtml\">Laboratory Role Id: b50bd32f-2ed4-46e1-a0ae-a40daf539e64</div>"
        },
        "practitioner": {
          "reference": "urn:uuid:4f4348d2-9ad6-4001-8ec0-946f682febe2"
        }
      }
    },
    {
      "fullUrl": "urn:uuid:4f4348d2-9ad6-4001-8ec0-946f682febe2",
      "resource": {
        "resourceType": "Practitioner",
        "id": "4f4348d2-9ad6-4001-8ec0-946f682febe2",
        "meta": {
          "profile": [
            "http://hl7.eu/fhir/base/StructureDefinition/practitioner-eu"
          ]
        },
        "identifier": [
          {
            "assigner": {
              "display": "HL7 Europe"
            },
            "system": "urn:oid:2.16.840.1.113883.2.51.999",
            "value": "b625ac02-a87d-4ce2-86d6-31cd78625668"
          }
        ],
        "name": [
          {
            "prefix": [
              "dr"
            ],
            "given": [
              "Ex"
            ],
            "family": "Ample"
          }
        ],
        "address": [
          {
            "line": [
              "Laboratoire Central Européenne",
              "Boulevard du Jardin Botanique 32"
            ],
            "postalCode": "1000",
            "city": "Brussels",
            "country": "Belgium"
          }
        ],
        "text": {
          "status": "generated",
          "div": "<div xmlns=\"http://www.w3.org/1999/xhtml\">Laboratory: Laboratoire Central Européenne, 1000 Brussels, Belgium</div>"
        }
      }
    }
  ],
  "type": "document",
  "timestamp": "2022-09-23T04:48:23Z"
}
