{
  "resourceType": "Bundle",
  "id": "612e79a4-733a-49df-8201-ab8baf4d8821",
  "meta": {
    "profile": [
      "http://hl7.eu/fhir/laboratory/StructureDefinition/Bundle-eu-lab"
    ]
  },
  "identifier": {
    "assigner": {
      "display": "HL7 Europe"
    },
    "system": "urn:oid:2.16.840.1.113883.2.51.999",
    "value": "1321eca9-e6c5-414d-87c3-41ef9669040d"
  },
  "entry": [
    {
      "fullUrl": "urn:uuid:297ab0dc-6d34-4b67-99d2-62942e42dfb0",
      "resource": {
        "resourceType": "Composition",
        "id": "297ab0dc-6d34-4b67-99d2-62942e42dfb0",
        "meta": {
          "profile": [
            "http://hl7.eu/fhir/laboratory/StructureDefinition/Composition-eu-lab"
          ]
        },
        "identifier": {
          "assigner": {
            "display": "HL7 Europe"
          },
          "system": "urn:oid:2.16.840.1.113883.2.51.999",
          "value": "a65ec88c-5295-48a2-8d8f-29dd529d9fed"
        },
        "author": [
          {
            "reference": "urn:uuid:8ea7d307-e310-4cc8-b5a0-83b86d3d4503"
          }
        ],
        "category": [
          {
            "coding": [
              {
                "code": "26436-6",
                "system": "http://loinc.org",
                "display": "Laboratory studies (set)"
              }
            ]
          }
        ],
        "type": {
          "coding": [
            {
              "code": "11502-2",
              "system": "http://loinc.org",
              "display": "Laboratory report"
            }
          ],
          "text": "Laboratory Report"
        },
        "section": [
          {
            "code": {
              "coding": [
                {
                  "code": "26436-6",
                  "system": "http://loinc.org",
                  "display": "Laboratory studies (set)"
                }
              ],
              "text": "Laboratory studies"
            },
            "section": [
              {
                "code": {
                  "coding": [
                    {
                      "code": "$18723-7",
                      "system": "http://loinc.org",
                      "display": "Hematology studies (set)"
                    }
                  ],
                  "text": "Hematology"
                },
                "entry": [
                  {
                    "reference": "urn:uuid:8be6bc0f-a293-4df8-b019-84b105163c7c"
                  },
                  {
                    "reference": "urn:uuid:8c22499e-265b-433d-a789-60d829e4c526"
                  },
                  {
                    "reference": "urn:uuid:75371832-ba8e-47c6-8900-c4bb07655a61"
                  },
                  {
                    "reference": "urn:uuid:dc858d3c-f2fa-4ca7-aa70-69d8b1c850ac"
                  },
                  {
                    "reference": "urn:uuid:03a3f133-201c-4a0b-be17-0083f6e90f64"
                  },
                  {
                    "reference": "urn:uuid:a88f314a-ccd8-4dcd-987e-47a4f9f812c3"
                  },
                  {
                    "reference": "urn:uuid:3030ad7d-a84a-4bbc-813a-e73a443b845f"
                  },
                  {
                    "reference": "urn:uuid:3421f0f7-41c5-4269-86da-2fd1d889c25a"
                  },
                  {
                    "reference": "urn:uuid:0d0c1a50-71ed-4fa7-bfe4-3c0dac2825d6"
                  },
                  {
                    "reference": "urn:uuid:6f649bd3-4ba8-4cb1-ad5f-6bba3eb90dfe"
                  },
                  {
                    "reference": "urn:uuid:f918348b-2dee-44ce-9054-663ca54f81fc"
                  }
                ],
                "text": {
                  "status": "generated",
                  "div": "<div xmlns=\"http://www.w3.org/1999/xhtml\"><h3>Hematology</h3><table class=\"hl7__eu__lab__report\"><thead><tr><th>Test</th><th>12-JAN-2020</th><th>Reference&#xA0;Range</th><th>Unit</th></tr></thead><tbody><tr><td>Leukocytes [#/volume] in Blood by Automated count</td><td>9.6</td><td>3.5 - 10.5</td><td>10*3/uL</td></tr><tr><td>Erythrocytes [#/volume] in Blood by Automated count</td><td>5.2</td><td>4.32 - 5.72</td><td>10*6/uL</td></tr><tr><td>Hemoglobin [Mass/volume] in Blood</td><td><strong>12.7 L</strong></td><td>13.5 - 17.5</td><td>g/dL</td></tr><tr><td>Hematocrit [Volume Fraction] of Blood by Automated count</td><td>38.7</td><td>38 - 50</td><td>%</td></tr><tr><td>MCV [Entitic volume] by Automated count</td><td>90.9</td><td>82 - 98</td><td>fL</td></tr><tr><td>MCH [Entitic mass] by Automated count</td><td>27.2</td><td>27 - 33</td><td>pg</td></tr><tr><td>MCHC [Mass/volume] by Automated count</td><td>34.6</td><td>32 - 36</td><td>g/dL</td></tr><tr><td>Erythrocyte distribution width [Entitic volume] by Automated count</td><td>44.7</td><td>39 - 55</td><td>fL</td></tr><tr><td>Platelets [#/volume] in Blood by Automated count</td><td>410.3</td><td>155 - 415</td><td>10*3/uL</td></tr><tr><td>Platelet distribution width [Entitic volume] in Blood by Automated count</td><td><strong>249.7 H</strong></td><td>13.4 - 17.4</td><td>fL</td></tr><tr><td>Platelet mean volume [Entitic volume] in Blood by Automated count</td><td>11.3</td><td>9.6 - 13.8</td><td>fL</td></tr></tbody></table></div>"
                },
                "title": "Hematology"
              }
            ],
            "title": "Laboratory Report"
          },
          {
            "text": {
              "status": "generated",
              "div": "<div xmlns=\"http://www.w3.org/1999/xhtml\"><h3>Annotation</h3><table class=\"hl7__eu__lab__report\"><tr><th>Conclusion and Recommendations based on this report and previous findings known to us</th></tr><tr><td>The patient shows mild anemia (low hemoglobin) with otherwise normal red cell indices and counts. Platelet count is normal, but platelet distribution width is elevated, which may indicate increased platelet size variability, possibly due to reactive or regenerative processes. No leukocyte abnormalities are present. Correlation with clinical context and further evaluation for anemia etiology is recommended.</td></tr></table></div>"
            },
            "code": {
              "coding": [
                {
                  "system": "http://loinc.org",
                  "code": "48767-8",
                  "display": "Annotation comment"
                }
              ]
            },
            "title": "Annotation comment"
          }
        ],
        "status": "final",
        "subject": {
          "reference": "urn:uuid:5e52b5f5-e663-42e2-8826-21646e4360e3",
          "display": "Jason Forster"
        },
        "date": "2020-01-12T11:37:02Z",
        "title": "Laboratory Report",
        "confidentiality": "N"
      }
    },
    {
      "fullUrl": "urn:uuid:102aaeaf-6968-4dde-9866-ba283be8b065",
      "resource": {
        "resourceType": "DiagnosticReport",
        "id": "102aaeaf-6968-4dde-9866-ba283be8b065",
        "meta": {
          "profile": [
            "http://hl7.eu/fhir/laboratory/StructureDefinition/DiagnosticReport-eu-lab"
          ]
        },
        "identifier": [
          {
            "assigner": {
              "display": "HL7 Europe"
            },
            "system": "urn:oid:2.16.840.1.113883.2.51.999",
            "value": "3a9ea33e-be1f-4f05-9d22-f315a094f1c8"
          }
        ],
        "extension": [
          {
            "url": "http://hl7.org/fhir/5.0/StructureDefinition/extension-DiagnosticReport.composition",
            "valueReference": {
              "reference": "urn:uuid:a65ec88c-5295-48a2-8d8f-29dd529d9fed"
            }
          }
        ],
        "category": [
          {
            "coding": [
              {
                "code": "26436-6",
                "system": "http://loinc.org",
                "display": "Laboratory studies (set)"
              }
            ]
          }
        ],
        "specimen": [
          {
            "reference": "urn:uuid:8960d404-386c-4f3c-aa90-b7890f940560"
          },
          {
            "reference": "urn:uuid:8960d404-386c-4f3c-aa90-b7890f940560"
          }
        ],
        "result": [
          {
            "reference": "urn:uuid:8be6bc0f-a293-4df8-b019-84b105163c7c"
          },
          {
            "reference": "urn:uuid:8c22499e-265b-433d-a789-60d829e4c526"
          },
          {
            "reference": "urn:uuid:75371832-ba8e-47c6-8900-c4bb07655a61"
          },
          {
            "reference": "urn:uuid:dc858d3c-f2fa-4ca7-aa70-69d8b1c850ac"
          },
          {
            "reference": "urn:uuid:03a3f133-201c-4a0b-be17-0083f6e90f64"
          },
          {
            "reference": "urn:uuid:a88f314a-ccd8-4dcd-987e-47a4f9f812c3"
          },
          {
            "reference": "urn:uuid:3030ad7d-a84a-4bbc-813a-e73a443b845f"
          },
          {
            "reference": "urn:uuid:3421f0f7-41c5-4269-86da-2fd1d889c25a"
          },
          {
            "reference": "urn:uuid:0d0c1a50-71ed-4fa7-bfe4-3c0dac2825d6"
          },
          {
            "reference": "urn:uuid:6f649bd3-4ba8-4cb1-ad5f-6bba3eb90dfe"
          },
          {
            "reference": "urn:uuid:f918348b-2dee-44ce-9054-663ca54f81fc"
          }
        ],
        "status": "registered",
        "code": {
          "coding": [
            {
              "code": "11502-2",
              "system": "http://loinc.org",
              "display": "Laboratory report"
            }
          ]
        },
        "subject": {
          "reference": "urn:uuid:5e52b5f5-e663-42e2-8826-21646e4360e3",
          "display": "Jason Forster"
        }
      }
    },
    {
      "fullUrl": "urn:uuid:5e52b5f5-e663-42e2-8826-21646e4360e3",
      "resource": {
        "resourceType": "Patient",
        "id": "5e52b5f5-e663-42e2-8826-21646e4360e3",
        "meta": {
          "security": [
            {
              "system": "http://terminology.hl7.org/CodeSystem/v3-ActReason",
              "code": "HTEST"
            },
            {
              "system": "http://terminology.hl7.org/CodeSystem/v3-ActReason",
              "code": "TRAIN"
            }
          ],
          "tag": [
            {
              "system": "https://synderai.net/fhir/CodeSystem/tags",
              "code": "synthetic",
              "display": "SYNDERAI Synthetic data"
            }
          ],
          "profile": [
            "http://hl7.eu/fhir/base/StructureDefinition/patient-eu-core"
          ]
        },
        "identifier": [
          {
            "type": {
              "coding": [
                {
                  "code": "PT",
                  "system": "http://terminology.hl7.org/CodeSystem/v2-0203"
                }
              ]
            },
            "system": "http://ec.europa.eu/identifier/eci",
            "value": "2238-744377-7"
          },
          {
            "type": {
              "coding": [
                {
                  "code": "MR",
                  "system": "http://terminology.hl7.org/CodeSystem/v2-0203"
                }
              ]
            },
            "system": "http://local.setting.eu/identifier",
            "value": "dc5e9b59-86bb-95c9-eab3-9675ec81c274"
          }
        ],
        "name": [
          {
            "family": "Forster"
          },
          {
            "given": [
              "Jason"
            ]
          },
          {
            "text": "Jason Forster"
          }
        ],
        "address": [
          {
            "line": [
              "437 Martin trail"
            ],
            "use": "home",
            "type": "physical",
            "postalCode": "M20",
            "city": "Heatherville",
            "country": "United Kingdom"
          }
        ],
        "telecom": [
          {
            "system": "phone",
            "value": "01632960273"
          }
        ],
        "extension": [
          {
            "url": "http://hl7.org/fhir/StructureDefinition/patient-nationality",
            "valueCodeableConcept": {
              "coding": [
                {
                  "code": "GB",
                  "system": "http://hl7.org/fhir/ValueSet/country"
                }
              ]
            }
          }
        ],
        "text": {
          "status": "generated",
          "div": "<div xmlns=\"http://www.w3.org/1999/xhtml\"><table class=\"hl7__ips\"><tr><td>Jason Forster</td><td>male</td><td>10-Mar-1983</td></tr></table></div>"
        },
        "gender": "male",
        "birthDate": "1983-03-10"
      }
    },
    {
      "fullUrl": "urn:uuid:9fb78c38-26b0-4427-95a0-986702daee09",
      "resource": {
        "resourceType": "ServiceRequest",
        "id": "9fb78c38-26b0-4427-95a0-986702daee09",
        "meta": {
          "profile": [
            "http://hl7.eu/fhir/laboratory/StructureDefinition/ServiceRequest-eu-lab"
          ]
        },
        "identifier": [
          {
            "system": "http://example.org",
            "value": "6e68d8ce-bef9-4079-b071-f4a0ecb9d777"
          }
        ],
        "specimen": [
          {
            "reference": "urn:uuid:8960d404-386c-4f3c-aa90-b7890f940560"
          }
        ],
        "reasonCode": [
          {
            "coding": [
              {
                "code": "15777000",
                "system": "http://snomed.info/sct",
                "display": "Prediabetes"
              }
            ]
          },
          {
            "coding": [
              {
                "code": "239873007",
                "system": "http://snomed.info/sct",
                "display": "Osteoarthritis of knee"
              }
            ]
          }
        ],
        "status": "active",
        "intent": "order",
        "code": {
          "coding": [
            {
              "code": "108252007",
              "system": "http://snomed.info/sct",
              "display": "Laboratory procedure"
            }
          ]
        },
        "subject": {
          "reference": "urn:uuid:5e52b5f5-e663-42e2-8826-21646e4360e3",
          "display": "Jason Forster"
        },
        "requester": {
          "reference": "urn:uuid:41b5a3a2-140f-4f8e-98b1-f6f91f38b076"
        }
      }
    },
    {
      "fullUrl": "urn:uuid:41b5a3a2-140f-4f8e-98b1-f6f91f38b076",
      "resource": {
        "resourceType": "PractitionerRole",
        "id": "41b5a3a2-140f-4f8e-98b1-f6f91f38b076",
        "meta": {
          "profile": [
            "http://hl7.eu/fhir/base/StructureDefinition/practitionerRole-eu"
          ]
        },
        "text": {
          "status": "generated",
          "div": "<div xmlns=\"http://www.w3.org/1999/xhtml\">Provider Role Id: 41b5a3a2-140f-4f8e-98b1-f6f91f38b076</div>"
        },
        "organization": {
          "reference": "urn:uuid:45eb303d-6cbd-495e-bae4-7bbc73ad214c"
        }
      }
    },
    {
      "fullUrl": "urn:uuid:45eb303d-6cbd-495e-bae4-7bbc73ad214c",
      "resource": {
        "resourceType": "Organization",
        "id": "45eb303d-6cbd-495e-bae4-7bbc73ad214c",
        "meta": {
          "profile": [
            "http://hl7.eu/fhir/base/StructureDefinition/organization-eu"
          ]
        },
        "identifier": [
          {
            "assigner": {
              "display": "HL7 Europe"
            },
            "system": "urn:oid:2.16.840.1.113883.2.51.999",
            "value": "ea7cfc64-47ac-483a-a20c-6b0e1bad009d"
          }
        ],
        "address": [
          {
            "line": [
              "City Road 204"
            ],
            "city": "Manchester",
            "postalCode": "M3 3",
            "country": "United Kingdom"
          }
        ],
        "text": {
          "status": "generated",
          "div": "<div xmlns=\"http://www.w3.org/1999/xhtml\">Provider Organization: Cornbrook Medical Practice</div>"
        },
        "name": "Cornbrook Medical Practice"
      }
    },
    {
      "fullUrl": "urn:uuid:8960d404-386c-4f3c-aa90-b7890f940560",
      "resource": {
        "resourceType": "Specimen",
        "id": "8960d404-386c-4f3c-aa90-b7890f940560",
        "meta": {
          "profile": [
            "http://hl7.eu/fhir/laboratory/StructureDefinition/Specimen-eu-lab"
          ]
        },
        "collection": {
          "collectedDateTime": "2020-01-12"
        },
        "text": {
          "status": "generated",
          "div": "<div xmlns=\"http://www.w3.org/1999/xhtml\"><table class=\"hl7__eu__lab__report\"><tr><th>Specimen</th><th>Collection Date</th></tr><tr><td>Whole blood specimen (specimen)</td><td><span class=\"nb\">12-Jan-2020</span></td></tr></table></div>"
        },
        "type": {
          "coding": [
            {
              "code": "258580003",
              "system": "http://snomed.info/sct",
              "display": "Whole blood specimen (specimen)"
            }
          ]
        }
      }
    },
    {
      "fullUrl": "urn:uuid:8960d404-386c-4f3c-aa90-b7890f940560",
      "resource": {
        "resourceType": "Specimen",
        "id": "8960d404-386c-4f3c-aa90-b7890f940560",
        "meta": {
          "profile": [
            "http://hl7.eu/fhir/laboratory/StructureDefinition/Specimen-eu-lab"
          ]
        },
        "collection": {
          "collectedDateTime": "2020-01-12"
        },
        "text": {
          "status": "generated",
          "div": "<div xmlns=\"http://www.w3.org/1999/xhtml\"><table class=\"hl7__eu__lab__report\"><tr><th>Specimen</th><th>Collection Date</th></tr><tr><td>Whole blood specimen (specimen)</td><td><span class=\"nb\">12-Jan-2020</span></td></tr></table></div>"
        },
        "type": {
          "coding": [
            {
              "code": "258580003",
              "system": "http://snomed.info/sct",
              "display": "Whole blood specimen (specimen)"
            }
          ]
        }
      }
    },
    {
      "fullUrl": "urn:uuid:8be6bc0f-a293-4df8-b019-84b105163c7c",
      "resource": {
        "resourceType": "Observation",
        "id": "8be6bc0f-a293-4df8-b019-84b105163c7c",
        "meta": {
          "profile": [
            "http://hl7.eu/fhir/laboratory/StructureDefinition/Observation-resultslab-eu-lab"
          ]
        },
        "performer": [
          {
            "display": "The Central European Lab"
          }
        ],
        "category": [
          {
            "coding": [
              {
                "system": "http://terminology.hl7.org/CodeSystem/observation-category",
                "code": "laboratory"
              }
            ]
          }
        ],
        "code": {
          "coding": [
            {
              "code": "6690-2",
              "system": "http://loinc.org",
              "display": "Leukocytes [#/volume] in Blood by Automated count"
            }
          ],
          "text": "Leukocytes [#/volume] in Blood by Automated count"
        },
        "valueQuantity": {
          "system": "http://unitsofmeasure.org",
          "value": 9.6,
          "unit": "10*3/uL",
          "code": "10*3/uL"
        },
        "referenceRange": [
          {
            "low": {
              "value": 3.5,
              "code": "10*3/uL",
              "system": "http://unitsofmeasure.org"
            }
          },
          {
            "high": {
              "value": 10.5,
              "code": "10*3/uL",
              "system": "http://unitsofmeasure.org"
            }
          }
        ],
        "text": {
          "status": "generated",
          "div": "<div xmlns=\"http://www.w3.org/1999/xhtml\"><table class=\"hl7__eu__lab__report\"><tr><th>Test</th><th>12-Jan-2020</th><th>Reference&#xA0;Range</th><th>Unit</th></tr><tr><td>Leukocytes [#/volume] in Blood by Automated count</td><td>9.6</td><td>3.5 - 10.5</td><td></td><td>10*3/uL</td></tr></table></div>"
        },
        "status": "final",
        "subject": {
          "reference": "urn:uuid:5e52b5f5-e663-42e2-8826-21646e4360e3",
          "display": "Jason Forster"
        },
        "effectiveDateTime": "2020-01-12T10:37:02Z",
        "specimen": {
          "reference": "urn:uuid:8960d404-386c-4f3c-aa90-b7890f940560"
        }
      }
    },
    {
      "fullUrl": "urn:uuid:8c22499e-265b-433d-a789-60d829e4c526",
      "resource": {
        "resourceType": "Observation",
        "id": "8c22499e-265b-433d-a789-60d829e4c526",
        "meta": {
          "profile": [
            "http://hl7.eu/fhir/laboratory/StructureDefinition/Observation-resultslab-eu-lab"
          ]
        },
        "performer": [
          {
            "display": "The Central European Lab"
          }
        ],
        "category": [
          {
            "coding": [
              {
                "system": "http://terminology.hl7.org/CodeSystem/observation-category",
                "code": "laboratory"
              }
            ]
          }
        ],
        "code": {
          "coding": [
            {
              "code": "789-8",
              "system": "http://loinc.org",
              "display": "Erythrocytes [#/volume] in Blood by Automated count"
            }
          ],
          "text": "Erythrocytes [#/volume] in Blood by Automated count"
        },
        "valueQuantity": {
          "system": "http://unitsofmeasure.org",
          "value": 5.2,
          "unit": "10*6/uL",
          "code": "10*6/uL"
        },
        "referenceRange": [
          {
            "low": {
              "value": 4.32,
              "code": "10*6/uL",
              "system": "http://unitsofmeasure.org"
            }
          },
          {
            "high": {
              "value": 5.72,
              "code": "10*6/uL",
              "system": "http://unitsofmeasure.org"
            }
          }
        ],
        "text": {
          "status": "generated",
          "div": "<div xmlns=\"http://www.w3.org/1999/xhtml\"><table class=\"hl7__eu__lab__report\"><tr><th>Test</th><th>12-Jan-2020</th><th>Reference&#xA0;Range</th><th>Unit</th></tr><tr><td>Erythrocytes [#/volume] in Blood by Automated count</td><td>5.2</td><td>4.32 - 5.72</td><td></td><td>10*6/uL</td></tr></table></div>"
        },
        "status": "final",
        "subject": {
          "reference": "urn:uuid:5e52b5f5-e663-42e2-8826-21646e4360e3",
          "display": "Jason Forster"
        },
        "effectiveDateTime": "2020-01-12T10:37:02Z",
        "specimen": {
          "reference": "urn:uuid:8960d404-386c-4f3c-aa90-b7890f940560"
        }
      }
    },
    {
      "fullUrl": "urn:uuid:75371832-ba8e-47c6-8900-c4bb07655a61",
      "resource": {
        "resourceType": "Observation",
        "id": "75371832-ba8e-47c6-8900-c4bb07655a61",
        "meta": {
          "profile": [
            "http://hl7.eu/fhir/laboratory/StructureDefinition/Observation-resultslab-eu-lab"
          ]
        },
        "performer": [
          {
            "display": "The Central European Lab"
          }
        ],
        "category": [
          {
            "coding": [
              {
                "system": "http://terminology.hl7.org/CodeSystem/observation-category",
                "code": "laboratory"
              }
            ]
          }
        ],
        "code": {
          "coding": [
            {
              "code": "718-7",
              "system": "http://loinc.org",
              "display": "Hemoglobin [Mass/volume] in Blood"
            }
          ],
          "text": "Hemoglobin [Mass/volume] in Blood"
        },
        "valueQuantity": {
          "system": "http://unitsofmeasure.org",
          "value": 12.7,
          "unit": "g/dL",
          "code": "g/dL"
        },
        "referenceRange": [
          {
            "low": {
              "value": 13.5,
              "code": "g/dL",
              "system": "http://unitsofmeasure.org"
            }
          },
          {
            "high": {
              "value": 17.5,
              "code": "g/dL",
              "system": "http://unitsofmeasure.org"
            }
          }
        ],
        "interpretation": [
          {
            "coding": [
              {
                "code": "L",
                "system": "http://terminology.hl7.org/CodeSystem/v3-ObservationInterpretation",
                "display": "Low"
              }
            ]
          }
        ],
        "text": {
          "status": "generated",
          "div": "<div xmlns=\"http://www.w3.org/1999/xhtml\"><table class=\"hl7__eu__lab__report\"><tr><th>Test</th><th>12-Jan-2020</th><th>Reference&#xA0;Range</th><th>Unit</th></tr><tr><td>Hemoglobin [Mass/volume] in Blood</td><td>12.7</td><td>13.5 - 17.5</td><td>L</td><td>g/dL</td></tr></table></div>"
        },
        "status": "final",
        "subject": {
          "reference": "urn:uuid:5e52b5f5-e663-42e2-8826-21646e4360e3",
          "display": "Jason Forster"
        },
        "effectiveDateTime": "2020-01-12T10:37:02Z",
        "specimen": {
          "reference": "urn:uuid:8960d404-386c-4f3c-aa90-b7890f940560"
        }
      }
    },
    {
      "fullUrl": "urn:uuid:dc858d3c-f2fa-4ca7-aa70-69d8b1c850ac",
      "resource": {
        "resourceType": "Observation",
        "id": "dc858d3c-f2fa-4ca7-aa70-69d8b1c850ac",
        "meta": {
          "profile": [
            "http://hl7.eu/fhir/laboratory/StructureDefinition/Observation-resultslab-eu-lab"
          ]
        },
        "performer": [
          {
            "display": "The Central European Lab"
          }
        ],
        "category": [
          {
            "coding": [
              {
                "system": "http://terminology.hl7.org/CodeSystem/observation-category",
                "code": "laboratory"
              }
            ]
          }
        ],
        "code": {
          "coding": [
            {
              "code": "4544-3",
              "system": "http://loinc.org",
              "display": "Hematocrit [Volume Fraction] of Blood by Automated count"
            }
          ],
          "text": "Hematocrit [Volume Fraction] of Blood by Automated count"
        },
        "valueQuantity": {
          "system": "http://unitsofmeasure.org",
          "value": 38.7,
          "unit": "%",
          "code": "%"
        },
        "referenceRange": [
          {
            "low": {
              "value": 38,
              "code": "%",
              "system": "http://unitsofmeasure.org"
            }
          },
          {
            "high": {
              "value": 50,
              "code": "%",
              "system": "http://unitsofmeasure.org"
            }
          }
        ],
        "text": {
          "status": "generated",
          "div": "<div xmlns=\"http://www.w3.org/1999/xhtml\"><table class=\"hl7__eu__lab__report\"><tr><th>Test</th><th>12-Jan-2020</th><th>Reference&#xA0;Range</th><th>Unit</th></tr><tr><td>Hematocrit [Volume Fraction] of Blood by Automated count</td><td>38.7</td><td>38 - 50</td><td></td><td>%</td></tr></table></div>"
        },
        "status": "final",
        "subject": {
          "reference": "urn:uuid:5e52b5f5-e663-42e2-8826-21646e4360e3",
          "display": "Jason Forster"
        },
        "effectiveDateTime": "2020-01-12T10:37:02Z",
        "specimen": {
          "reference": "urn:uuid:8960d404-386c-4f3c-aa90-b7890f940560"
        }
      }
    },
    {
      "fullUrl": "urn:uuid:03a3f133-201c-4a0b-be17-0083f6e90f64",
      "resource": {
        "resourceType": "Observation",
        "id": "03a3f133-201c-4a0b-be17-0083f6e90f64",
        "meta": {
          "profile": [
            "http://hl7.eu/fhir/laboratory/StructureDefinition/Observation-resultslab-eu-lab"
          ]
        },
        "performer": [
          {
            "display": "The Central European Lab"
          }
        ],
        "category": [
          {
            "coding": [
              {
                "system": "http://terminology.hl7.org/CodeSystem/observation-category",
                "code": "laboratory"
              }
            ]
          }
        ],
        "code": {
          "coding": [
            {
              "code": "787-2",
              "system": "http://loinc.org",
              "display": "MCV [Entitic volume] by Automated count"
            }
          ],
          "text": "MCV [Entitic volume] by Automated count"
        },
        "valueQuantity": {
          "system": "http://unitsofmeasure.org",
          "value": 90.9,
          "unit": "fL",
          "code": "fL"
        },
        "referenceRange": [
          {
            "low": {
              "value": 82,
              "code": "fL",
              "system": "http://unitsofmeasure.org"
            }
          },
          {
            "high": {
              "value": 98,
              "code": "fL",
              "system": "http://unitsofmeasure.org"
            }
          }
        ],
        "text": {
          "status": "generated",
          "div": "<div xmlns=\"http://www.w3.org/1999/xhtml\"><table class=\"hl7__eu__lab__report\"><tr><th>Test</th><th>12-Jan-2020</th><th>Reference&#xA0;Range</th><th>Unit</th></tr><tr><td>MCV [Entitic volume] by Automated count</td><td>90.9</td><td>82 - 98</td><td></td><td>fL</td></tr></table></div>"
        },
        "status": "final",
        "subject": {
          "reference": "urn:uuid:5e52b5f5-e663-42e2-8826-21646e4360e3",
          "display": "Jason Forster"
        },
        "effectiveDateTime": "2020-01-12T10:37:02Z",
        "specimen": {
          "reference": "urn:uuid:8960d404-386c-4f3c-aa90-b7890f940560"
        }
      }
    },
    {
      "fullUrl": "urn:uuid:a88f314a-ccd8-4dcd-987e-47a4f9f812c3",
      "resource": {
        "resourceType": "Observation",
        "id": "a88f314a-ccd8-4dcd-987e-47a4f9f812c3",
        "meta": {
          "profile": [
            "http://hl7.eu/fhir/laboratory/StructureDefinition/Observation-resultslab-eu-lab"
          ]
        },
        "performer": [
          {
            "display": "The Central European Lab"
          }
        ],
        "category": [
          {
            "coding": [
              {
                "system": "http://terminology.hl7.org/CodeSystem/observation-category",
                "code": "laboratory"
              }
            ]
          }
        ],
        "code": {
          "coding": [
            {
              "code": "785-6",
              "system": "http://loinc.org",
              "display": "MCH [Entitic mass] by Automated count"
            }
          ],
          "text": "MCH [Entitic mass] by Automated count"
        },
        "valueQuantity": {
          "system": "http://unitsofmeasure.org",
          "value": 27.2,
          "unit": "pg",
          "code": "pg"
        },
        "referenceRange": [
          {
            "low": {
              "value": 27,
              "code": "pg",
              "system": "http://unitsofmeasure.org"
            }
          },
          {
            "high": {
              "value": 33,
              "code": "pg",
              "system": "http://unitsofmeasure.org"
            }
          }
        ],
        "text": {
          "status": "generated",
          "div": "<div xmlns=\"http://www.w3.org/1999/xhtml\"><table class=\"hl7__eu__lab__report\"><tr><th>Test</th><th>12-Jan-2020</th><th>Reference&#xA0;Range</th><th>Unit</th></tr><tr><td>MCH [Entitic mass] by Automated count</td><td>27.2</td><td>27 - 33</td><td></td><td>pg</td></tr></table></div>"
        },
        "status": "final",
        "subject": {
          "reference": "urn:uuid:5e52b5f5-e663-42e2-8826-21646e4360e3",
          "display": "Jason Forster"
        },
        "effectiveDateTime": "2020-01-12T10:37:02Z",
        "specimen": {
          "reference": "urn:uuid:8960d404-386c-4f3c-aa90-b7890f940560"
        }
      }
    },
    {
      "fullUrl": "urn:uuid:3030ad7d-a84a-4bbc-813a-e73a443b845f",
      "resource": {
        "resourceType": "Observation",
        "id": "3030ad7d-a84a-4bbc-813a-e73a443b845f",
        "meta": {
          "profile": [
            "http://hl7.eu/fhir/laboratory/StructureDefinition/Observation-resultslab-eu-lab"
          ]
        },
        "performer": [
          {
            "display": "The Central European Lab"
          }
        ],
        "category": [
          {
            "coding": [
              {
                "system": "http://terminology.hl7.org/CodeSystem/observation-category",
                "code": "laboratory"
              }
            ]
          }
        ],
        "code": {
          "coding": [
            {
              "code": "786-4",
              "system": "http://loinc.org",
              "display": "MCHC [Mass/volume] by Automated count"
            }
          ],
          "text": "MCHC [Mass/volume] by Automated count"
        },
        "valueQuantity": {
          "system": "http://unitsofmeasure.org",
          "value": 34.6,
          "unit": "g/dL",
          "code": "g/dL"
        },
        "referenceRange": [
          {
            "low": {
              "value": 32,
              "code": "g/dL",
              "system": "http://unitsofmeasure.org"
            }
          },
          {
            "high": {
              "value": 36,
              "code": "g/dL",
              "system": "http://unitsofmeasure.org"
            }
          }
        ],
        "text": {
          "status": "generated",
          "div": "<div xmlns=\"http://www.w3.org/1999/xhtml\"><table class=\"hl7__eu__lab__report\"><tr><th>Test</th><th>12-Jan-2020</th><th>Reference&#xA0;Range</th><th>Unit</th></tr><tr><td>MCHC [Mass/volume] by Automated count</td><td>34.6</td><td>32 - 36</td><td></td><td>g/dL</td></tr></table></div>"
        },
        "status": "final",
        "subject": {
          "reference": "urn:uuid:5e52b5f5-e663-42e2-8826-21646e4360e3",
          "display": "Jason Forster"
        },
        "effectiveDateTime": "2020-01-12T10:37:02Z",
        "specimen": {
          "reference": "urn:uuid:8960d404-386c-4f3c-aa90-b7890f940560"
        }
      }
    },
    {
      "fullUrl": "urn:uuid:3421f0f7-41c5-4269-86da-2fd1d889c25a",
      "resource": {
        "resourceType": "Observation",
        "id": "3421f0f7-41c5-4269-86da-2fd1d889c25a",
        "meta": {
          "profile": [
            "http://hl7.eu/fhir/laboratory/StructureDefinition/Observation-resultslab-eu-lab"
          ]
        },
        "performer": [
          {
            "display": "The Central European Lab"
          }
        ],
        "category": [
          {
            "coding": [
              {
                "system": "http://terminology.hl7.org/CodeSystem/observation-category",
                "code": "laboratory"
              }
            ]
          }
        ],
        "code": {
          "coding": [
            {
              "code": "21000-5",
              "system": "http://loinc.org",
              "display": "Erythrocyte distribution width [Entitic volume] by Automated count"
            }
          ],
          "text": "Erythrocyte distribution width [Entitic volume] by Automated count"
        },
        "valueQuantity": {
          "system": "http://unitsofmeasure.org",
          "value": 44.7,
          "unit": "fL",
          "code": "fL"
        },
        "referenceRange": [
          {
            "low": {
              "value": 39,
              "code": "fL",
              "system": "http://unitsofmeasure.org"
            }
          },
          {
            "high": {
              "value": 55,
              "code": "fL",
              "system": "http://unitsofmeasure.org"
            }
          }
        ],
        "text": {
          "status": "generated",
          "div": "<div xmlns=\"http://www.w3.org/1999/xhtml\"><table class=\"hl7__eu__lab__report\"><tr><th>Test</th><th>12-Jan-2020</th><th>Reference&#xA0;Range</th><th>Unit</th></tr><tr><td>Erythrocyte distribution width [Entitic volume] by Automated count</td><td>44.7</td><td>39 - 55</td><td></td><td>fL</td></tr></table></div>"
        },
        "status": "final",
        "subject": {
          "reference": "urn:uuid:5e52b5f5-e663-42e2-8826-21646e4360e3",
          "display": "Jason Forster"
        },
        "effectiveDateTime": "2020-01-12T10:37:02Z",
        "specimen": {
          "reference": "urn:uuid:8960d404-386c-4f3c-aa90-b7890f940560"
        }
      }
    },
    {
      "fullUrl": "urn:uuid:0d0c1a50-71ed-4fa7-bfe4-3c0dac2825d6",
      "resource": {
        "resourceType": "Observation",
        "id": "0d0c1a50-71ed-4fa7-bfe4-3c0dac2825d6",
        "meta": {
          "profile": [
            "http://hl7.eu/fhir/laboratory/StructureDefinition/Observation-resultslab-eu-lab"
          ]
        },
        "performer": [
          {
            "display": "The Central European Lab"
          }
        ],
        "category": [
          {
            "coding": [
              {
                "system": "http://terminology.hl7.org/CodeSystem/observation-category",
                "code": "laboratory"
              }
            ]
          }
        ],
        "code": {
          "coding": [
            {
              "code": "777-3",
              "system": "http://loinc.org",
              "display": "Platelets [#/volume] in Blood by Automated count"
            }
          ],
          "text": "Platelets [#/volume] in Blood by Automated count"
        },
        "valueQuantity": {
          "system": "http://unitsofmeasure.org",
          "value": 410.3,
          "unit": "10*3/uL",
          "code": "10*3/uL"
        },
        "referenceRange": [
          {
            "low": {
              "value": 155,
              "code": "10*3/uL",
              "system": "http://unitsofmeasure.org"
            }
          },
          {
            "high": {
              "value": 415,
              "code": "10*3/uL",
              "system": "http://unitsofmeasure.org"
            }
          }
        ],
        "text": {
          "status": "generated",
          "div": "<div xmlns=\"http://www.w3.org/1999/xhtml\"><table class=\"hl7__eu__lab__report\"><tr><th>Test</th><th>12-Jan-2020</th><th>Reference&#xA0;Range</th><th>Unit</th></tr><tr><td>Platelets [#/volume] in Blood by Automated count</td><td>410.3</td><td>155 - 415</td><td></td><td>10*3/uL</td></tr></table></div>"
        },
        "status": "final",
        "subject": {
          "reference": "urn:uuid:5e52b5f5-e663-42e2-8826-21646e4360e3",
          "display": "Jason Forster"
        },
        "effectiveDateTime": "2020-01-12T10:37:02Z",
        "specimen": {
          "reference": "urn:uuid:8960d404-386c-4f3c-aa90-b7890f940560"
        }
      }
    },
    {
      "fullUrl": "urn:uuid:6f649bd3-4ba8-4cb1-ad5f-6bba3eb90dfe",
      "resource": {
        "resourceType": "Observation",
        "id": "6f649bd3-4ba8-4cb1-ad5f-6bba3eb90dfe",
        "meta": {
          "profile": [
            "http://hl7.eu/fhir/laboratory/StructureDefinition/Observation-resultslab-eu-lab"
          ]
        },
        "performer": [
          {
            "display": "The Central European Lab"
          }
        ],
        "category": [
          {
            "coding": [
              {
                "system": "http://terminology.hl7.org/CodeSystem/observation-category",
                "code": "laboratory"
              }
            ]
          }
        ],
        "code": {
          "coding": [
            {
              "code": "32207-3",
              "system": "http://loinc.org",
              "display": "Platelet distribution width [Entitic volume] in Blood by Automated count"
            }
          ],
          "text": "Platelet distribution width [Entitic volume] in Blood by Automated count"
        },
        "valueQuantity": {
          "system": "http://unitsofmeasure.org",
          "value": 249.7,
          "unit": "fL",
          "code": "fL"
        },
        "referenceRange": [
          {
            "low": {
              "value": 13.4,
              "code": "fL",
              "system": "http://unitsofmeasure.org"
            }
          },
          {
            "high": {
              "value": 17.4,
              "code": "fL",
              "system": "http://unitsofmeasure.org"
            }
          }
        ],
        "interpretation": [
          {
            "coding": [
              {
                "code": "H",
                "system": "http://terminology.hl7.org/CodeSystem/v3-ObservationInterpretation",
                "display": "High"
              }
            ]
          }
        ],
        "text": {
          "status": "generated",
          "div": "<div xmlns=\"http://www.w3.org/1999/xhtml\"><table class=\"hl7__eu__lab__report\"><tr><th>Test</th><th>12-Jan-2020</th><th>Reference&#xA0;Range</th><th>Unit</th></tr><tr><td>Platelet distribution width [Entitic volume] in Blood by Automated count</td><td>249.7</td><td>13.4 - 17.4</td><td>H</td><td>fL</td></tr></table></div>"
        },
        "status": "final",
        "subject": {
          "reference": "urn:uuid:5e52b5f5-e663-42e2-8826-21646e4360e3",
          "display": "Jason Forster"
        },
        "effectiveDateTime": "2020-01-12T10:37:02Z",
        "specimen": {
          "reference": "urn:uuid:8960d404-386c-4f3c-aa90-b7890f940560"
        }
      }
    },
    {
      "fullUrl": "urn:uuid:f918348b-2dee-44ce-9054-663ca54f81fc",
      "resource": {
        "resourceType": "Observation",
        "id": "f918348b-2dee-44ce-9054-663ca54f81fc",
        "meta": {
          "profile": [
            "http://hl7.eu/fhir/laboratory/StructureDefinition/Observation-resultslab-eu-lab"
          ]
        },
        "performer": [
          {
            "display": "The Central European Lab"
          }
        ],
        "category": [
          {
            "coding": [
              {
                "system": "http://terminology.hl7.org/CodeSystem/observation-category",
                "code": "laboratory"
              }
            ]
          }
        ],
        "code": {
          "coding": [
            {
              "code": "32623-1",
              "system": "http://loinc.org",
              "display": "Platelet mean volume [Entitic volume] in Blood by Automated count"
            }
          ],
          "text": "Platelet mean volume [Entitic volume] in Blood by Automated count"
        },
        "valueQuantity": {
          "system": "http://unitsofmeasure.org",
          "value": 11.3,
          "unit": "fL",
          "code": "fL"
        },
        "referenceRange": [
          {
            "low": {
              "value": 9.6,
              "code": "fL",
              "system": "http://unitsofmeasure.org"
            }
          },
          {
            "high": {
              "value": 13.8,
              "code": "fL",
              "system": "http://unitsofmeasure.org"
            }
          }
        ],
        "text": {
          "status": "generated",
          "div": "<div xmlns=\"http://www.w3.org/1999/xhtml\"><table class=\"hl7__eu__lab__report\"><tr><th>Test</th><th>12-Jan-2020</th><th>Reference&#xA0;Range</th><th>Unit</th></tr><tr><td>Platelet mean volume [Entitic volume] in Blood by Automated count</td><td>11.3</td><td>9.6 - 13.8</td><td></td><td>fL</td></tr></table></div>"
        },
        "status": "final",
        "subject": {
          "reference": "urn:uuid:5e52b5f5-e663-42e2-8826-21646e4360e3",
          "display": "Jason Forster"
        },
        "effectiveDateTime": "2020-01-12T10:37:02Z",
        "specimen": {
          "reference": "urn:uuid:8960d404-386c-4f3c-aa90-b7890f940560"
        }
      }
    },
    {
      "fullUrl": "urn:uuid:3c7f4ead-ffbc-4491-82f0-8cc03f493ed0",
      "resource": {
        "resourceType": "Device",
        "id": "3c7f4ead-ffbc-4491-82f0-8cc03f493ed0",
        "deviceName": [
          {
            "name": "SYNDERAI Synthetic Generator",
            "type": "manufacturer-name"
          }
        ],
        "version": [
          {
            "value": "5.0"
          }
        ],
        "text": {
          "status": "generated",
          "div": "<div xmlns=\"http://www.w3.org/1999/xhtml\">SYNDERAI Synthetic Generator v5.0</div>"
        },
        "status": "active\"",
        "distinctIdentifier": "synderai-generator-50",
        "manufacturer": "SYNDERAI Project"
      }
    },
    {
      "fullUrl": "urn:uuid:c69972ad-2ec7-4707-b628-e6f925eaad0e",
      "resource": {
        "resourceType": "Provenance",
        "id": "c69972ad-2ec7-4707-b628-e6f925eaad0e",
        "target": [
          {
            "reference": "Patient/5e52b5f5-e663-42e2-8826-21646e4360e3"
          },
          {
            "reference": "Bundle/612e79a4-733a-49df-8201-ab8baf4d8821"
          },
          {
            "reference": "Composition/297ab0dc-6d34-4b67-99d2-62942e42dfb0"
          },
          {
            "reference": "PractitionerRole/8ea7d307-e310-4cc8-b5a0-83b86d3d4503"
          },
          {
            "reference": "Practitioner/0e3e96de-0f2f-4cfb-8523-42e15efd1232"
          },
          {
            "reference": "PractitionerRole/41b5a3a2-140f-4f8e-98b1-f6f91f38b076"
          },
          {
            "reference": "Organization/45eb303d-6cbd-495e-bae4-7bbc73ad214c"
          }
        ],
        "activity": {
          "text": "Synthetic Example Data Generation"
        },
        "policy": [
          "https://synderai.net/synderai-synthetic-data-policy"
        ],
        "agent": [
          {
            "type": {
              "text": "author"
            },
            "who": {
              "reference": "Device/3c7f4ead-ffbc-4491-82f0-8cc03f493ed0"
            }
          }
        ],
        "reason": [
          {
            "text": "Interoperability Testing and Training (non-clinical use)"
          }
        ],
        "text": {
          "status": "generated",
          "div": "<div xmlns=\"http://www.w3.org/1999/xhtml\">Provenance for SYNDERAI Synthetic Example Data Resource</div>"
        },
        "recorded": "2020-01-12T11:37:02Z"
      }
    },
    {
      "fullUrl": "urn:uuid:8ea7d307-e310-4cc8-b5a0-83b86d3d4503",
      "resource": {
        "resourceType": "PractitionerRole",
        "id": "8ea7d307-e310-4cc8-b5a0-83b86d3d4503",
        "meta": {
          "profile": [
            "http://hl7.eu/fhir/base/StructureDefinition/practitionerRole-eu"
          ]
        },
        "text": {
          "status": "generated",
          "div": "<div xmlns=\"http://www.w3.org/1999/xhtml\">Laboratory Role Id: 8ea7d307-e310-4cc8-b5a0-83b86d3d4503</div>"
        },
        "practitioner": {
          "reference": "urn:uuid:0e3e96de-0f2f-4cfb-8523-42e15efd1232"
        }
      }
    },
    {
      "fullUrl": "urn:uuid:0e3e96de-0f2f-4cfb-8523-42e15efd1232",
      "resource": {
        "resourceType": "Practitioner",
        "id": "0e3e96de-0f2f-4cfb-8523-42e15efd1232",
        "meta": {
          "profile": [
            "http://hl7.eu/fhir/base/StructureDefinition/practitioner-eu"
          ]
        },
        "identifier": [
          {
            "assigner": {
              "display": "HL7 Europe"
            },
            "system": "urn:oid:2.16.840.1.113883.2.51.999",
            "value": "566e2d26-7284-4cfe-8d55-6cb3da1acafe"
          }
        ],
        "name": [
          {
            "prefix": [
              "dr"
            ],
            "given": [
              "Ex"
            ],
            "family": "Ample"
          }
        ],
        "address": [
          {
            "line": [
              "Laboratoire Central Européenne",
              "Boulevard du Jardin Botanique 32"
            ],
            "postalCode": "1000",
            "city": "Brussels",
            "country": "Belgium"
          }
        ],
        "text": {
          "status": "generated",
          "div": "<div xmlns=\"http://www.w3.org/1999/xhtml\">Laboratory: Laboratoire Central Européenne, 1000 Brussels, Belgium</div>"
        }
      }
    }
  ],
  "type": "document",
  "timestamp": "2020-01-12T11:37:02Z"
}
