{
  "resourceType": "Bundle",
  "id": "9e5bd9cd-a2aa-4787-8a61-ca8eee235000",
  "meta": {
    "profile": [
      "http://hl7.eu/fhir/laboratory/StructureDefinition/Bundle-eu-lab"
    ]
  },
  "identifier": {
    "assigner": {
      "display": "HL7 Europe"
    },
    "system": "urn:oid:2.16.840.1.113883.2.51.999",
    "value": "28d6ab79-aa46-425e-b3a4-79d8e34ee8cc"
  },
  "entry": [
    {
      "fullUrl": "urn:uuid:7934f021-06e2-42c7-a594-9e553185c49f",
      "resource": {
        "resourceType": "Composition",
        "id": "7934f021-06e2-42c7-a594-9e553185c49f",
        "meta": {
          "profile": [
            "http://hl7.eu/fhir/laboratory/StructureDefinition/Composition-eu-lab"
          ]
        },
        "identifier": {
          "assigner": {
            "display": "HL7 Europe"
          },
          "system": "urn:oid:2.16.840.1.113883.2.51.999",
          "value": "620256c1-5fce-47ce-afc1-57e07761f40c"
        },
        "author": [
          {
            "reference": "urn:uuid:e847af23-cd05-4bc0-8510-91164289d962"
          }
        ],
        "category": [
          {
            "coding": [
              {
                "code": "26436-6",
                "system": "http://loinc.org",
                "display": "Laboratory studies (set)"
              }
            ]
          }
        ],
        "type": {
          "coding": [
            {
              "code": "11502-2",
              "system": "http://loinc.org",
              "display": "Laboratory report"
            }
          ],
          "text": "Laboratory Report"
        },
        "section": [
          {
            "code": {
              "coding": [
                {
                  "code": "26436-6",
                  "system": "http://loinc.org",
                  "display": "Laboratory studies (set)"
                }
              ],
              "text": "Laboratory studies"
            },
            "section": [
              {
                "code": {
                  "coding": [
                    {
                      "code": "$18719-5",
                      "system": "http://loinc.org",
                      "display": "Chemistry studies (set)"
                    }
                  ],
                  "text": "Chemistry"
                },
                "entry": [
                  {
                    "reference": "urn:uuid:60656c2f-5bbf-4a7d-a138-4b71eaae9d50"
                  },
                  {
                    "reference": "urn:uuid:fda69825-6b08-4ccd-807f-69e8a675bd62"
                  },
                  {
                    "reference": "urn:uuid:a4006328-ffb8-4837-a521-6a568b40c081"
                  },
                  {
                    "reference": "urn:uuid:1007c59b-68b2-4d1d-b388-e0d9bfba5e8e"
                  },
                  {
                    "reference": "urn:uuid:76c39a5e-5679-4e19-93c5-c1e21e12ccf3"
                  },
                  {
                    "reference": "urn:uuid:75115b64-8ee3-4f8f-a1d4-0a4acf547c54"
                  },
                  {
                    "reference": "urn:uuid:b8a10bc3-de44-4d8c-8a80-b3d10ad8f5cc"
                  },
                  {
                    "reference": "urn:uuid:debd0f70-ab40-484a-9589-24afc634f4a9"
                  },
                  {
                    "reference": "urn:uuid:912c653c-de5d-4c50-b880-0962a04c9469"
                  }
                ],
                "text": {
                  "status": "generated",
                  "div": "<div xmlns=\"http://www.w3.org/1999/xhtml\"><h3>Chemistry</h3><table class=\"hl7__eu__lab__report\"><thead><tr><th>Test</th><th>02-JUL-2023</th><th>Reference&#xA0;Range</th><th>Unit</th></tr></thead><tbody><tr><td>Hemoglobin A1c/Hemoglobin.total in Blood</td><td>6.0</td><td>4 - 6</td><td>%</td></tr><tr><td>Glucose [Mass/volume] in Blood</td><td>91.0</td><td>70 - 99</td><td>mg/dL</td></tr><tr><td>Urea nitrogen [Mass/volume] in Blood</td><td>17.2</td><td>7 - 20</td><td>mg/dL</td></tr><tr><td>Creatinine [Mass/volume] in Blood</td><td><strong>1.4 H</strong></td><td>0.6 - 1.3</td><td>mg/dL</td></tr><tr><td>Calcium [Mass/volume] in Blood</td><td>9.6</td><td>8.5 - 10.5</td><td>mg/dL</td></tr><tr><td>Sodium [Moles/volume] in Blood</td><td>138.2</td><td>135 - 145</td><td>mmol/L</td></tr><tr><td>Potassium [Moles/volume] in Blood</td><td>4.0</td><td>3.5 - 5.2</td><td>mmol/L</td></tr><tr><td>Chloride [Moles/volume] in Blood</td><td>107.2</td><td>98 - 114</td><td>mmol/L</td></tr><tr><td>Carbon dioxide, total [Moles/volume] in Blood</td><td>29.0</td><td>24 - 29</td><td>mmol/L</td></tr></tbody></table></div>"
                },
                "title": "Chemistry"
              }
            ],
            "title": "Laboratory Report"
          },
          {
            "text": {
              "status": "generated",
              "div": "<div xmlns=\"http://www.w3.org/1999/xhtml\"><h3>Annotation</h3><table class=\"hl7__eu__lab__report\"><tr><th>Conclusion and Recommendations based on this report and previous findings known to us</th></tr><tr><td>All results are within normal limits except for a mildly elevated creatinine (1.4 mg/dL), which may suggest reduced kidney function or dehydration. Hemoglobin A1c is at the upper limit of normal, indicating good glycemic control but close monitoring is advised. No acute abnormalities detected; recommend clinical correlation and follow-up of renal function.</td></tr></table></div>"
            },
            "code": {
              "coding": [
                {
                  "system": "http://loinc.org",
                  "code": "48767-8",
                  "display": "Annotation comment"
                }
              ]
            },
            "title": "Annotation comment"
          }
        ],
        "status": "final",
        "subject": {
          "reference": "urn:uuid:15d82062-d1d3-4cae-b5e8-8b1f6b6313b0",
          "display": "Benedetto Lombroso"
        },
        "date": "2023-07-02T09:22:02Z",
        "title": "Laboratory Report",
        "confidentiality": "N"
      }
    },
    {
      "fullUrl": "urn:uuid:4ca10d22-ae89-4e63-bec4-1a345e99f8b8",
      "resource": {
        "resourceType": "DiagnosticReport",
        "id": "4ca10d22-ae89-4e63-bec4-1a345e99f8b8",
        "meta": {
          "profile": [
            "http://hl7.eu/fhir/laboratory/StructureDefinition/DiagnosticReport-eu-lab"
          ]
        },
        "identifier": [
          {
            "assigner": {
              "display": "HL7 Europe"
            },
            "system": "urn:oid:2.16.840.1.113883.2.51.999",
            "value": "058d97b2-cc00-47d3-942b-60101b7c74f2"
          }
        ],
        "extension": [
          {
            "url": "http://hl7.org/fhir/5.0/StructureDefinition/extension-DiagnosticReport.composition",
            "valueReference": {
              "reference": "urn:uuid:620256c1-5fce-47ce-afc1-57e07761f40c"
            }
          }
        ],
        "category": [
          {
            "coding": [
              {
                "code": "26436-6",
                "system": "http://loinc.org",
                "display": "Laboratory studies (set)"
              }
            ]
          }
        ],
        "specimen": [
          {
            "reference": "urn:uuid:f3c645e4-448c-4512-91e6-7c26d7a62708"
          }
        ],
        "result": [
          {
            "reference": "urn:uuid:60656c2f-5bbf-4a7d-a138-4b71eaae9d50"
          },
          {
            "reference": "urn:uuid:fda69825-6b08-4ccd-807f-69e8a675bd62"
          },
          {
            "reference": "urn:uuid:a4006328-ffb8-4837-a521-6a568b40c081"
          },
          {
            "reference": "urn:uuid:1007c59b-68b2-4d1d-b388-e0d9bfba5e8e"
          },
          {
            "reference": "urn:uuid:76c39a5e-5679-4e19-93c5-c1e21e12ccf3"
          },
          {
            "reference": "urn:uuid:75115b64-8ee3-4f8f-a1d4-0a4acf547c54"
          },
          {
            "reference": "urn:uuid:b8a10bc3-de44-4d8c-8a80-b3d10ad8f5cc"
          },
          {
            "reference": "urn:uuid:debd0f70-ab40-484a-9589-24afc634f4a9"
          },
          {
            "reference": "urn:uuid:912c653c-de5d-4c50-b880-0962a04c9469"
          }
        ],
        "status": "registered",
        "code": {
          "coding": [
            {
              "code": "11502-2",
              "system": "http://loinc.org",
              "display": "Laboratory report"
            }
          ]
        },
        "subject": {
          "reference": "urn:uuid:15d82062-d1d3-4cae-b5e8-8b1f6b6313b0",
          "display": "Benedetto Lombroso"
        }
      }
    },
    {
      "fullUrl": "urn:uuid:15d82062-d1d3-4cae-b5e8-8b1f6b6313b0",
      "resource": {
        "resourceType": "Patient",
        "id": "15d82062-d1d3-4cae-b5e8-8b1f6b6313b0",
        "meta": {
          "security": [
            {
              "system": "http://terminology.hl7.org/CodeSystem/v3-ActReason",
              "code": "HTEST"
            },
            {
              "system": "http://terminology.hl7.org/CodeSystem/v3-ActReason",
              "code": "TRAIN"
            }
          ],
          "tag": [
            {
              "system": "https://synderai.net/fhir/CodeSystem/tags",
              "code": "synthetic",
              "display": "SYNDERAI Synthetic data"
            }
          ],
          "profile": [
            "http://hl7.eu/fhir/base/StructureDefinition/patient-eu-core"
          ]
        },
        "identifier": [
          {
            "type": {
              "coding": [
                {
                  "code": "PT",
                  "system": "http://terminology.hl7.org/CodeSystem/v2-0203"
                }
              ]
            },
            "system": "http://ec.europa.eu/identifier/eci",
            "value": "9244-804304-9"
          },
          {
            "type": {
              "coding": [
                {
                  "code": "MR",
                  "system": "http://terminology.hl7.org/CodeSystem/v2-0203"
                }
              ]
            },
            "system": "http://local.setting.eu/identifier",
            "value": "320c36e6-403e-bb27-4756-8ebdd21bc0e5"
          }
        ],
        "name": [
          {
            "family": "Lombroso"
          },
          {
            "given": [
              "Benedetto"
            ]
          },
          {
            "text": "Benedetto Lombroso"
          }
        ],
        "address": [
          {
            "line": [
              "Stretto Zaccagnini, 924"
            ],
            "use": "home",
            "type": "physical",
            "postalCode": "37121",
            "city": "Verona",
            "country": "Italy"
          }
        ],
        "telecom": [
          {
            "system": "phone",
            "value": "+39 016691228"
          }
        ],
        "extension": [
          {
            "url": "http://hl7.org/fhir/StructureDefinition/patient-nationality",
            "valueCodeableConcept": {
              "coding": [
                {
                  "code": "IT",
                  "system": "http://hl7.org/fhir/ValueSet/country"
                }
              ]
            }
          }
        ],
        "text": {
          "status": "generated",
          "div": "<div xmlns=\"http://www.w3.org/1999/xhtml\"><table class=\"hl7__ips\"><tr><td>Benedetto Lombroso</td><td>male</td><td>07-May-1989</td></tr></table></div>"
        },
        "gender": "male",
        "birthDate": "1989-05-07"
      }
    },
    {
      "fullUrl": "urn:uuid:f52b9945-75bc-4ff8-a13f-3adf01ea653e",
      "resource": {
        "resourceType": "ServiceRequest",
        "id": "f52b9945-75bc-4ff8-a13f-3adf01ea653e",
        "meta": {
          "profile": [
            "http://hl7.eu/fhir/laboratory/StructureDefinition/ServiceRequest-eu-lab"
          ]
        },
        "identifier": [
          {
            "system": "http://example.org",
            "value": "bfaec241-4561-48a9-bb16-7b41696988ac"
          }
        ],
        "specimen": [
          {
            "reference": "urn:uuid:f3c645e4-448c-4512-91e6-7c26d7a62708"
          }
        ],
        "reasonCode": [
          {
            "coding": [
              {
                "code": "15777000",
                "system": "http://snomed.info/sct",
                "display": "Prediabetes"
              }
            ]
          },
          {
            "coding": [
              {
                "code": "271737000",
                "system": "http://snomed.info/sct",
                "display": "Anemia"
              }
            ]
          }
        ],
        "status": "active",
        "intent": "order",
        "code": {
          "coding": [
            {
              "code": "108252007",
              "system": "http://snomed.info/sct",
              "display": "Laboratory procedure"
            }
          ]
        },
        "subject": {
          "reference": "urn:uuid:15d82062-d1d3-4cae-b5e8-8b1f6b6313b0",
          "display": "Benedetto Lombroso"
        },
        "requester": {
          "reference": "urn:uuid:10e4278e-946d-4fe6-9341-06dd3aadd1db"
        }
      }
    },
    {
      "fullUrl": "urn:uuid:10e4278e-946d-4fe6-9341-06dd3aadd1db",
      "resource": {
        "resourceType": "PractitionerRole",
        "id": "10e4278e-946d-4fe6-9341-06dd3aadd1db",
        "meta": {
          "profile": [
            "http://hl7.eu/fhir/base/StructureDefinition/practitionerRole-eu"
          ]
        },
        "text": {
          "status": "generated",
          "div": "<div xmlns=\"http://www.w3.org/1999/xhtml\">Provider Role Id: 10e4278e-946d-4fe6-9341-06dd3aadd1db</div>"
        },
        "organization": {
          "reference": "urn:uuid:7ac6e52c-6296-489b-bad0-16f0d3eacaaa"
        }
      }
    },
    {
      "fullUrl": "urn:uuid:7ac6e52c-6296-489b-bad0-16f0d3eacaaa",
      "resource": {
        "resourceType": "Organization",
        "id": "7ac6e52c-6296-489b-bad0-16f0d3eacaaa",
        "meta": {
          "profile": [
            "http://hl7.eu/fhir/base/StructureDefinition/organization-eu"
          ]
        },
        "identifier": [
          {
            "assigner": {
              "display": "HL7 Europe"
            },
            "system": "urn:oid:2.16.840.1.113883.2.51.999",
            "value": "4afc5aa9-9e5e-4863-a789-fdc3b3abf0fe"
          }
        ],
        "address": [
          {
            "line": [
              "Piazzale Aristide Stefani 1"
            ],
            "city": "Verona",
            "postalCode": "37124",
            "country": "Italy"
          }
        ],
        "text": {
          "status": "generated",
          "div": "<div xmlns=\"http://www.w3.org/1999/xhtml\">Provider Organization: Ospedale Civile Maggiore</div>"
        },
        "name": "Ospedale Civile Maggiore"
      }
    },
    {
      "fullUrl": "urn:uuid:f3c645e4-448c-4512-91e6-7c26d7a62708",
      "resource": {
        "resourceType": "Specimen",
        "id": "f3c645e4-448c-4512-91e6-7c26d7a62708",
        "meta": {
          "profile": [
            "http://hl7.eu/fhir/laboratory/StructureDefinition/Specimen-eu-lab"
          ]
        },
        "collection": {
          "collectedDateTime": "2023-07-02"
        },
        "text": {
          "status": "generated",
          "div": "<div xmlns=\"http://www.w3.org/1999/xhtml\"><table class=\"hl7__eu__lab__report\"><tr><th>Specimen</th><th>Collection Date</th></tr><tr><td>Whole blood specimen (specimen)</td><td><span class=\"nb\">02-Jul-2023</span></td></tr></table></div>"
        },
        "type": {
          "coding": [
            {
              "code": "258580003",
              "system": "http://snomed.info/sct",
              "display": "Whole blood specimen (specimen)"
            }
          ]
        }
      }
    },
    {
      "fullUrl": "urn:uuid:60656c2f-5bbf-4a7d-a138-4b71eaae9d50",
      "resource": {
        "resourceType": "Observation",
        "id": "60656c2f-5bbf-4a7d-a138-4b71eaae9d50",
        "meta": {
          "profile": [
            "http://hl7.eu/fhir/laboratory/StructureDefinition/Observation-resultslab-eu-lab"
          ]
        },
        "performer": [
          {
            "display": "The Central European Lab"
          }
        ],
        "category": [
          {
            "coding": [
              {
                "system": "http://terminology.hl7.org/CodeSystem/observation-category",
                "code": "laboratory"
              }
            ]
          }
        ],
        "code": {
          "coding": [
            {
              "code": "4548-4",
              "system": "http://loinc.org",
              "display": "Hemoglobin A1c/Hemoglobin.total in Blood"
            }
          ],
          "text": "Hemoglobin A1c/Hemoglobin.total in Blood"
        },
        "valueQuantity": {
          "system": "http://unitsofmeasure.org",
          "value": 6,
          "unit": "%",
          "code": "%"
        },
        "referenceRange": [
          {
            "low": {
              "value": 4,
              "code": "%",
              "system": "http://unitsofmeasure.org"
            }
          },
          {
            "high": {
              "value": 6,
              "code": "%",
              "system": "http://unitsofmeasure.org"
            }
          }
        ],
        "text": {
          "status": "generated",
          "div": "<div xmlns=\"http://www.w3.org/1999/xhtml\"><table class=\"hl7__eu__lab__report\"><tr><th>Test</th><th>02-Jul-2023</th><th>Reference&#xA0;Range</th><th>Unit</th></tr><tr><td>Hemoglobin A1c/Hemoglobin.total in Blood</td><td>6.0</td><td>4 - 6</td><td></td><td>%</td></tr></table></div>"
        },
        "status": "final",
        "subject": {
          "reference": "urn:uuid:15d82062-d1d3-4cae-b5e8-8b1f6b6313b0",
          "display": "Benedetto Lombroso"
        },
        "effectiveDateTime": "2023-07-02T07:22:02Z",
        "specimen": {
          "reference": "urn:uuid:f3c645e4-448c-4512-91e6-7c26d7a62708"
        }
      }
    },
    {
      "fullUrl": "urn:uuid:fda69825-6b08-4ccd-807f-69e8a675bd62",
      "resource": {
        "resourceType": "Observation",
        "id": "fda69825-6b08-4ccd-807f-69e8a675bd62",
        "meta": {
          "profile": [
            "http://hl7.eu/fhir/laboratory/StructureDefinition/Observation-resultslab-eu-lab"
          ]
        },
        "performer": [
          {
            "display": "The Central European Lab"
          }
        ],
        "category": [
          {
            "coding": [
              {
                "system": "http://terminology.hl7.org/CodeSystem/observation-category",
                "code": "laboratory"
              }
            ]
          }
        ],
        "code": {
          "coding": [
            {
              "code": "2339-0",
              "system": "http://loinc.org",
              "display": "Glucose [Mass/volume] in Blood"
            }
          ],
          "text": "Glucose [Mass/volume] in Blood"
        },
        "valueQuantity": {
          "system": "http://unitsofmeasure.org",
          "value": 91,
          "unit": "mg/dL",
          "code": "mg/dL"
        },
        "referenceRange": [
          {
            "low": {
              "value": 70,
              "code": "mg/dL",
              "system": "http://unitsofmeasure.org"
            }
          },
          {
            "high": {
              "value": 99,
              "code": "mg/dL",
              "system": "http://unitsofmeasure.org"
            }
          }
        ],
        "text": {
          "status": "generated",
          "div": "<div xmlns=\"http://www.w3.org/1999/xhtml\"><table class=\"hl7__eu__lab__report\"><tr><th>Test</th><th>02-Jul-2023</th><th>Reference&#xA0;Range</th><th>Unit</th></tr><tr><td>Glucose [Mass/volume] in Blood</td><td>91.0</td><td>70 - 99</td><td></td><td>mg/dL</td></tr></table></div>"
        },
        "status": "final",
        "subject": {
          "reference": "urn:uuid:15d82062-d1d3-4cae-b5e8-8b1f6b6313b0",
          "display": "Benedetto Lombroso"
        },
        "effectiveDateTime": "2023-07-02T07:22:02Z",
        "specimen": {
          "reference": "urn:uuid:f3c645e4-448c-4512-91e6-7c26d7a62708"
        }
      }
    },
    {
      "fullUrl": "urn:uuid:a4006328-ffb8-4837-a521-6a568b40c081",
      "resource": {
        "resourceType": "Observation",
        "id": "a4006328-ffb8-4837-a521-6a568b40c081",
        "meta": {
          "profile": [
            "http://hl7.eu/fhir/laboratory/StructureDefinition/Observation-resultslab-eu-lab"
          ]
        },
        "performer": [
          {
            "display": "The Central European Lab"
          }
        ],
        "category": [
          {
            "coding": [
              {
                "system": "http://terminology.hl7.org/CodeSystem/observation-category",
                "code": "laboratory"
              }
            ]
          }
        ],
        "code": {
          "coding": [
            {
              "code": "6299-2",
              "system": "http://loinc.org",
              "display": "Urea nitrogen [Mass/volume] in Blood"
            }
          ],
          "text": "Urea nitrogen [Mass/volume] in Blood"
        },
        "valueQuantity": {
          "system": "http://unitsofmeasure.org",
          "value": 17.2,
          "unit": "mg/dL",
          "code": "mg/dL"
        },
        "referenceRange": [
          {
            "low": {
              "value": 7,
              "code": "mg/dL",
              "system": "http://unitsofmeasure.org"
            }
          },
          {
            "high": {
              "value": 20,
              "code": "mg/dL",
              "system": "http://unitsofmeasure.org"
            }
          }
        ],
        "text": {
          "status": "generated",
          "div": "<div xmlns=\"http://www.w3.org/1999/xhtml\"><table class=\"hl7__eu__lab__report\"><tr><th>Test</th><th>02-Jul-2023</th><th>Reference&#xA0;Range</th><th>Unit</th></tr><tr><td>Urea nitrogen [Mass/volume] in Blood</td><td>17.2</td><td>7 - 20</td><td></td><td>mg/dL</td></tr></table></div>"
        },
        "status": "final",
        "subject": {
          "reference": "urn:uuid:15d82062-d1d3-4cae-b5e8-8b1f6b6313b0",
          "display": "Benedetto Lombroso"
        },
        "effectiveDateTime": "2023-07-02T07:22:02Z",
        "specimen": {
          "reference": "urn:uuid:f3c645e4-448c-4512-91e6-7c26d7a62708"
        }
      }
    },
    {
      "fullUrl": "urn:uuid:1007c59b-68b2-4d1d-b388-e0d9bfba5e8e",
      "resource": {
        "resourceType": "Observation",
        "id": "1007c59b-68b2-4d1d-b388-e0d9bfba5e8e",
        "meta": {
          "profile": [
            "http://hl7.eu/fhir/laboratory/StructureDefinition/Observation-resultslab-eu-lab"
          ]
        },
        "performer": [
          {
            "display": "The Central European Lab"
          }
        ],
        "category": [
          {
            "coding": [
              {
                "system": "http://terminology.hl7.org/CodeSystem/observation-category",
                "code": "laboratory"
              }
            ]
          }
        ],
        "code": {
          "coding": [
            {
              "code": "38483-4",
              "system": "http://loinc.org",
              "display": "Creatinine [Mass/volume] in Blood"
            }
          ],
          "text": "Creatinine [Mass/volume] in Blood"
        },
        "valueQuantity": {
          "system": "http://unitsofmeasure.org",
          "value": 1.4,
          "unit": "mg/dL",
          "code": "mg/dL"
        },
        "referenceRange": [
          {
            "low": {
              "value": 0.6,
              "code": "mg/dL",
              "system": "http://unitsofmeasure.org"
            }
          },
          {
            "high": {
              "value": 1.3,
              "code": "mg/dL",
              "system": "http://unitsofmeasure.org"
            }
          }
        ],
        "interpretation": [
          {
            "coding": [
              {
                "code": "H",
                "system": "http://terminology.hl7.org/CodeSystem/v3-ObservationInterpretation",
                "display": "High"
              }
            ]
          }
        ],
        "text": {
          "status": "generated",
          "div": "<div xmlns=\"http://www.w3.org/1999/xhtml\"><table class=\"hl7__eu__lab__report\"><tr><th>Test</th><th>02-Jul-2023</th><th>Reference&#xA0;Range</th><th>Unit</th></tr><tr><td>Creatinine [Mass/volume] in Blood</td><td>1.4</td><td>0.6 - 1.3</td><td>H</td><td>mg/dL</td></tr></table></div>"
        },
        "status": "final",
        "subject": {
          "reference": "urn:uuid:15d82062-d1d3-4cae-b5e8-8b1f6b6313b0",
          "display": "Benedetto Lombroso"
        },
        "effectiveDateTime": "2023-07-02T07:22:02Z",
        "specimen": {
          "reference": "urn:uuid:f3c645e4-448c-4512-91e6-7c26d7a62708"
        }
      }
    },
    {
      "fullUrl": "urn:uuid:76c39a5e-5679-4e19-93c5-c1e21e12ccf3",
      "resource": {
        "resourceType": "Observation",
        "id": "76c39a5e-5679-4e19-93c5-c1e21e12ccf3",
        "meta": {
          "profile": [
            "http://hl7.eu/fhir/laboratory/StructureDefinition/Observation-resultslab-eu-lab"
          ]
        },
        "performer": [
          {
            "display": "The Central European Lab"
          }
        ],
        "category": [
          {
            "coding": [
              {
                "system": "http://terminology.hl7.org/CodeSystem/observation-category",
                "code": "laboratory"
              }
            ]
          }
        ],
        "code": {
          "coding": [
            {
              "code": "49765-1",
              "system": "http://loinc.org",
              "display": "Calcium [Mass/volume] in Blood"
            }
          ],
          "text": "Calcium [Mass/volume] in Blood"
        },
        "valueQuantity": {
          "system": "http://unitsofmeasure.org",
          "value": 9.6,
          "unit": "mg/dL",
          "code": "mg/dL"
        },
        "referenceRange": [
          {
            "low": {
              "value": 8.5,
              "code": "mg/dL",
              "system": "http://unitsofmeasure.org"
            }
          },
          {
            "high": {
              "value": 10.5,
              "code": "mg/dL",
              "system": "http://unitsofmeasure.org"
            }
          }
        ],
        "text": {
          "status": "generated",
          "div": "<div xmlns=\"http://www.w3.org/1999/xhtml\"><table class=\"hl7__eu__lab__report\"><tr><th>Test</th><th>02-Jul-2023</th><th>Reference&#xA0;Range</th><th>Unit</th></tr><tr><td>Calcium [Mass/volume] in Blood</td><td>9.6</td><td>8.5 - 10.5</td><td></td><td>mg/dL</td></tr></table></div>"
        },
        "status": "final",
        "subject": {
          "reference": "urn:uuid:15d82062-d1d3-4cae-b5e8-8b1f6b6313b0",
          "display": "Benedetto Lombroso"
        },
        "effectiveDateTime": "2023-07-02T07:22:02Z",
        "specimen": {
          "reference": "urn:uuid:f3c645e4-448c-4512-91e6-7c26d7a62708"
        }
      }
    },
    {
      "fullUrl": "urn:uuid:75115b64-8ee3-4f8f-a1d4-0a4acf547c54",
      "resource": {
        "resourceType": "Observation",
        "id": "75115b64-8ee3-4f8f-a1d4-0a4acf547c54",
        "meta": {
          "profile": [
            "http://hl7.eu/fhir/laboratory/StructureDefinition/Observation-resultslab-eu-lab"
          ]
        },
        "performer": [
          {
            "display": "The Central European Lab"
          }
        ],
        "category": [
          {
            "coding": [
              {
                "system": "http://terminology.hl7.org/CodeSystem/observation-category",
                "code": "laboratory"
              }
            ]
          }
        ],
        "code": {
          "coding": [
            {
              "code": "2947-0",
              "system": "http://loinc.org",
              "display": "Sodium [Moles/volume] in Blood"
            }
          ],
          "text": "Sodium [Moles/volume] in Blood"
        },
        "valueQuantity": {
          "system": "http://unitsofmeasure.org",
          "value": 138.2,
          "unit": "mmol/L",
          "code": "mmol/L"
        },
        "referenceRange": [
          {
            "low": {
              "value": 135,
              "code": "mmol/L",
              "system": "http://unitsofmeasure.org"
            }
          },
          {
            "high": {
              "value": 145,
              "code": "mmol/L",
              "system": "http://unitsofmeasure.org"
            }
          }
        ],
        "text": {
          "status": "generated",
          "div": "<div xmlns=\"http://www.w3.org/1999/xhtml\"><table class=\"hl7__eu__lab__report\"><tr><th>Test</th><th>02-Jul-2023</th><th>Reference&#xA0;Range</th><th>Unit</th></tr><tr><td>Sodium [Moles/volume] in Blood</td><td>138.2</td><td>135 - 145</td><td></td><td>mmol/L</td></tr></table></div>"
        },
        "status": "final",
        "subject": {
          "reference": "urn:uuid:15d82062-d1d3-4cae-b5e8-8b1f6b6313b0",
          "display": "Benedetto Lombroso"
        },
        "effectiveDateTime": "2023-07-02T07:22:02Z",
        "specimen": {
          "reference": "urn:uuid:f3c645e4-448c-4512-91e6-7c26d7a62708"
        }
      }
    },
    {
      "fullUrl": "urn:uuid:b8a10bc3-de44-4d8c-8a80-b3d10ad8f5cc",
      "resource": {
        "resourceType": "Observation",
        "id": "b8a10bc3-de44-4d8c-8a80-b3d10ad8f5cc",
        "meta": {
          "profile": [
            "http://hl7.eu/fhir/laboratory/StructureDefinition/Observation-resultslab-eu-lab"
          ]
        },
        "performer": [
          {
            "display": "The Central European Lab"
          }
        ],
        "category": [
          {
            "coding": [
              {
                "system": "http://terminology.hl7.org/CodeSystem/observation-category",
                "code": "laboratory"
              }
            ]
          }
        ],
        "code": {
          "coding": [
            {
              "code": "6298-4",
              "system": "http://loinc.org",
              "display": "Potassium [Moles/volume] in Blood"
            }
          ],
          "text": "Potassium [Moles/volume] in Blood"
        },
        "valueQuantity": {
          "system": "http://unitsofmeasure.org",
          "value": 4,
          "unit": "mmol/L",
          "code": "mmol/L"
        },
        "referenceRange": [
          {
            "low": {
              "value": 3.5,
              "code": "mmol/L",
              "system": "http://unitsofmeasure.org"
            }
          },
          {
            "high": {
              "value": 5.2,
              "code": "mmol/L",
              "system": "http://unitsofmeasure.org"
            }
          }
        ],
        "text": {
          "status": "generated",
          "div": "<div xmlns=\"http://www.w3.org/1999/xhtml\"><table class=\"hl7__eu__lab__report\"><tr><th>Test</th><th>02-Jul-2023</th><th>Reference&#xA0;Range</th><th>Unit</th></tr><tr><td>Potassium [Moles/volume] in Blood</td><td>4.0</td><td>3.5 - 5.2</td><td></td><td>mmol/L</td></tr></table></div>"
        },
        "status": "final",
        "subject": {
          "reference": "urn:uuid:15d82062-d1d3-4cae-b5e8-8b1f6b6313b0",
          "display": "Benedetto Lombroso"
        },
        "effectiveDateTime": "2023-07-02T07:22:02Z",
        "specimen": {
          "reference": "urn:uuid:f3c645e4-448c-4512-91e6-7c26d7a62708"
        }
      }
    },
    {
      "fullUrl": "urn:uuid:debd0f70-ab40-484a-9589-24afc634f4a9",
      "resource": {
        "resourceType": "Observation",
        "id": "debd0f70-ab40-484a-9589-24afc634f4a9",
        "meta": {
          "profile": [
            "http://hl7.eu/fhir/laboratory/StructureDefinition/Observation-resultslab-eu-lab"
          ]
        },
        "performer": [
          {
            "display": "The Central European Lab"
          }
        ],
        "category": [
          {
            "coding": [
              {
                "system": "http://terminology.hl7.org/CodeSystem/observation-category",
                "code": "laboratory"
              }
            ]
          }
        ],
        "code": {
          "coding": [
            {
              "code": "2069-3",
              "system": "http://loinc.org",
              "display": "Chloride [Moles/volume] in Blood"
            }
          ],
          "text": "Chloride [Moles/volume] in Blood"
        },
        "valueQuantity": {
          "system": "http://unitsofmeasure.org",
          "value": 107.2,
          "unit": "mmol/L",
          "code": "mmol/L"
        },
        "referenceRange": [
          {
            "low": {
              "value": 98,
              "code": "mmol/L",
              "system": "http://unitsofmeasure.org"
            }
          },
          {
            "high": {
              "value": 114,
              "code": "mmol/L",
              "system": "http://unitsofmeasure.org"
            }
          }
        ],
        "text": {
          "status": "generated",
          "div": "<div xmlns=\"http://www.w3.org/1999/xhtml\"><table class=\"hl7__eu__lab__report\"><tr><th>Test</th><th>02-Jul-2023</th><th>Reference&#xA0;Range</th><th>Unit</th></tr><tr><td>Chloride [Moles/volume] in Blood</td><td>107.2</td><td>98 - 114</td><td></td><td>mmol/L</td></tr></table></div>"
        },
        "status": "final",
        "subject": {
          "reference": "urn:uuid:15d82062-d1d3-4cae-b5e8-8b1f6b6313b0",
          "display": "Benedetto Lombroso"
        },
        "effectiveDateTime": "2023-07-02T07:22:02Z",
        "specimen": {
          "reference": "urn:uuid:f3c645e4-448c-4512-91e6-7c26d7a62708"
        }
      }
    },
    {
      "fullUrl": "urn:uuid:912c653c-de5d-4c50-b880-0962a04c9469",
      "resource": {
        "resourceType": "Observation",
        "id": "912c653c-de5d-4c50-b880-0962a04c9469",
        "meta": {
          "profile": [
            "http://hl7.eu/fhir/laboratory/StructureDefinition/Observation-resultslab-eu-lab"
          ]
        },
        "performer": [
          {
            "display": "The Central European Lab"
          }
        ],
        "category": [
          {
            "coding": [
              {
                "system": "http://terminology.hl7.org/CodeSystem/observation-category",
                "code": "laboratory"
              }
            ]
          }
        ],
        "code": {
          "coding": [
            {
              "code": "20565-8",
              "system": "http://loinc.org",
              "display": "Carbon dioxide, total [Moles/volume] in Blood"
            }
          ],
          "text": "Carbon dioxide, total [Moles/volume] in Blood"
        },
        "valueQuantity": {
          "system": "http://unitsofmeasure.org",
          "value": 29,
          "unit": "mmol/L",
          "code": "mmol/L"
        },
        "referenceRange": [
          {
            "low": {
              "value": 24,
              "code": "mmol/L",
              "system": "http://unitsofmeasure.org"
            }
          },
          {
            "high": {
              "value": 29,
              "code": "mmol/L",
              "system": "http://unitsofmeasure.org"
            }
          }
        ],
        "text": {
          "status": "generated",
          "div": "<div xmlns=\"http://www.w3.org/1999/xhtml\"><table class=\"hl7__eu__lab__report\"><tr><th>Test</th><th>02-Jul-2023</th><th>Reference&#xA0;Range</th><th>Unit</th></tr><tr><td>Carbon dioxide, total [Moles/volume] in Blood</td><td>29.0</td><td>24 - 29</td><td></td><td>mmol/L</td></tr></table></div>"
        },
        "status": "final",
        "subject": {
          "reference": "urn:uuid:15d82062-d1d3-4cae-b5e8-8b1f6b6313b0",
          "display": "Benedetto Lombroso"
        },
        "effectiveDateTime": "2023-07-02T07:22:02Z",
        "specimen": {
          "reference": "urn:uuid:f3c645e4-448c-4512-91e6-7c26d7a62708"
        }
      }
    },
    {
      "fullUrl": "urn:uuid:ad76886d-f14f-464d-97e6-d28164d52ec6",
      "resource": {
        "resourceType": "Device",
        "id": "ad76886d-f14f-464d-97e6-d28164d52ec6",
        "deviceName": [
          {
            "name": "SYNDERAI Synthetic Generator",
            "type": "manufacturer-name"
          }
        ],
        "version": [
          {
            "value": "5.0"
          }
        ],
        "text": {
          "status": "generated",
          "div": "<div xmlns=\"http://www.w3.org/1999/xhtml\">SYNDERAI Synthetic Generator v5.0</div>"
        },
        "status": "active\"",
        "distinctIdentifier": "synderai-generator-50",
        "manufacturer": "SYNDERAI Project"
      }
    },
    {
      "fullUrl": "urn:uuid:6b275127-1e68-46b4-bc2f-72a8b2d35fca",
      "resource": {
        "resourceType": "Provenance",
        "id": "6b275127-1e68-46b4-bc2f-72a8b2d35fca",
        "target": [
          {
            "reference": "Patient/15d82062-d1d3-4cae-b5e8-8b1f6b6313b0"
          },
          {
            "reference": "Bundle/9e5bd9cd-a2aa-4787-8a61-ca8eee235000"
          },
          {
            "reference": "Composition/7934f021-06e2-42c7-a594-9e553185c49f"
          },
          {
            "reference": "PractitionerRole/e847af23-cd05-4bc0-8510-91164289d962"
          },
          {
            "reference": "Practitioner/98ab80bb-f516-439b-8a02-9c8522f0f03d"
          },
          {
            "reference": "PractitionerRole/10e4278e-946d-4fe6-9341-06dd3aadd1db"
          },
          {
            "reference": "Organization/7ac6e52c-6296-489b-bad0-16f0d3eacaaa"
          }
        ],
        "activity": {
          "text": "Synthetic Example Data Generation"
        },
        "policy": [
          "https://synderai.net/synderai-synthetic-data-policy"
        ],
        "agent": [
          {
            "type": {
              "text": "author"
            },
            "who": {
              "reference": "Device/ad76886d-f14f-464d-97e6-d28164d52ec6"
            }
          }
        ],
        "reason": [
          {
            "text": "Interoperability Testing and Training (non-clinical use)"
          }
        ],
        "text": {
          "status": "generated",
          "div": "<div xmlns=\"http://www.w3.org/1999/xhtml\">Provenance for SYNDERAI Synthetic Example Data Resource</div>"
        },
        "recorded": "2023-07-02T09:22:02Z"
      }
    },
    {
      "fullUrl": "urn:uuid:e847af23-cd05-4bc0-8510-91164289d962",
      "resource": {
        "resourceType": "PractitionerRole",
        "id": "e847af23-cd05-4bc0-8510-91164289d962",
        "meta": {
          "profile": [
            "http://hl7.eu/fhir/base/StructureDefinition/practitionerRole-eu"
          ]
        },
        "text": {
          "status": "generated",
          "div": "<div xmlns=\"http://www.w3.org/1999/xhtml\">Laboratory Role Id: e847af23-cd05-4bc0-8510-91164289d962</div>"
        },
        "practitioner": {
          "reference": "urn:uuid:98ab80bb-f516-439b-8a02-9c8522f0f03d"
        }
      }
    },
    {
      "fullUrl": "urn:uuid:98ab80bb-f516-439b-8a02-9c8522f0f03d",
      "resource": {
        "resourceType": "Practitioner",
        "id": "98ab80bb-f516-439b-8a02-9c8522f0f03d",
        "meta": {
          "profile": [
            "http://hl7.eu/fhir/base/StructureDefinition/practitioner-eu"
          ]
        },
        "identifier": [
          {
            "assigner": {
              "display": "HL7 Europe"
            },
            "system": "urn:oid:2.16.840.1.113883.2.51.999",
            "value": "7ec362e5-5939-4309-95aa-62362f0fa508"
          }
        ],
        "name": [
          {
            "prefix": [
              "dr"
            ],
            "given": [
              "Ex"
            ],
            "family": "Ample"
          }
        ],
        "address": [
          {
            "line": [
              "Laboratoire Central Européenne",
              "Boulevard du Jardin Botanique 32"
            ],
            "postalCode": "1000",
            "city": "Brussels",
            "country": "Belgium"
          }
        ],
        "text": {
          "status": "generated",
          "div": "<div xmlns=\"http://www.w3.org/1999/xhtml\">Laboratory: Laboratoire Central Européenne, 1000 Brussels, Belgium</div>"
        }
      }
    }
  ],
  "type": "document",
  "timestamp": "2023-07-02T09:22:02Z"
}
