{
  "resourceType": "Bundle",
  "id": "859f2fc1-3a96-476a-a260-5888e302d4f7",
  "meta": {
    "profile": [
      "http://hl7.eu/fhir/laboratory/StructureDefinition/Bundle-eu-lab"
    ]
  },
  "identifier": {
    "assigner": {
      "display": "HL7 Europe"
    },
    "system": "urn:oid:2.16.840.1.113883.2.51.999",
    "value": "dbdfe93b-b35f-4e56-8c94-4bff33a88541"
  },
  "entry": [
    {
      "fullUrl": "urn:uuid:2fddb55f-e17a-4c34-9cf5-bb086b980a95",
      "resource": {
        "resourceType": "Composition",
        "id": "2fddb55f-e17a-4c34-9cf5-bb086b980a95",
        "meta": {
          "profile": [
            "http://hl7.eu/fhir/laboratory/StructureDefinition/Composition-eu-lab"
          ]
        },
        "identifier": {
          "assigner": {
            "display": "HL7 Europe"
          },
          "system": "urn:oid:2.16.840.1.113883.2.51.999",
          "value": "50c10e41-6eac-44bc-a1f7-05c87074c8e5"
        },
        "author": [
          {
            "reference": "urn:uuid:b4bdf945-e516-48c8-8ac4-819076b09cb8"
          }
        ],
        "category": [
          {
            "coding": [
              {
                "code": "26436-6",
                "system": "http://loinc.org",
                "display": "Laboratory studies (set)"
              }
            ]
          }
        ],
        "type": {
          "coding": [
            {
              "code": "11502-2",
              "system": "http://loinc.org",
              "display": "Laboratory report"
            }
          ],
          "text": "Laboratory Report"
        },
        "section": [
          {
            "code": {
              "coding": [
                {
                  "code": "26436-6",
                  "system": "http://loinc.org",
                  "display": "Laboratory studies (set)"
                }
              ],
              "text": "Laboratory studies"
            },
            "section": [
              {
                "code": {
                  "coding": [
                    {
                      "code": "$18719-5",
                      "system": "http://loinc.org",
                      "display": "Chemistry studies (set)"
                    }
                  ],
                  "text": "Chemistry"
                },
                "entry": [
                  {
                    "reference": "urn:uuid:0bd64144-045d-4091-ab4d-3d8de1d0aff9"
                  },
                  {
                    "reference": "urn:uuid:54435963-5000-489b-9c51-972dd2ae8cd1"
                  },
                  {
                    "reference": "urn:uuid:e972448e-0312-40d4-b647-bb4d289b10d8"
                  },
                  {
                    "reference": "urn:uuid:ed110f30-b7ea-45ae-88cd-2f2d6ca4ff2c"
                  },
                  {
                    "reference": "urn:uuid:a9773425-62cd-46ec-b38d-c0d9300090d0"
                  },
                  {
                    "reference": "urn:uuid:9e87583e-3747-4321-895e-6f43013e13f2"
                  },
                  {
                    "reference": "urn:uuid:b4e1f6c8-7f96-4740-ad9e-1769337d6533"
                  },
                  {
                    "reference": "urn:uuid:dc2dadd4-c20f-4adf-83ca-898ce69c2a0c"
                  },
                  {
                    "reference": "urn:uuid:717a7823-9a9b-429d-8210-5b0555082934"
                  },
                  {
                    "reference": "urn:uuid:b67ebf7c-d6ea-4f4c-922c-93f8e2024c7c"
                  },
                  {
                    "reference": "urn:uuid:c5eedaaa-0077-49dc-9986-14213e391e01"
                  },
                  {
                    "reference": "urn:uuid:0bc81fdb-ee69-4017-aa08-d07e30793881"
                  },
                  {
                    "reference": "urn:uuid:866de712-e6eb-48f4-b0e4-b168a6b779b5"
                  },
                  {
                    "reference": "urn:uuid:1e1703d3-5abc-4f8e-98a4-370b7f44d87c"
                  },
                  {
                    "reference": "urn:uuid:dc85a8a4-da03-4826-92d9-d5ea622868f4"
                  },
                  {
                    "reference": "urn:uuid:c5a36eba-d968-4bc8-a1cf-3f7a93efa60f"
                  },
                  {
                    "reference": "urn:uuid:c6e61f73-233d-485f-8c5a-5062796a0d35"
                  },
                  {
                    "reference": "urn:uuid:1614c79b-980e-448c-a25a-89acf676ada8"
                  },
                  {
                    "reference": "urn:uuid:74d6cc28-36d3-4bf3-90d8-9709fcb9d15f"
                  }
                ],
                "text": {
                  "status": "generated",
                  "div": "<div xmlns=\"http://www.w3.org/1999/xhtml\"><h3>Chemistry</h3><table class=\"hl7__eu__lab__report\"><thead><tr><th>Test</th><th>04-JUN-2025</th><th>Reference&#xA0;Range</th><th>Unit</th></tr></thead><tbody><tr><td>Glucose [Mass/volume] in Blood</td><td>114.6</td><td>70 - 140</td><td>mg/dL</td></tr><tr><td>Urea nitrogen [Mass/volume] in Blood</td><td>7.1</td><td>7 - 20</td><td>mg/dL</td></tr><tr><td>Creatinine [Mass/volume] in Blood</td><td><strong>3.5 H</strong></td><td>0.6 - 1.3</td><td>mg/dL</td></tr><tr><td>Calcium [Mass/volume] in Blood</td><td>8.8</td><td>8.5 - 10.5</td><td>mg/dL</td></tr><tr><td>Sodium [Moles/volume] in Blood</td><td>143.6</td><td>135 - 145</td><td>mmol/L</td></tr><tr><td>Potassium [Moles/volume] in Blood</td><td>4.8</td><td>3.5 - 5.1</td><td>mmol/L</td></tr><tr><td>Chloride [Moles/volume] in Blood</td><td><strong>109.7 H</strong></td><td>98 - 108</td><td>mmol/L</td></tr><tr><td>Carbon dioxide, total [Moles/volume] in Blood</td><td><strong>20.6 L</strong></td><td>22 - 32</td><td>mmol/L</td></tr><tr><td>Protein [Mass/volume] in Serum or Plasma</td><td>7.0</td><td>6.6 - 8.3</td><td>g/dL</td></tr><tr><td>Albumin [Mass/volume] in Serum or Plasma</td><td>4.7</td><td>3.5 - 5.5</td><td>g/dL</td></tr><tr><td>Globulin [Mass/volume] in Serum by calculation</td><td>3.4</td><td>2 - 3.5</td><td>g/L</td></tr><tr><td>Bilirubin.total [Mass/volume] in Serum or Plasma</td><td>1.1</td><td>0.3 - 1.2</td><td>mg/dL</td></tr><tr><td>Alkaline phosphatase [Enzymatic activity/volume] in Serum or Plasma</td><td>92.4</td><td>53 - 130</td><td>U/L</td></tr><tr><td>Alanine aminotransferase [Enzymatic activity/volume] in Serum or Plasma</td><td>36.1</td><td>7 - 60</td><td>U/L</td></tr><tr><td>Aspartate aminotransferase [Enzymatic activity/volume] in Serum or Plasma</td><td>28.3</td><td>10 - 49</td><td>U/L</td></tr><tr><td>Cholesterol [Mass/volume] in Serum or Plasma</td><td>177.6</td><td>125 - 200</td><td>mg/dL</td></tr><tr><td>Triglyceride [Mass/volume] in Serum or Plasma</td><td><strong>175.5 H</strong></td><td>40 - 150</td><td>mg/dL</td></tr><tr><td>Cholesterol in LDL [Mass/volume] in Serum or Plasma by Direct assay</td><td>93.9</td><td>0 - 190</td><td>mg/dL</td></tr><tr><td>Cholesterol in HDL [Mass/volume] in Serum or Plasma</td><td>42.6</td><td>40 - 60</td><td>mg/dL</td></tr></tbody></table></div>"
                },
                "title": "Chemistry"
              }
            ],
            "title": "Laboratory Report"
          },
          {
            "text": {
              "status": "generated",
              "div": "<div xmlns=\"http://www.w3.org/1999/xhtml\"><h3>Annotation</h3><table class=\"hl7__eu__lab__report\"><tr><th>Conclusion and Recommendations based on this report and previous findings known to us</th></tr><tr><td>The patient shows elevated creatinine, suggesting impaired renal function, and mild hyperchloremia with low total CO₂, which may indicate a degree of metabolic acidosis. Triglycerides are also elevated, increasing cardiovascular risk. Other parameters, including liver function, glucose, and electrolytes, are within normal limits. Renal function and acid-base status should be further evaluated clinically.</td></tr></table></div>"
            },
            "code": {
              "coding": [
                {
                  "system": "http://loinc.org",
                  "code": "48767-8",
                  "display": "Annotation comment"
                }
              ]
            },
            "title": "Annotation comment"
          }
        ],
        "status": "final",
        "subject": {
          "reference": "urn:uuid:5fc9aaf1-9902-4632-974a-eb359f512545",
          "display": "Stephen Weinhage"
        },
        "date": "2025-06-04T08:55:50Z",
        "title": "Laboratory Report",
        "confidentiality": "N"
      }
    },
    {
      "fullUrl": "urn:uuid:c824b268-1d71-4b83-a9db-54a9d2aa8e4c",
      "resource": {
        "resourceType": "DiagnosticReport",
        "id": "c824b268-1d71-4b83-a9db-54a9d2aa8e4c",
        "meta": {
          "profile": [
            "http://hl7.eu/fhir/laboratory/StructureDefinition/DiagnosticReport-eu-lab"
          ]
        },
        "identifier": [
          {
            "assigner": {
              "display": "HL7 Europe"
            },
            "system": "urn:oid:2.16.840.1.113883.2.51.999",
            "value": "abbaa871-56ba-4d2e-8f33-93056254e987"
          }
        ],
        "extension": [
          {
            "url": "http://hl7.org/fhir/5.0/StructureDefinition/extension-DiagnosticReport.composition",
            "valueReference": {
              "reference": "urn:uuid:50c10e41-6eac-44bc-a1f7-05c87074c8e5"
            }
          }
        ],
        "category": [
          {
            "coding": [
              {
                "code": "26436-6",
                "system": "http://loinc.org",
                "display": "Laboratory studies (set)"
              }
            ]
          }
        ],
        "specimen": [
          {
            "reference": "urn:uuid:b694dbdd-249e-4f7b-8adc-14f1468cdb54"
          },
          {
            "reference": "urn:uuid:b132ad6e-2914-41af-8d05-7a669c760a49"
          },
          {
            "reference": "urn:uuid:59a99370-cd83-4070-93c8-ea33f8271ac3"
          }
        ],
        "result": [
          {
            "reference": "urn:uuid:0bd64144-045d-4091-ab4d-3d8de1d0aff9"
          },
          {
            "reference": "urn:uuid:54435963-5000-489b-9c51-972dd2ae8cd1"
          },
          {
            "reference": "urn:uuid:e972448e-0312-40d4-b647-bb4d289b10d8"
          },
          {
            "reference": "urn:uuid:ed110f30-b7ea-45ae-88cd-2f2d6ca4ff2c"
          },
          {
            "reference": "urn:uuid:a9773425-62cd-46ec-b38d-c0d9300090d0"
          },
          {
            "reference": "urn:uuid:9e87583e-3747-4321-895e-6f43013e13f2"
          },
          {
            "reference": "urn:uuid:b4e1f6c8-7f96-4740-ad9e-1769337d6533"
          },
          {
            "reference": "urn:uuid:dc2dadd4-c20f-4adf-83ca-898ce69c2a0c"
          },
          {
            "reference": "urn:uuid:717a7823-9a9b-429d-8210-5b0555082934"
          },
          {
            "reference": "urn:uuid:b67ebf7c-d6ea-4f4c-922c-93f8e2024c7c"
          },
          {
            "reference": "urn:uuid:c5eedaaa-0077-49dc-9986-14213e391e01"
          },
          {
            "reference": "urn:uuid:0bc81fdb-ee69-4017-aa08-d07e30793881"
          },
          {
            "reference": "urn:uuid:866de712-e6eb-48f4-b0e4-b168a6b779b5"
          },
          {
            "reference": "urn:uuid:1e1703d3-5abc-4f8e-98a4-370b7f44d87c"
          },
          {
            "reference": "urn:uuid:dc85a8a4-da03-4826-92d9-d5ea622868f4"
          },
          {
            "reference": "urn:uuid:c5a36eba-d968-4bc8-a1cf-3f7a93efa60f"
          },
          {
            "reference": "urn:uuid:c6e61f73-233d-485f-8c5a-5062796a0d35"
          },
          {
            "reference": "urn:uuid:1614c79b-980e-448c-a25a-89acf676ada8"
          },
          {
            "reference": "urn:uuid:74d6cc28-36d3-4bf3-90d8-9709fcb9d15f"
          }
        ],
        "status": "registered",
        "code": {
          "coding": [
            {
              "code": "11502-2",
              "system": "http://loinc.org",
              "display": "Laboratory report"
            }
          ]
        },
        "subject": {
          "reference": "urn:uuid:5fc9aaf1-9902-4632-974a-eb359f512545",
          "display": "Stephen Weinhage"
        }
      }
    },
    {
      "fullUrl": "urn:uuid:5fc9aaf1-9902-4632-974a-eb359f512545",
      "resource": {
        "resourceType": "Patient",
        "id": "5fc9aaf1-9902-4632-974a-eb359f512545",
        "meta": {
          "security": [
            {
              "system": "http://terminology.hl7.org/CodeSystem/v3-ActReason",
              "code": "HTEST"
            },
            {
              "system": "http://terminology.hl7.org/CodeSystem/v3-ActReason",
              "code": "TRAIN"
            }
          ],
          "tag": [
            {
              "system": "https://synderai.net/fhir/CodeSystem/tags",
              "code": "synthetic",
              "display": "SYNDERAI Synthetic data"
            }
          ],
          "profile": [
            "http://hl7.eu/fhir/base/StructureDefinition/patient-eu-core"
          ]
        },
        "identifier": [
          {
            "type": {
              "coding": [
                {
                  "code": "PT",
                  "system": "http://terminology.hl7.org/CodeSystem/v2-0203"
                }
              ]
            },
            "system": "http://ec.europa.eu/identifier/eci",
            "value": "6413-101438-9"
          },
          {
            "type": {
              "coding": [
                {
                  "code": "MR",
                  "system": "http://terminology.hl7.org/CodeSystem/v2-0203"
                }
              ]
            },
            "system": "http://local.setting.eu/identifier",
            "value": "24ebd065-2072-c582-96d3-10256a4a5a7d"
          }
        ],
        "name": [
          {
            "family": "Weinhage"
          },
          {
            "given": [
              "Stephen"
            ]
          },
          {
            "text": "Stephen Weinhage"
          }
        ],
        "address": [
          {
            "line": [
              "Bertold-Stahr-Platz 6/3"
            ],
            "use": "home",
            "type": "physical",
            "postalCode": "31535",
            "city": "Neustadt am Rübenberge",
            "country": "Germany"
          }
        ],
        "telecom": [
          {
            "system": "phone",
            "value": "+49(0)5355171263"
          }
        ],
        "extension": [
          {
            "url": "http://hl7.org/fhir/StructureDefinition/patient-nationality",
            "valueCodeableConcept": {
              "coding": [
                {
                  "code": "DE",
                  "system": "http://hl7.org/fhir/ValueSet/country"
                }
              ]
            }
          }
        ],
        "text": {
          "status": "generated",
          "div": "<div xmlns=\"http://www.w3.org/1999/xhtml\"><table class=\"hl7__ips\"><tr><td>Stephen Weinhage</td><td>male</td><td>11-Aug-1950</td></tr></table></div>"
        },
        "gender": "male",
        "birthDate": "1950-08-11"
      }
    },
    {
      "fullUrl": "urn:uuid:1a549312-5213-4dc7-a5c3-9daff672a573",
      "resource": {
        "resourceType": "ServiceRequest",
        "id": "1a549312-5213-4dc7-a5c3-9daff672a573",
        "meta": {
          "profile": [
            "http://hl7.eu/fhir/laboratory/StructureDefinition/ServiceRequest-eu-lab"
          ]
        },
        "identifier": [
          {
            "system": "http://example.org",
            "value": "07cb09a0-cc06-4fb2-bdd8-b154d7789499"
          }
        ],
        "specimen": [
          {
            "reference": "urn:uuid:b694dbdd-249e-4f7b-8adc-14f1468cdb54"
          },
          {
            "reference": "urn:uuid:b132ad6e-2914-41af-8d05-7a669c760a49"
          },
          {
            "reference": "urn:uuid:59a99370-cd83-4070-93c8-ea33f8271ac3"
          }
        ],
        "reasonCode": [
          {
            "coding": [
              {
                "code": "422034002",
                "system": "http://snomed.info/sct",
                "display": "Retinopathy due to type 2 diabetes mellitus"
              }
            ]
          },
          {
            "coding": [
              {
                "code": "55822004",
                "system": "http://snomed.info/sct",
                "display": "Hyperlipidemia"
              }
            ]
          },
          {
            "coding": [
              {
                "code": "302870006",
                "system": "http://snomed.info/sct",
                "display": "Hypertriglyceridemia"
              }
            ]
          },
          {
            "coding": [
              {
                "code": "44054006",
                "system": "http://snomed.info/sct",
                "display": "Type 2 diabetes mellitus"
              }
            ]
          },
          {
            "coding": [
              {
                "code": "414545008",
                "system": "http://snomed.info/sct",
                "display": "Ischemic heart disease"
              }
            ]
          },
          {
            "coding": [
              {
                "code": "237602007",
                "system": "http://snomed.info/sct",
                "display": "Metabolic syndrome X"
              }
            ]
          },
          {
            "coding": [
              {
                "code": "68496003",
                "system": "http://snomed.info/sct",
                "display": "Polyp of colon"
              }
            ]
          },
          {
            "coding": [
              {
                "code": "59621000",
                "system": "http://snomed.info/sct",
                "display": "Essential hypertension"
              }
            ]
          },
          {
            "coding": [
              {
                "code": "15777000",
                "system": "http://snomed.info/sct",
                "display": "Prediabetes"
              }
            ]
          },
          {
            "coding": [
              {
                "code": "271737000",
                "system": "http://snomed.info/sct",
                "display": "Anemia"
              }
            ]
          },
          {
            "coding": [
              {
                "code": "40055000",
                "system": "http://snomed.info/sct",
                "display": "Chronic sinusitis"
              }
            ]
          }
        ],
        "status": "active",
        "intent": "order",
        "code": {
          "coding": [
            {
              "code": "108252007",
              "system": "http://snomed.info/sct",
              "display": "Laboratory procedure"
            }
          ]
        },
        "subject": {
          "reference": "urn:uuid:5fc9aaf1-9902-4632-974a-eb359f512545",
          "display": "Stephen Weinhage"
        },
        "requester": {
          "reference": "urn:uuid:40de90a1-3b6a-426a-9f99-b97c1636aae5"
        }
      }
    },
    {
      "fullUrl": "urn:uuid:40de90a1-3b6a-426a-9f99-b97c1636aae5",
      "resource": {
        "resourceType": "PractitionerRole",
        "id": "40de90a1-3b6a-426a-9f99-b97c1636aae5",
        "meta": {
          "profile": [
            "http://hl7.eu/fhir/base/StructureDefinition/practitionerRole-eu"
          ]
        },
        "text": {
          "status": "generated",
          "div": "<div xmlns=\"http://www.w3.org/1999/xhtml\">Provider Role Id: 40de90a1-3b6a-426a-9f99-b97c1636aae5</div>"
        },
        "organization": {
          "reference": "urn:uuid:e1c2decc-5269-4d64-8bc9-5ec161ae1197"
        }
      }
    },
    {
      "fullUrl": "urn:uuid:e1c2decc-5269-4d64-8bc9-5ec161ae1197",
      "resource": {
        "resourceType": "Organization",
        "id": "e1c2decc-5269-4d64-8bc9-5ec161ae1197",
        "meta": {
          "profile": [
            "http://hl7.eu/fhir/base/StructureDefinition/organization-eu"
          ]
        },
        "identifier": [
          {
            "assigner": {
              "display": "HL7 Europe"
            },
            "system": "urn:oid:2.16.840.1.113883.2.51.999",
            "value": "bc84010a-ac7a-4128-925f-9fb642145168"
          }
        ],
        "address": [
          {
            "line": [
              "Dudenser Straße 41A"
            ],
            "city": "Neustadt am Rübenberge",
            "postalCode": "31535",
            "country": "Germany"
          }
        ],
        "text": {
          "status": "generated",
          "div": "<div xmlns=\"http://www.w3.org/1999/xhtml\">Provider Organization: Landarztpraxis Dudensen</div>"
        },
        "name": "Landarztpraxis Dudensen"
      }
    },
    {
      "fullUrl": "urn:uuid:b694dbdd-249e-4f7b-8adc-14f1468cdb54",
      "resource": {
        "resourceType": "Specimen",
        "id": "b694dbdd-249e-4f7b-8adc-14f1468cdb54",
        "meta": {
          "profile": [
            "http://hl7.eu/fhir/laboratory/StructureDefinition/Specimen-eu-lab"
          ]
        },
        "collection": {
          "collectedDateTime": "2025-06-04"
        },
        "text": {
          "status": "generated",
          "div": "<div xmlns=\"http://www.w3.org/1999/xhtml\"><table class=\"hl7__eu__lab__report\"><tr><th>Specimen</th><th>Collection Date</th></tr><tr><td>Whole blood specimen (specimen)</td><td><span class=\"nb\">04-Jun-2025</span></td></tr></table></div>"
        },
        "type": {
          "coding": [
            {
              "code": "258580003",
              "system": "http://snomed.info/sct",
              "display": "Whole blood specimen (specimen)"
            }
          ]
        }
      }
    },
    {
      "fullUrl": "urn:uuid:b132ad6e-2914-41af-8d05-7a669c760a49",
      "resource": {
        "resourceType": "Specimen",
        "id": "b132ad6e-2914-41af-8d05-7a669c760a49",
        "meta": {
          "profile": [
            "http://hl7.eu/fhir/laboratory/StructureDefinition/Specimen-eu-lab"
          ]
        },
        "collection": {
          "collectedDateTime": "2025-06-04"
        },
        "text": {
          "status": "generated",
          "div": "<div xmlns=\"http://www.w3.org/1999/xhtml\"><table class=\"hl7__eu__lab__report\"><tr><th>Specimen</th><th>Collection Date</th></tr><tr><td>Acellular blood (serum or plasma) specimen</td><td><span class=\"nb\">04-Jun-2025</span></td></tr></table></div>"
        },
        "type": {
          "coding": [
            {
              "code": "122592007",
              "system": "http://snomed.info/sct",
              "display": "Acellular blood (serum or plasma) specimen"
            }
          ]
        }
      }
    },
    {
      "fullUrl": "urn:uuid:59a99370-cd83-4070-93c8-ea33f8271ac3",
      "resource": {
        "resourceType": "Specimen",
        "id": "59a99370-cd83-4070-93c8-ea33f8271ac3",
        "meta": {
          "profile": [
            "http://hl7.eu/fhir/laboratory/StructureDefinition/Specimen-eu-lab"
          ]
        },
        "collection": {
          "collectedDateTime": "2025-06-04"
        },
        "text": {
          "status": "generated",
          "div": "<div xmlns=\"http://www.w3.org/1999/xhtml\"><table class=\"hl7__eu__lab__report\"><tr><th>Specimen</th><th>Collection Date</th></tr><tr><td>Serum specimen</td><td><span class=\"nb\">04-Jun-2025</span></td></tr></table></div>"
        },
        "type": {
          "coding": [
            {
              "code": "119364003",
              "system": "http://snomed.info/sct",
              "display": "Serum specimen"
            }
          ]
        }
      }
    },
    {
      "fullUrl": "urn:uuid:0bd64144-045d-4091-ab4d-3d8de1d0aff9",
      "resource": {
        "resourceType": "Observation",
        "id": "0bd64144-045d-4091-ab4d-3d8de1d0aff9",
        "meta": {
          "profile": [
            "http://hl7.eu/fhir/laboratory/StructureDefinition/Observation-resultslab-eu-lab"
          ]
        },
        "performer": [
          {
            "display": "The Central European Lab"
          }
        ],
        "category": [
          {
            "coding": [
              {
                "system": "http://terminology.hl7.org/CodeSystem/observation-category",
                "code": "laboratory"
              }
            ]
          }
        ],
        "code": {
          "coding": [
            {
              "code": "2339-0",
              "system": "http://loinc.org",
              "display": "Glucose [Mass/volume] in Blood"
            }
          ],
          "text": "Glucose [Mass/volume] in Blood"
        },
        "valueQuantity": {
          "system": "http://unitsofmeasure.org",
          "value": 114.6,
          "unit": "mg/dL",
          "code": "mg/dL"
        },
        "referenceRange": [
          {
            "low": {
              "value": 70,
              "code": "mg/dL",
              "system": "http://unitsofmeasure.org"
            }
          },
          {
            "high": {
              "value": 140,
              "code": "mg/dL",
              "system": "http://unitsofmeasure.org"
            }
          }
        ],
        "text": {
          "status": "generated",
          "div": "<div xmlns=\"http://www.w3.org/1999/xhtml\"><table class=\"hl7__eu__lab__report\"><tr><th>Test</th><th>04-Jun-2025</th><th>Reference&#xA0;Range</th><th>Unit</th></tr><tr><td>Glucose [Mass/volume] in Blood</td><td>114.6</td><td>70 - 140</td><td></td><td>mg/dL</td></tr></table></div>"
        },
        "status": "final",
        "subject": {
          "reference": "urn:uuid:5fc9aaf1-9902-4632-974a-eb359f512545",
          "display": "Stephen Weinhage"
        },
        "effectiveDateTime": "2025-06-04T06:55:50Z",
        "specimen": {
          "reference": "urn:uuid:b694dbdd-249e-4f7b-8adc-14f1468cdb54"
        }
      }
    },
    {
      "fullUrl": "urn:uuid:54435963-5000-489b-9c51-972dd2ae8cd1",
      "resource": {
        "resourceType": "Observation",
        "id": "54435963-5000-489b-9c51-972dd2ae8cd1",
        "meta": {
          "profile": [
            "http://hl7.eu/fhir/laboratory/StructureDefinition/Observation-resultslab-eu-lab"
          ]
        },
        "performer": [
          {
            "display": "The Central European Lab"
          }
        ],
        "category": [
          {
            "coding": [
              {
                "system": "http://terminology.hl7.org/CodeSystem/observation-category",
                "code": "laboratory"
              }
            ]
          }
        ],
        "code": {
          "coding": [
            {
              "code": "6299-2",
              "system": "http://loinc.org",
              "display": "Urea nitrogen [Mass/volume] in Blood"
            }
          ],
          "text": "Urea nitrogen [Mass/volume] in Blood"
        },
        "valueQuantity": {
          "system": "http://unitsofmeasure.org",
          "value": 7.1,
          "unit": "mg/dL",
          "code": "mg/dL"
        },
        "referenceRange": [
          {
            "low": {
              "value": 7,
              "code": "mg/dL",
              "system": "http://unitsofmeasure.org"
            }
          },
          {
            "high": {
              "value": 20,
              "code": "mg/dL",
              "system": "http://unitsofmeasure.org"
            }
          }
        ],
        "text": {
          "status": "generated",
          "div": "<div xmlns=\"http://www.w3.org/1999/xhtml\"><table class=\"hl7__eu__lab__report\"><tr><th>Test</th><th>04-Jun-2025</th><th>Reference&#xA0;Range</th><th>Unit</th></tr><tr><td>Urea nitrogen [Mass/volume] in Blood</td><td>7.1</td><td>7 - 20</td><td></td><td>mg/dL</td></tr></table></div>"
        },
        "status": "final",
        "subject": {
          "reference": "urn:uuid:5fc9aaf1-9902-4632-974a-eb359f512545",
          "display": "Stephen Weinhage"
        },
        "effectiveDateTime": "2025-06-04T06:55:50Z",
        "specimen": {
          "reference": "urn:uuid:b694dbdd-249e-4f7b-8adc-14f1468cdb54"
        }
      }
    },
    {
      "fullUrl": "urn:uuid:e972448e-0312-40d4-b647-bb4d289b10d8",
      "resource": {
        "resourceType": "Observation",
        "id": "e972448e-0312-40d4-b647-bb4d289b10d8",
        "meta": {
          "profile": [
            "http://hl7.eu/fhir/laboratory/StructureDefinition/Observation-resultslab-eu-lab"
          ]
        },
        "performer": [
          {
            "display": "The Central European Lab"
          }
        ],
        "category": [
          {
            "coding": [
              {
                "system": "http://terminology.hl7.org/CodeSystem/observation-category",
                "code": "laboratory"
              }
            ]
          }
        ],
        "code": {
          "coding": [
            {
              "code": "38483-4",
              "system": "http://loinc.org",
              "display": "Creatinine [Mass/volume] in Blood"
            }
          ],
          "text": "Creatinine [Mass/volume] in Blood"
        },
        "valueQuantity": {
          "system": "http://unitsofmeasure.org",
          "value": 3.5,
          "unit": "mg/dL",
          "code": "mg/dL"
        },
        "referenceRange": [
          {
            "low": {
              "value": 0.6,
              "code": "mg/dL",
              "system": "http://unitsofmeasure.org"
            }
          },
          {
            "high": {
              "value": 1.3,
              "code": "mg/dL",
              "system": "http://unitsofmeasure.org"
            }
          }
        ],
        "interpretation": [
          {
            "coding": [
              {
                "code": "H",
                "system": "http://terminology.hl7.org/CodeSystem/v3-ObservationInterpretation",
                "display": "High"
              }
            ]
          }
        ],
        "text": {
          "status": "generated",
          "div": "<div xmlns=\"http://www.w3.org/1999/xhtml\"><table class=\"hl7__eu__lab__report\"><tr><th>Test</th><th>04-Jun-2025</th><th>Reference&#xA0;Range</th><th>Unit</th></tr><tr><td>Creatinine [Mass/volume] in Blood</td><td>3.5</td><td>0.6 - 1.3</td><td>H</td><td>mg/dL</td></tr></table></div>"
        },
        "status": "final",
        "subject": {
          "reference": "urn:uuid:5fc9aaf1-9902-4632-974a-eb359f512545",
          "display": "Stephen Weinhage"
        },
        "effectiveDateTime": "2025-06-04T06:55:50Z",
        "specimen": {
          "reference": "urn:uuid:b694dbdd-249e-4f7b-8adc-14f1468cdb54"
        }
      }
    },
    {
      "fullUrl": "urn:uuid:ed110f30-b7ea-45ae-88cd-2f2d6ca4ff2c",
      "resource": {
        "resourceType": "Observation",
        "id": "ed110f30-b7ea-45ae-88cd-2f2d6ca4ff2c",
        "meta": {
          "profile": [
            "http://hl7.eu/fhir/laboratory/StructureDefinition/Observation-resultslab-eu-lab"
          ]
        },
        "performer": [
          {
            "display": "The Central European Lab"
          }
        ],
        "category": [
          {
            "coding": [
              {
                "system": "http://terminology.hl7.org/CodeSystem/observation-category",
                "code": "laboratory"
              }
            ]
          }
        ],
        "code": {
          "coding": [
            {
              "code": "49765-1",
              "system": "http://loinc.org",
              "display": "Calcium [Mass/volume] in Blood"
            }
          ],
          "text": "Calcium [Mass/volume] in Blood"
        },
        "valueQuantity": {
          "system": "http://unitsofmeasure.org",
          "value": 8.8,
          "unit": "mg/dL",
          "code": "mg/dL"
        },
        "referenceRange": [
          {
            "low": {
              "value": 8.5,
              "code": "mg/dL",
              "system": "http://unitsofmeasure.org"
            }
          },
          {
            "high": {
              "value": 10.5,
              "code": "mg/dL",
              "system": "http://unitsofmeasure.org"
            }
          }
        ],
        "text": {
          "status": "generated",
          "div": "<div xmlns=\"http://www.w3.org/1999/xhtml\"><table class=\"hl7__eu__lab__report\"><tr><th>Test</th><th>04-Jun-2025</th><th>Reference&#xA0;Range</th><th>Unit</th></tr><tr><td>Calcium [Mass/volume] in Blood</td><td>8.8</td><td>8.5 - 10.5</td><td></td><td>mg/dL</td></tr></table></div>"
        },
        "status": "final",
        "subject": {
          "reference": "urn:uuid:5fc9aaf1-9902-4632-974a-eb359f512545",
          "display": "Stephen Weinhage"
        },
        "effectiveDateTime": "2025-06-04T06:55:50Z",
        "specimen": {
          "reference": "urn:uuid:b694dbdd-249e-4f7b-8adc-14f1468cdb54"
        }
      }
    },
    {
      "fullUrl": "urn:uuid:a9773425-62cd-46ec-b38d-c0d9300090d0",
      "resource": {
        "resourceType": "Observation",
        "id": "a9773425-62cd-46ec-b38d-c0d9300090d0",
        "meta": {
          "profile": [
            "http://hl7.eu/fhir/laboratory/StructureDefinition/Observation-resultslab-eu-lab"
          ]
        },
        "performer": [
          {
            "display": "The Central European Lab"
          }
        ],
        "category": [
          {
            "coding": [
              {
                "system": "http://terminology.hl7.org/CodeSystem/observation-category",
                "code": "laboratory"
              }
            ]
          }
        ],
        "code": {
          "coding": [
            {
              "code": "2947-0",
              "system": "http://loinc.org",
              "display": "Sodium [Moles/volume] in Blood"
            }
          ],
          "text": "Sodium [Moles/volume] in Blood"
        },
        "valueQuantity": {
          "system": "http://unitsofmeasure.org",
          "value": 143.6,
          "unit": "mmol/L",
          "code": "mmol/L"
        },
        "referenceRange": [
          {
            "low": {
              "value": 135,
              "code": "mmol/L",
              "system": "http://unitsofmeasure.org"
            }
          },
          {
            "high": {
              "value": 145,
              "code": "mmol/L",
              "system": "http://unitsofmeasure.org"
            }
          }
        ],
        "text": {
          "status": "generated",
          "div": "<div xmlns=\"http://www.w3.org/1999/xhtml\"><table class=\"hl7__eu__lab__report\"><tr><th>Test</th><th>04-Jun-2025</th><th>Reference&#xA0;Range</th><th>Unit</th></tr><tr><td>Sodium [Moles/volume] in Blood</td><td>143.6</td><td>135 - 145</td><td></td><td>mmol/L</td></tr></table></div>"
        },
        "status": "final",
        "subject": {
          "reference": "urn:uuid:5fc9aaf1-9902-4632-974a-eb359f512545",
          "display": "Stephen Weinhage"
        },
        "effectiveDateTime": "2025-06-04T06:55:50Z",
        "specimen": {
          "reference": "urn:uuid:b694dbdd-249e-4f7b-8adc-14f1468cdb54"
        }
      }
    },
    {
      "fullUrl": "urn:uuid:9e87583e-3747-4321-895e-6f43013e13f2",
      "resource": {
        "resourceType": "Observation",
        "id": "9e87583e-3747-4321-895e-6f43013e13f2",
        "meta": {
          "profile": [
            "http://hl7.eu/fhir/laboratory/StructureDefinition/Observation-resultslab-eu-lab"
          ]
        },
        "performer": [
          {
            "display": "The Central European Lab"
          }
        ],
        "category": [
          {
            "coding": [
              {
                "system": "http://terminology.hl7.org/CodeSystem/observation-category",
                "code": "laboratory"
              }
            ]
          }
        ],
        "code": {
          "coding": [
            {
              "code": "6298-4",
              "system": "http://loinc.org",
              "display": "Potassium [Moles/volume] in Blood"
            }
          ],
          "text": "Potassium [Moles/volume] in Blood"
        },
        "valueQuantity": {
          "system": "http://unitsofmeasure.org",
          "value": 4.8,
          "unit": "mmol/L",
          "code": "mmol/L"
        },
        "referenceRange": [
          {
            "low": {
              "value": 3.5,
              "code": "mmol/L",
              "system": "http://unitsofmeasure.org"
            }
          },
          {
            "high": {
              "value": 5.1,
              "code": "mmol/L",
              "system": "http://unitsofmeasure.org"
            }
          }
        ],
        "text": {
          "status": "generated",
          "div": "<div xmlns=\"http://www.w3.org/1999/xhtml\"><table class=\"hl7__eu__lab__report\"><tr><th>Test</th><th>04-Jun-2025</th><th>Reference&#xA0;Range</th><th>Unit</th></tr><tr><td>Potassium [Moles/volume] in Blood</td><td>4.8</td><td>3.5 - 5.1</td><td></td><td>mmol/L</td></tr></table></div>"
        },
        "status": "final",
        "subject": {
          "reference": "urn:uuid:5fc9aaf1-9902-4632-974a-eb359f512545",
          "display": "Stephen Weinhage"
        },
        "effectiveDateTime": "2025-06-04T06:55:50Z",
        "specimen": {
          "reference": "urn:uuid:b694dbdd-249e-4f7b-8adc-14f1468cdb54"
        }
      }
    },
    {
      "fullUrl": "urn:uuid:b4e1f6c8-7f96-4740-ad9e-1769337d6533",
      "resource": {
        "resourceType": "Observation",
        "id": "b4e1f6c8-7f96-4740-ad9e-1769337d6533",
        "meta": {
          "profile": [
            "http://hl7.eu/fhir/laboratory/StructureDefinition/Observation-resultslab-eu-lab"
          ]
        },
        "performer": [
          {
            "display": "The Central European Lab"
          }
        ],
        "category": [
          {
            "coding": [
              {
                "system": "http://terminology.hl7.org/CodeSystem/observation-category",
                "code": "laboratory"
              }
            ]
          }
        ],
        "code": {
          "coding": [
            {
              "code": "2069-3",
              "system": "http://loinc.org",
              "display": "Chloride [Moles/volume] in Blood"
            }
          ],
          "text": "Chloride [Moles/volume] in Blood"
        },
        "valueQuantity": {
          "system": "http://unitsofmeasure.org",
          "value": 109.7,
          "unit": "mmol/L",
          "code": "mmol/L"
        },
        "referenceRange": [
          {
            "low": {
              "value": 98,
              "code": "mmol/L",
              "system": "http://unitsofmeasure.org"
            }
          },
          {
            "high": {
              "value": 108,
              "code": "mmol/L",
              "system": "http://unitsofmeasure.org"
            }
          }
        ],
        "interpretation": [
          {
            "coding": [
              {
                "code": "H",
                "system": "http://terminology.hl7.org/CodeSystem/v3-ObservationInterpretation",
                "display": "High"
              }
            ]
          }
        ],
        "text": {
          "status": "generated",
          "div": "<div xmlns=\"http://www.w3.org/1999/xhtml\"><table class=\"hl7__eu__lab__report\"><tr><th>Test</th><th>04-Jun-2025</th><th>Reference&#xA0;Range</th><th>Unit</th></tr><tr><td>Chloride [Moles/volume] in Blood</td><td>109.7</td><td>98 - 108</td><td>H</td><td>mmol/L</td></tr></table></div>"
        },
        "status": "final",
        "subject": {
          "reference": "urn:uuid:5fc9aaf1-9902-4632-974a-eb359f512545",
          "display": "Stephen Weinhage"
        },
        "effectiveDateTime": "2025-06-04T06:55:50Z",
        "specimen": {
          "reference": "urn:uuid:b694dbdd-249e-4f7b-8adc-14f1468cdb54"
        }
      }
    },
    {
      "fullUrl": "urn:uuid:dc2dadd4-c20f-4adf-83ca-898ce69c2a0c",
      "resource": {
        "resourceType": "Observation",
        "id": "dc2dadd4-c20f-4adf-83ca-898ce69c2a0c",
        "meta": {
          "profile": [
            "http://hl7.eu/fhir/laboratory/StructureDefinition/Observation-resultslab-eu-lab"
          ]
        },
        "performer": [
          {
            "display": "The Central European Lab"
          }
        ],
        "category": [
          {
            "coding": [
              {
                "system": "http://terminology.hl7.org/CodeSystem/observation-category",
                "code": "laboratory"
              }
            ]
          }
        ],
        "code": {
          "coding": [
            {
              "code": "20565-8",
              "system": "http://loinc.org",
              "display": "Carbon dioxide, total [Moles/volume] in Blood"
            }
          ],
          "text": "Carbon dioxide, total [Moles/volume] in Blood"
        },
        "valueQuantity": {
          "system": "http://unitsofmeasure.org",
          "value": 20.6,
          "unit": "mmol/L",
          "code": "mmol/L"
        },
        "referenceRange": [
          {
            "low": {
              "value": 22,
              "code": "mmol/L",
              "system": "http://unitsofmeasure.org"
            }
          },
          {
            "high": {
              "value": 32,
              "code": "mmol/L",
              "system": "http://unitsofmeasure.org"
            }
          }
        ],
        "interpretation": [
          {
            "coding": [
              {
                "code": "L",
                "system": "http://terminology.hl7.org/CodeSystem/v3-ObservationInterpretation",
                "display": "Low"
              }
            ]
          }
        ],
        "text": {
          "status": "generated",
          "div": "<div xmlns=\"http://www.w3.org/1999/xhtml\"><table class=\"hl7__eu__lab__report\"><tr><th>Test</th><th>04-Jun-2025</th><th>Reference&#xA0;Range</th><th>Unit</th></tr><tr><td>Carbon dioxide, total [Moles/volume] in Blood</td><td>20.6</td><td>22 - 32</td><td>L</td><td>mmol/L</td></tr></table></div>"
        },
        "status": "final",
        "subject": {
          "reference": "urn:uuid:5fc9aaf1-9902-4632-974a-eb359f512545",
          "display": "Stephen Weinhage"
        },
        "effectiveDateTime": "2025-06-04T06:55:50Z",
        "specimen": {
          "reference": "urn:uuid:b694dbdd-249e-4f7b-8adc-14f1468cdb54"
        }
      }
    },
    {
      "fullUrl": "urn:uuid:717a7823-9a9b-429d-8210-5b0555082934",
      "resource": {
        "resourceType": "Observation",
        "id": "717a7823-9a9b-429d-8210-5b0555082934",
        "meta": {
          "profile": [
            "http://hl7.eu/fhir/laboratory/StructureDefinition/Observation-resultslab-eu-lab"
          ]
        },
        "performer": [
          {
            "display": "The Central European Lab"
          }
        ],
        "category": [
          {
            "coding": [
              {
                "system": "http://terminology.hl7.org/CodeSystem/observation-category",
                "code": "laboratory"
              }
            ]
          }
        ],
        "code": {
          "coding": [
            {
              "code": "2885-2",
              "system": "http://loinc.org",
              "display": "Protein [Mass/volume] in Serum or Plasma"
            }
          ],
          "text": "Protein [Mass/volume] in Serum or Plasma"
        },
        "valueQuantity": {
          "system": "http://unitsofmeasure.org",
          "value": 7,
          "unit": "g/dL",
          "code": "g/dL"
        },
        "referenceRange": [
          {
            "low": {
              "value": 6.6,
              "code": "g/dL",
              "system": "http://unitsofmeasure.org"
            }
          },
          {
            "high": {
              "value": 8.3,
              "code": "g/dL",
              "system": "http://unitsofmeasure.org"
            }
          }
        ],
        "text": {
          "status": "generated",
          "div": "<div xmlns=\"http://www.w3.org/1999/xhtml\"><table class=\"hl7__eu__lab__report\"><tr><th>Test</th><th>04-Jun-2025</th><th>Reference&#xA0;Range</th><th>Unit</th></tr><tr><td>Protein [Mass/volume] in Serum or Plasma</td><td>7.0</td><td>6.6 - 8.3</td><td></td><td>g/dL</td></tr></table></div>"
        },
        "status": "final",
        "subject": {
          "reference": "urn:uuid:5fc9aaf1-9902-4632-974a-eb359f512545",
          "display": "Stephen Weinhage"
        },
        "effectiveDateTime": "2025-06-04T06:55:50Z",
        "specimen": {
          "reference": "urn:uuid:b132ad6e-2914-41af-8d05-7a669c760a49"
        }
      }
    },
    {
      "fullUrl": "urn:uuid:b67ebf7c-d6ea-4f4c-922c-93f8e2024c7c",
      "resource": {
        "resourceType": "Observation",
        "id": "b67ebf7c-d6ea-4f4c-922c-93f8e2024c7c",
        "meta": {
          "profile": [
            "http://hl7.eu/fhir/laboratory/StructureDefinition/Observation-resultslab-eu-lab"
          ]
        },
        "performer": [
          {
            "display": "The Central European Lab"
          }
        ],
        "category": [
          {
            "coding": [
              {
                "system": "http://terminology.hl7.org/CodeSystem/observation-category",
                "code": "laboratory"
              }
            ]
          }
        ],
        "code": {
          "coding": [
            {
              "code": "1751-7",
              "system": "http://loinc.org",
              "display": "Albumin [Mass/volume] in Serum or Plasma"
            }
          ],
          "text": "Albumin [Mass/volume] in Serum or Plasma"
        },
        "valueQuantity": {
          "system": "http://unitsofmeasure.org",
          "value": 4.7,
          "unit": "g/dL",
          "code": "g/dL"
        },
        "referenceRange": [
          {
            "low": {
              "value": 3.5,
              "code": "g/dL",
              "system": "http://unitsofmeasure.org"
            }
          },
          {
            "high": {
              "value": 5.5,
              "code": "g/dL",
              "system": "http://unitsofmeasure.org"
            }
          }
        ],
        "text": {
          "status": "generated",
          "div": "<div xmlns=\"http://www.w3.org/1999/xhtml\"><table class=\"hl7__eu__lab__report\"><tr><th>Test</th><th>04-Jun-2025</th><th>Reference&#xA0;Range</th><th>Unit</th></tr><tr><td>Albumin [Mass/volume] in Serum or Plasma</td><td>4.7</td><td>3.5 - 5.5</td><td></td><td>g/dL</td></tr></table></div>"
        },
        "status": "final",
        "subject": {
          "reference": "urn:uuid:5fc9aaf1-9902-4632-974a-eb359f512545",
          "display": "Stephen Weinhage"
        },
        "effectiveDateTime": "2025-06-04T06:55:50Z",
        "specimen": {
          "reference": "urn:uuid:b132ad6e-2914-41af-8d05-7a669c760a49"
        }
      }
    },
    {
      "fullUrl": "urn:uuid:c5eedaaa-0077-49dc-9986-14213e391e01",
      "resource": {
        "resourceType": "Observation",
        "id": "c5eedaaa-0077-49dc-9986-14213e391e01",
        "meta": {
          "profile": [
            "http://hl7.eu/fhir/laboratory/StructureDefinition/Observation-resultslab-eu-lab"
          ]
        },
        "performer": [
          {
            "display": "The Central European Lab"
          }
        ],
        "category": [
          {
            "coding": [
              {
                "system": "http://terminology.hl7.org/CodeSystem/observation-category",
                "code": "laboratory"
              }
            ]
          }
        ],
        "code": {
          "coding": [
            {
              "code": "10834-0",
              "system": "http://loinc.org",
              "display": "Globulin [Mass/volume] in Serum by calculation"
            }
          ],
          "text": "Globulin [Mass/volume] in Serum by calculation"
        },
        "valueQuantity": {
          "system": "http://unitsofmeasure.org",
          "value": 3.4,
          "unit": "g/L",
          "code": "g/L"
        },
        "referenceRange": [
          {
            "low": {
              "value": 2,
              "code": "g/L",
              "system": "http://unitsofmeasure.org"
            }
          },
          {
            "high": {
              "value": 3.5,
              "code": "g/L",
              "system": "http://unitsofmeasure.org"
            }
          }
        ],
        "text": {
          "status": "generated",
          "div": "<div xmlns=\"http://www.w3.org/1999/xhtml\"><table class=\"hl7__eu__lab__report\"><tr><th>Test</th><th>04-Jun-2025</th><th>Reference&#xA0;Range</th><th>Unit</th></tr><tr><td>Globulin [Mass/volume] in Serum by calculation</td><td>3.4</td><td>2 - 3.5</td><td></td><td>g/L</td></tr></table></div>"
        },
        "status": "final",
        "subject": {
          "reference": "urn:uuid:5fc9aaf1-9902-4632-974a-eb359f512545",
          "display": "Stephen Weinhage"
        },
        "effectiveDateTime": "2025-06-04T06:55:50Z",
        "specimen": {
          "reference": "urn:uuid:59a99370-cd83-4070-93c8-ea33f8271ac3"
        }
      }
    },
    {
      "fullUrl": "urn:uuid:0bc81fdb-ee69-4017-aa08-d07e30793881",
      "resource": {
        "resourceType": "Observation",
        "id": "0bc81fdb-ee69-4017-aa08-d07e30793881",
        "meta": {
          "profile": [
            "http://hl7.eu/fhir/laboratory/StructureDefinition/Observation-resultslab-eu-lab"
          ]
        },
        "performer": [
          {
            "display": "The Central European Lab"
          }
        ],
        "category": [
          {
            "coding": [
              {
                "system": "http://terminology.hl7.org/CodeSystem/observation-category",
                "code": "laboratory"
              }
            ]
          }
        ],
        "code": {
          "coding": [
            {
              "code": "1975-2",
              "system": "http://loinc.org",
              "display": "Bilirubin.total [Mass/volume] in Serum or Plasma"
            }
          ],
          "text": "Bilirubin.total [Mass/volume] in Serum or Plasma"
        },
        "valueQuantity": {
          "system": "http://unitsofmeasure.org",
          "value": 1.1,
          "unit": "mg/dL",
          "code": "mg/dL"
        },
        "referenceRange": [
          {
            "low": {
              "value": 0.3,
              "code": "mg/dL",
              "system": "http://unitsofmeasure.org"
            }
          },
          {
            "high": {
              "value": 1.2,
              "code": "mg/dL",
              "system": "http://unitsofmeasure.org"
            }
          }
        ],
        "text": {
          "status": "generated",
          "div": "<div xmlns=\"http://www.w3.org/1999/xhtml\"><table class=\"hl7__eu__lab__report\"><tr><th>Test</th><th>04-Jun-2025</th><th>Reference&#xA0;Range</th><th>Unit</th></tr><tr><td>Bilirubin.total [Mass/volume] in Serum or Plasma</td><td>1.1</td><td>0.3 - 1.2</td><td></td><td>mg/dL</td></tr></table></div>"
        },
        "status": "final",
        "subject": {
          "reference": "urn:uuid:5fc9aaf1-9902-4632-974a-eb359f512545",
          "display": "Stephen Weinhage"
        },
        "effectiveDateTime": "2025-06-04T06:55:50Z",
        "specimen": {
          "reference": "urn:uuid:b132ad6e-2914-41af-8d05-7a669c760a49"
        }
      }
    },
    {
      "fullUrl": "urn:uuid:866de712-e6eb-48f4-b0e4-b168a6b779b5",
      "resource": {
        "resourceType": "Observation",
        "id": "866de712-e6eb-48f4-b0e4-b168a6b779b5",
        "meta": {
          "profile": [
            "http://hl7.eu/fhir/laboratory/StructureDefinition/Observation-resultslab-eu-lab"
          ]
        },
        "performer": [
          {
            "display": "The Central European Lab"
          }
        ],
        "category": [
          {
            "coding": [
              {
                "system": "http://terminology.hl7.org/CodeSystem/observation-category",
                "code": "laboratory"
              }
            ]
          }
        ],
        "code": {
          "coding": [
            {
              "code": "6768-6",
              "system": "http://loinc.org",
              "display": "Alkaline phosphatase [Enzymatic activity/volume] in Serum or Plasma"
            }
          ],
          "text": "Alkaline phosphatase [Enzymatic activity/volume] in Serum or Plasma"
        },
        "valueQuantity": {
          "system": "http://unitsofmeasure.org",
          "value": 92.4,
          "unit": "U/L",
          "code": "U/L"
        },
        "referenceRange": [
          {
            "low": {
              "value": 53,
              "code": "U/L",
              "system": "http://unitsofmeasure.org"
            }
          },
          {
            "high": {
              "value": 130,
              "code": "U/L",
              "system": "http://unitsofmeasure.org"
            }
          }
        ],
        "text": {
          "status": "generated",
          "div": "<div xmlns=\"http://www.w3.org/1999/xhtml\"><table class=\"hl7__eu__lab__report\"><tr><th>Test</th><th>04-Jun-2025</th><th>Reference&#xA0;Range</th><th>Unit</th></tr><tr><td>Alkaline phosphatase [Enzymatic activity/volume] in Serum or Plasma</td><td>92.4</td><td>53 - 130</td><td></td><td>U/L</td></tr></table></div>"
        },
        "status": "final",
        "subject": {
          "reference": "urn:uuid:5fc9aaf1-9902-4632-974a-eb359f512545",
          "display": "Stephen Weinhage"
        },
        "effectiveDateTime": "2025-06-04T06:55:50Z",
        "specimen": {
          "reference": "urn:uuid:b132ad6e-2914-41af-8d05-7a669c760a49"
        }
      }
    },
    {
      "fullUrl": "urn:uuid:1e1703d3-5abc-4f8e-98a4-370b7f44d87c",
      "resource": {
        "resourceType": "Observation",
        "id": "1e1703d3-5abc-4f8e-98a4-370b7f44d87c",
        "meta": {
          "profile": [
            "http://hl7.eu/fhir/laboratory/StructureDefinition/Observation-resultslab-eu-lab"
          ]
        },
        "performer": [
          {
            "display": "The Central European Lab"
          }
        ],
        "category": [
          {
            "coding": [
              {
                "system": "http://terminology.hl7.org/CodeSystem/observation-category",
                "code": "laboratory"
              }
            ]
          }
        ],
        "code": {
          "coding": [
            {
              "code": "1742-6",
              "system": "http://loinc.org",
              "display": "Alanine aminotransferase [Enzymatic activity/volume] in Serum or Plasma"
            }
          ],
          "text": "Alanine aminotransferase [Enzymatic activity/volume] in Serum or Plasma"
        },
        "valueQuantity": {
          "system": "http://unitsofmeasure.org",
          "value": 36.1,
          "unit": "U/L",
          "code": "U/L"
        },
        "referenceRange": [
          {
            "low": {
              "value": 7,
              "code": "U/L",
              "system": "http://unitsofmeasure.org"
            }
          },
          {
            "high": {
              "value": 60,
              "code": "U/L",
              "system": "http://unitsofmeasure.org"
            }
          }
        ],
        "text": {
          "status": "generated",
          "div": "<div xmlns=\"http://www.w3.org/1999/xhtml\"><table class=\"hl7__eu__lab__report\"><tr><th>Test</th><th>04-Jun-2025</th><th>Reference&#xA0;Range</th><th>Unit</th></tr><tr><td>Alanine aminotransferase [Enzymatic activity/volume] in Serum or Plasma</td><td>36.1</td><td>7 - 60</td><td></td><td>U/L</td></tr></table></div>"
        },
        "status": "final",
        "subject": {
          "reference": "urn:uuid:5fc9aaf1-9902-4632-974a-eb359f512545",
          "display": "Stephen Weinhage"
        },
        "effectiveDateTime": "2025-06-04T06:55:50Z",
        "specimen": {
          "reference": "urn:uuid:b132ad6e-2914-41af-8d05-7a669c760a49"
        }
      }
    },
    {
      "fullUrl": "urn:uuid:dc85a8a4-da03-4826-92d9-d5ea622868f4",
      "resource": {
        "resourceType": "Observation",
        "id": "dc85a8a4-da03-4826-92d9-d5ea622868f4",
        "meta": {
          "profile": [
            "http://hl7.eu/fhir/laboratory/StructureDefinition/Observation-resultslab-eu-lab"
          ]
        },
        "performer": [
          {
            "display": "The Central European Lab"
          }
        ],
        "category": [
          {
            "coding": [
              {
                "system": "http://terminology.hl7.org/CodeSystem/observation-category",
                "code": "laboratory"
              }
            ]
          }
        ],
        "code": {
          "coding": [
            {
              "code": "1920-8",
              "system": "http://loinc.org",
              "display": "Aspartate aminotransferase [Enzymatic activity/volume] in Serum or Plasma"
            }
          ],
          "text": "Aspartate aminotransferase [Enzymatic activity/volume] in Serum or Plasma"
        },
        "valueQuantity": {
          "system": "http://unitsofmeasure.org",
          "value": 28.3,
          "unit": "U/L",
          "code": "U/L"
        },
        "referenceRange": [
          {
            "low": {
              "value": 10,
              "code": "U/L",
              "system": "http://unitsofmeasure.org"
            }
          },
          {
            "high": {
              "value": 49,
              "code": "U/L",
              "system": "http://unitsofmeasure.org"
            }
          }
        ],
        "text": {
          "status": "generated",
          "div": "<div xmlns=\"http://www.w3.org/1999/xhtml\"><table class=\"hl7__eu__lab__report\"><tr><th>Test</th><th>04-Jun-2025</th><th>Reference&#xA0;Range</th><th>Unit</th></tr><tr><td>Aspartate aminotransferase [Enzymatic activity/volume] in Serum or Plasma</td><td>28.3</td><td>10 - 49</td><td></td><td>U/L</td></tr></table></div>"
        },
        "status": "final",
        "subject": {
          "reference": "urn:uuid:5fc9aaf1-9902-4632-974a-eb359f512545",
          "display": "Stephen Weinhage"
        },
        "effectiveDateTime": "2025-06-04T06:55:50Z",
        "specimen": {
          "reference": "urn:uuid:b132ad6e-2914-41af-8d05-7a669c760a49"
        }
      }
    },
    {
      "fullUrl": "urn:uuid:c5a36eba-d968-4bc8-a1cf-3f7a93efa60f",
      "resource": {
        "resourceType": "Observation",
        "id": "c5a36eba-d968-4bc8-a1cf-3f7a93efa60f",
        "meta": {
          "profile": [
            "http://hl7.eu/fhir/laboratory/StructureDefinition/Observation-resultslab-eu-lab"
          ]
        },
        "performer": [
          {
            "display": "The Central European Lab"
          }
        ],
        "category": [
          {
            "coding": [
              {
                "system": "http://terminology.hl7.org/CodeSystem/observation-category",
                "code": "laboratory"
              }
            ]
          }
        ],
        "code": {
          "coding": [
            {
              "code": "2093-3",
              "system": "http://loinc.org",
              "display": "Cholesterol [Mass/volume] in Serum or Plasma"
            }
          ],
          "text": "Cholesterol [Mass/volume] in Serum or Plasma"
        },
        "valueQuantity": {
          "system": "http://unitsofmeasure.org",
          "value": 177.6,
          "unit": "mg/dL",
          "code": "mg/dL"
        },
        "referenceRange": [
          {
            "low": {
              "value": 125,
              "code": "mg/dL",
              "system": "http://unitsofmeasure.org"
            }
          },
          {
            "high": {
              "value": 200,
              "code": "mg/dL",
              "system": "http://unitsofmeasure.org"
            }
          }
        ],
        "text": {
          "status": "generated",
          "div": "<div xmlns=\"http://www.w3.org/1999/xhtml\"><table class=\"hl7__eu__lab__report\"><tr><th>Test</th><th>04-Jun-2025</th><th>Reference&#xA0;Range</th><th>Unit</th></tr><tr><td>Cholesterol [Mass/volume] in Serum or Plasma</td><td>177.6</td><td>125 - 200</td><td></td><td>mg/dL</td></tr></table></div>"
        },
        "status": "final",
        "subject": {
          "reference": "urn:uuid:5fc9aaf1-9902-4632-974a-eb359f512545",
          "display": "Stephen Weinhage"
        },
        "effectiveDateTime": "2025-06-04T06:55:50Z",
        "specimen": {
          "reference": "urn:uuid:b132ad6e-2914-41af-8d05-7a669c760a49"
        }
      }
    },
    {
      "fullUrl": "urn:uuid:c6e61f73-233d-485f-8c5a-5062796a0d35",
      "resource": {
        "resourceType": "Observation",
        "id": "c6e61f73-233d-485f-8c5a-5062796a0d35",
        "meta": {
          "profile": [
            "http://hl7.eu/fhir/laboratory/StructureDefinition/Observation-resultslab-eu-lab"
          ]
        },
        "performer": [
          {
            "display": "The Central European Lab"
          }
        ],
        "category": [
          {
            "coding": [
              {
                "system": "http://terminology.hl7.org/CodeSystem/observation-category",
                "code": "laboratory"
              }
            ]
          }
        ],
        "code": {
          "coding": [
            {
              "code": "2571-8",
              "system": "http://loinc.org",
              "display": "Triglyceride [Mass/volume] in Serum or Plasma"
            }
          ],
          "text": "Triglyceride [Mass/volume] in Serum or Plasma"
        },
        "valueQuantity": {
          "system": "http://unitsofmeasure.org",
          "value": 175.5,
          "unit": "mg/dL",
          "code": "mg/dL"
        },
        "referenceRange": [
          {
            "low": {
              "value": 40,
              "code": "mg/dL",
              "system": "http://unitsofmeasure.org"
            }
          },
          {
            "high": {
              "value": 150,
              "code": "mg/dL",
              "system": "http://unitsofmeasure.org"
            }
          }
        ],
        "interpretation": [
          {
            "coding": [
              {
                "code": "H",
                "system": "http://terminology.hl7.org/CodeSystem/v3-ObservationInterpretation",
                "display": "High"
              }
            ]
          }
        ],
        "text": {
          "status": "generated",
          "div": "<div xmlns=\"http://www.w3.org/1999/xhtml\"><table class=\"hl7__eu__lab__report\"><tr><th>Test</th><th>04-Jun-2025</th><th>Reference&#xA0;Range</th><th>Unit</th></tr><tr><td>Triglyceride [Mass/volume] in Serum or Plasma</td><td>175.5</td><td>40 - 150</td><td>H</td><td>mg/dL</td></tr></table></div>"
        },
        "status": "final",
        "subject": {
          "reference": "urn:uuid:5fc9aaf1-9902-4632-974a-eb359f512545",
          "display": "Stephen Weinhage"
        },
        "effectiveDateTime": "2025-06-04T06:55:50Z",
        "specimen": {
          "reference": "urn:uuid:b132ad6e-2914-41af-8d05-7a669c760a49"
        }
      }
    },
    {
      "fullUrl": "urn:uuid:1614c79b-980e-448c-a25a-89acf676ada8",
      "resource": {
        "resourceType": "Observation",
        "id": "1614c79b-980e-448c-a25a-89acf676ada8",
        "meta": {
          "profile": [
            "http://hl7.eu/fhir/laboratory/StructureDefinition/Observation-resultslab-eu-lab"
          ]
        },
        "performer": [
          {
            "display": "The Central European Lab"
          }
        ],
        "category": [
          {
            "coding": [
              {
                "system": "http://terminology.hl7.org/CodeSystem/observation-category",
                "code": "laboratory"
              }
            ]
          }
        ],
        "code": {
          "coding": [
            {
              "code": "18262-6",
              "system": "http://loinc.org",
              "display": "Cholesterol in LDL [Mass/volume] in Serum or Plasma by Direct assay"
            }
          ],
          "text": "Cholesterol in LDL [Mass/volume] in Serum or Plasma by Direct assay"
        },
        "valueQuantity": {
          "system": "http://unitsofmeasure.org",
          "value": 93.9,
          "unit": "mg/dL",
          "code": "mg/dL"
        },
        "referenceRange": [
          {
            "low": {
              "value": 0,
              "code": "mg/dL",
              "system": "http://unitsofmeasure.org"
            }
          },
          {
            "high": {
              "value": 190,
              "code": "mg/dL",
              "system": "http://unitsofmeasure.org"
            }
          }
        ],
        "text": {
          "status": "generated",
          "div": "<div xmlns=\"http://www.w3.org/1999/xhtml\"><table class=\"hl7__eu__lab__report\"><tr><th>Test</th><th>04-Jun-2025</th><th>Reference&#xA0;Range</th><th>Unit</th></tr><tr><td>Cholesterol in LDL [Mass/volume] in Serum or Plasma by Direct assay</td><td>93.9</td><td>0 - 190</td><td></td><td>mg/dL</td></tr></table></div>"
        },
        "status": "final",
        "subject": {
          "reference": "urn:uuid:5fc9aaf1-9902-4632-974a-eb359f512545",
          "display": "Stephen Weinhage"
        },
        "effectiveDateTime": "2025-06-04T06:55:50Z",
        "specimen": {
          "reference": "urn:uuid:b132ad6e-2914-41af-8d05-7a669c760a49"
        }
      }
    },
    {
      "fullUrl": "urn:uuid:74d6cc28-36d3-4bf3-90d8-9709fcb9d15f",
      "resource": {
        "resourceType": "Observation",
        "id": "74d6cc28-36d3-4bf3-90d8-9709fcb9d15f",
        "meta": {
          "profile": [
            "http://hl7.eu/fhir/laboratory/StructureDefinition/Observation-resultslab-eu-lab"
          ]
        },
        "performer": [
          {
            "display": "The Central European Lab"
          }
        ],
        "category": [
          {
            "coding": [
              {
                "system": "http://terminology.hl7.org/CodeSystem/observation-category",
                "code": "laboratory"
              }
            ]
          }
        ],
        "code": {
          "coding": [
            {
              "code": "2085-9",
              "system": "http://loinc.org",
              "display": "Cholesterol in HDL [Mass/volume] in Serum or Plasma"
            }
          ],
          "text": "Cholesterol in HDL [Mass/volume] in Serum or Plasma"
        },
        "valueQuantity": {
          "system": "http://unitsofmeasure.org",
          "value": 42.6,
          "unit": "mg/dL",
          "code": "mg/dL"
        },
        "referenceRange": [
          {
            "low": {
              "value": 40,
              "code": "mg/dL",
              "system": "http://unitsofmeasure.org"
            }
          },
          {
            "high": {
              "value": 60,
              "code": "mg/dL",
              "system": "http://unitsofmeasure.org"
            }
          }
        ],
        "text": {
          "status": "generated",
          "div": "<div xmlns=\"http://www.w3.org/1999/xhtml\"><table class=\"hl7__eu__lab__report\"><tr><th>Test</th><th>04-Jun-2025</th><th>Reference&#xA0;Range</th><th>Unit</th></tr><tr><td>Cholesterol in HDL [Mass/volume] in Serum or Plasma</td><td>42.6</td><td>40 - 60</td><td></td><td>mg/dL</td></tr></table></div>"
        },
        "status": "final",
        "subject": {
          "reference": "urn:uuid:5fc9aaf1-9902-4632-974a-eb359f512545",
          "display": "Stephen Weinhage"
        },
        "effectiveDateTime": "2025-06-04T06:55:50Z",
        "specimen": {
          "reference": "urn:uuid:b132ad6e-2914-41af-8d05-7a669c760a49"
        }
      }
    },
    {
      "fullUrl": "urn:uuid:7df62da2-9913-49cb-8f00-6e0c53759b12",
      "resource": {
        "resourceType": "Device",
        "id": "7df62da2-9913-49cb-8f00-6e0c53759b12",
        "deviceName": [
          {
            "name": "SYNDERAI Synthetic Generator",
            "type": "manufacturer-name"
          }
        ],
        "version": [
          {
            "value": "5.0"
          }
        ],
        "text": {
          "status": "generated",
          "div": "<div xmlns=\"http://www.w3.org/1999/xhtml\">SYNDERAI Synthetic Generator v5.0</div>"
        },
        "status": "active\"",
        "distinctIdentifier": "synderai-generator-50",
        "manufacturer": "SYNDERAI Project"
      }
    },
    {
      "fullUrl": "urn:uuid:6b9afe2d-7e12-4801-a952-438af7dfa965",
      "resource": {
        "resourceType": "Provenance",
        "id": "6b9afe2d-7e12-4801-a952-438af7dfa965",
        "target": [
          {
            "reference": "Patient/5fc9aaf1-9902-4632-974a-eb359f512545"
          },
          {
            "reference": "Bundle/859f2fc1-3a96-476a-a260-5888e302d4f7"
          },
          {
            "reference": "Composition/2fddb55f-e17a-4c34-9cf5-bb086b980a95"
          },
          {
            "reference": "PractitionerRole/b4bdf945-e516-48c8-8ac4-819076b09cb8"
          },
          {
            "reference": "Practitioner/b1180da7-f720-45dd-9b80-979e9e4f8d72"
          },
          {
            "reference": "PractitionerRole/40de90a1-3b6a-426a-9f99-b97c1636aae5"
          },
          {
            "reference": "Organization/e1c2decc-5269-4d64-8bc9-5ec161ae1197"
          }
        ],
        "activity": {
          "text": "Synthetic Example Data Generation"
        },
        "policy": [
          "https://synderai.net/synderai-synthetic-data-policy"
        ],
        "agent": [
          {
            "type": {
              "text": "author"
            },
            "who": {
              "reference": "Device/7df62da2-9913-49cb-8f00-6e0c53759b12"
            }
          }
        ],
        "reason": [
          {
            "text": "Interoperability Testing and Training (non-clinical use)"
          }
        ],
        "text": {
          "status": "generated",
          "div": "<div xmlns=\"http://www.w3.org/1999/xhtml\">Provenance for SYNDERAI Synthetic Example Data Resource</div>"
        },
        "recorded": "2025-06-04T08:55:50Z"
      }
    },
    {
      "fullUrl": "urn:uuid:b4bdf945-e516-48c8-8ac4-819076b09cb8",
      "resource": {
        "resourceType": "PractitionerRole",
        "id": "b4bdf945-e516-48c8-8ac4-819076b09cb8",
        "meta": {
          "profile": [
            "http://hl7.eu/fhir/base/StructureDefinition/practitionerRole-eu"
          ]
        },
        "text": {
          "status": "generated",
          "div": "<div xmlns=\"http://www.w3.org/1999/xhtml\">Laboratory Role Id: b4bdf945-e516-48c8-8ac4-819076b09cb8</div>"
        },
        "practitioner": {
          "reference": "urn:uuid:b1180da7-f720-45dd-9b80-979e9e4f8d72"
        }
      }
    },
    {
      "fullUrl": "urn:uuid:b1180da7-f720-45dd-9b80-979e9e4f8d72",
      "resource": {
        "resourceType": "Practitioner",
        "id": "b1180da7-f720-45dd-9b80-979e9e4f8d72",
        "meta": {
          "profile": [
            "http://hl7.eu/fhir/base/StructureDefinition/practitioner-eu"
          ]
        },
        "identifier": [
          {
            "assigner": {
              "display": "HL7 Europe"
            },
            "system": "urn:oid:2.16.840.1.113883.2.51.999",
            "value": "a7430f0d-4cd2-4cb9-809b-097260ea0d0c"
          }
        ],
        "name": [
          {
            "prefix": [
              "dr"
            ],
            "given": [
              "Ex"
            ],
            "family": "Ample"
          }
        ],
        "address": [
          {
            "line": [
              "Laboratoire Central Européenne",
              "Boulevard du Jardin Botanique 32"
            ],
            "postalCode": "1000",
            "city": "Brussels",
            "country": "Belgium"
          }
        ],
        "text": {
          "status": "generated",
          "div": "<div xmlns=\"http://www.w3.org/1999/xhtml\">Laboratory: Laboratoire Central Européenne, 1000 Brussels, Belgium</div>"
        }
      }
    }
  ],
  "type": "document",
  "timestamp": "2025-06-04T08:55:50Z"
}
