{
  "resourceType": "Bundle",
  "id": "36ea95c0-c12f-457a-b6d3-b0c0f3634928",
  "meta": {
    "profile": [
      "http://hl7.eu/fhir/laboratory/StructureDefinition/Bundle-eu-lab"
    ]
  },
  "identifier": {
    "assigner": {
      "display": "HL7 Europe"
    },
    "system": "urn:oid:2.16.840.1.113883.2.51.999",
    "value": "2288916d-f68e-4a9c-9724-bbb0cac359ff"
  },
  "entry": [
    {
      "fullUrl": "urn:uuid:041f94ff-e67e-44da-8150-269bc309cd8a",
      "resource": {
        "resourceType": "Composition",
        "id": "041f94ff-e67e-44da-8150-269bc309cd8a",
        "meta": {
          "profile": [
            "http://hl7.eu/fhir/laboratory/StructureDefinition/Composition-eu-lab"
          ]
        },
        "identifier": {
          "assigner": {
            "display": "HL7 Europe"
          },
          "system": "urn:oid:2.16.840.1.113883.2.51.999",
          "value": "008bb836-e1d4-4fed-b24d-1e7fdd77b1ea"
        },
        "author": [
          {
            "reference": "urn:uuid:ec79dfb0-16ab-463b-93a9-d8779da06fc4"
          }
        ],
        "category": [
          {
            "coding": [
              {
                "code": "26436-6",
                "system": "http://loinc.org",
                "display": "Laboratory studies (set)"
              }
            ]
          }
        ],
        "type": {
          "coding": [
            {
              "code": "11502-2",
              "system": "http://loinc.org",
              "display": "Laboratory report"
            }
          ],
          "text": "Laboratory Report"
        },
        "section": [
          {
            "code": {
              "coding": [
                {
                  "code": "26436-6",
                  "system": "http://loinc.org",
                  "display": "Laboratory studies (set)"
                }
              ],
              "text": "Laboratory studies"
            },
            "section": [
              {
                "code": {
                  "coding": [
                    {
                      "code": "$18719-5",
                      "system": "http://loinc.org",
                      "display": "Chemistry studies (set)"
                    }
                  ],
                  "text": "Chemistry"
                },
                "entry": [
                  {
                    "reference": "urn:uuid:d797decd-5271-4f6b-bbb4-bc59d96eddf3"
                  },
                  {
                    "reference": "urn:uuid:45902f40-c6c6-4e45-858d-5f80dcf3bc26"
                  },
                  {
                    "reference": "urn:uuid:686fa970-11f4-4408-886f-17256face1ff"
                  },
                  {
                    "reference": "urn:uuid:26ffe862-e5e8-4f84-b0a2-bc9b6c3bbe6d"
                  },
                  {
                    "reference": "urn:uuid:507fb338-035a-41f7-953c-4d77e39d85ea"
                  },
                  {
                    "reference": "urn:uuid:d95292d9-9a0c-418e-a884-458ec4329295"
                  },
                  {
                    "reference": "urn:uuid:3f125361-81ee-42ce-be5d-d30c37cdc590"
                  },
                  {
                    "reference": "urn:uuid:b2a5ecaa-ea11-4a14-a103-abdef0ff50ab"
                  },
                  {
                    "reference": "urn:uuid:03b0a652-9f1f-40a1-8671-74959b646a05"
                  },
                  {
                    "reference": "urn:uuid:8e07aec1-95ff-424a-8ea8-7a2b5c0e88c5"
                  },
                  {
                    "reference": "urn:uuid:27042854-59fc-4fc2-9502-4fab319aca33"
                  },
                  {
                    "reference": "urn:uuid:3d95cd16-daeb-431f-bb2e-5843a4268718"
                  },
                  {
                    "reference": "urn:uuid:d79547e8-c060-45db-965e-677217b47c68"
                  },
                  {
                    "reference": "urn:uuid:4efff991-618b-4f47-b8b2-aca2e4731fb0"
                  },
                  {
                    "reference": "urn:uuid:57fc8322-e848-4c17-a2ff-c1a604f517f9"
                  },
                  {
                    "reference": "urn:uuid:ef42f5a5-5c01-4b65-8496-47a34eba2a9e"
                  },
                  {
                    "reference": "urn:uuid:def238fc-7dd0-4556-8748-a84441760505"
                  },
                  {
                    "reference": "urn:uuid:000af647-9027-4e44-a1e6-00c0bccddfe0"
                  }
                ],
                "text": {
                  "status": "generated",
                  "div": "<div xmlns=\"http://www.w3.org/1999/xhtml\"><h3>Chemistry</h3><table class=\"hl7__eu__lab__report\"><thead><tr><th>Test</th><th>12-MAY-2020</th><th>Reference&#xA0;Range</th><th>Unit</th></tr></thead><tbody><tr><td>Glucose [Mass/volume] in Serum or Plasma</td><td>80.5</td><td>70 - 99</td><td>mg/dL</td></tr><tr><td>Urea nitrogen [Mass/volume] in Serum or Plasma</td><td>8.2</td><td>7 - 50</td><td>mg/dL</td></tr><tr><td>Creatinine [Mass/volume] in Serum or Plasma</td><td><strong>1.9 H</strong></td><td>0.6 - 1.1</td><td>mg/dL</td></tr><tr><td>Calcium [Mass/volume] in Serum or Plasma</td><td>9.4</td><td>8.6 - 10.4</td><td>mg/dL</td></tr><tr><td>Sodium [Moles/volume] in Serum or Plasma</td><td>138.8</td><td>135 - 145</td><td>mmol/L</td></tr><tr><td>Potassium [Moles/volume] in Serum or Plasma</td><td>4.1</td><td>3.5 - 5.1</td><td>mmol/L</td></tr><tr><td>Chloride [Moles/volume] in Serum or Plasma</td><td>104.0</td><td>98 - 108</td><td>mmol/L</td></tr><tr><td>Carbon dioxide, total [Moles/volume] in Serum or Plasma</td><td>28.0</td><td>22 - 32</td><td>mmol/L</td></tr><tr><td>Ketones [Presence] in Urine by Test strip</td><td>Urine ketone test = ++</td><td></td><td></td></tr><tr><td>Hemoglobin A1c/Hemoglobin.total in Blood</td><td><strong>2.9 L</strong></td><td>4 - 6.4</td><td>%</td></tr><tr><td>Glucose [Mass/volume] in Blood</td><td>80.5</td><td>70 - 100</td><td>mg/dL</td></tr><tr><td>Urea nitrogen [Mass/volume] in Blood</td><td>8.2</td><td>7 - 43</td><td>mg/dL</td></tr><tr><td>Creatinine [Mass/volume] in Blood</td><td><strong>3.1 H</strong></td><td>0.6 - 1.1</td><td>mg/dL</td></tr><tr><td>Calcium [Mass/volume] in Blood</td><td>9.4</td><td>8.5 - 10.5</td><td>mg/dL</td></tr><tr><td>Sodium [Moles/volume] in Blood</td><td>138.8</td><td>135 - 145</td><td>mmol/L</td></tr><tr><td>Potassium [Moles/volume] in Blood</td><td>4.1</td><td>3.5 - 5.1</td><td>mmol/L</td></tr><tr><td>Chloride [Moles/volume] in Blood</td><td>104.0</td><td>98 - 108</td><td>mmol/L</td></tr><tr><td>Carbon dioxide, total [Moles/volume] in Blood</td><td>28.0</td><td>22 - 29</td><td>mmol/L</td></tr></tbody></table></div>"
                },
                "title": "Chemistry"
              },
              {
                "code": {
                  "coding": [
                    {
                      "code": "$18729-4",
                      "system": "http://loinc.org",
                      "display": "Urinalysis studies (set)"
                    }
                  ],
                  "text": "Urinalysis"
                },
                "entry": [
                  {
                    "reference": "urn:uuid:aa3b0ebd-561c-428c-af2e-25177e63f8bb"
                  },
                  {
                    "reference": "urn:uuid:b7758c32-8276-4916-9942-99573d0a8e5d"
                  },
                  {
                    "reference": "urn:uuid:bc34c314-19be-4d72-8fa2-2838db544e23"
                  },
                  {
                    "reference": "urn:uuid:39f8d3b5-189c-447e-a39f-0b55279ac1cb"
                  },
                  {
                    "reference": "urn:uuid:6d0d127e-d779-4d30-b437-681f7c038aba"
                  },
                  {
                    "reference": "urn:uuid:99350830-e67e-4b61-bbf9-7d75161b9141"
                  },
                  {
                    "reference": "urn:uuid:7aa515c4-b411-4937-82bc-e8b368f22adf"
                  },
                  {
                    "reference": "urn:uuid:43d87009-579b-4e99-96fd-ccb68d90bb35"
                  },
                  {
                    "reference": "urn:uuid:54b1285b-8f39-4b4e-8545-40dad0e447cc"
                  },
                  {
                    "reference": "urn:uuid:9329c8ad-1332-4041-866e-d8fcbf0be736"
                  },
                  {
                    "reference": "urn:uuid:977564a5-10fa-417a-a9d1-0e70d14b374e"
                  },
                  {
                    "reference": "urn:uuid:2f31fc14-8224-437d-a4a5-ff258fad0624"
                  }
                ],
                "text": {
                  "status": "generated",
                  "div": "<div xmlns=\"http://www.w3.org/1999/xhtml\"><h3>Urinalysis</h3><table class=\"hl7__eu__lab__report\"><thead><tr><th>Test</th><th>12-MAY-2020</th><th>Reference&#xA0;Range</th><th>Unit</th></tr></thead><tbody><tr><td>Glucose [Mass/volume] in Urine by Test strip</td><td><strong>1.7 H</strong></td><td>0.8 - 0</td><td>mg/dL</td></tr><tr><td>Glucose [Presence] in Urine by Test strip</td><td>++</td><td></td><td></td></tr><tr><td>Bilirubin.total [Mass/volume] in Urine by Test strip</td><td>0.8</td><td>0 - 1</td><td>mg/dL</td></tr><tr><td>Bilirubin.total [Presence] in Urine by Test strip</td><td>Finding of bilirubin in urine</td><td></td><td></td></tr><tr><td>Ketones [Mass/volume] in Urine by Test strip</td><td>0.3</td><td>0 - 4</td><td>mg/dL</td></tr><tr><td>Specific gravity of Urine by Test strip</td><td><strong>1.0 L</strong></td><td>1.005 - 1.03</td><td>{nominal}</td></tr><tr><td>pH of Urine by Test strip</td><td>6.8</td><td>4.6 - 7</td><td>pH</td></tr><tr><td>Protein [Mass/volume] in Urine by Test strip</td><td><strong>235.9 H</strong></td><td>0 - 14</td><td>mg/dL</td></tr><tr><td>Protein [Presence] in Urine by Test strip</td><td>Urine protein test = ++</td><td></td><td></td></tr><tr><td>Nitrite [Presence] in Urine by Test strip</td><td>Urine nitrite negative</td><td></td><td></td></tr><tr><td>Hemoglobin [Presence] in Urine by Test strip</td><td>Urine blood test = negative</td><td></td><td></td></tr><tr><td>Leukocyte esterase [Presence] in Urine by Test strip</td><td>Urine leukocyte test negative</td><td></td><td></td></tr></tbody></table></div>"
                },
                "title": "Urinalysis"
              },
              {
                "code": {
                  "coding": [
                    {
                      "code": "$LP7846-1",
                      "system": "http://loinc.org",
                      "display": "Specimen information"
                    }
                  ],
                  "text": "Specimen information"
                },
                "entry": [
                  {
                    "reference": "urn:uuid:6a99aff7-0690-40a3-9254-64c07ee9ee55"
                  },
                  {
                    "reference": "urn:uuid:ab5d35ff-f647-4166-928e-a038e9c30b1d"
                  },
                  {
                    "reference": "urn:uuid:cbf5ead2-d2b7-4104-bbe4-0e84629a4881"
                  },
                  {
                    "reference": "urn:uuid:0b8d7375-97e3-4adb-bb3a-e29e4182122a"
                  }
                ],
                "text": {
                  "status": "generated",
                  "div": "<div xmlns=\"http://www.w3.org/1999/xhtml\"><h3>Specimen information</h3><table class=\"hl7__eu__lab__report\"><thead><tr><th>Test</th><th>12-MAY-2020</th><th>Specimen</th><th></th></tr></thead><tbody><tr><td>Appearance of Urine</td><td>Cloudy urine</td><td>Urine</td><td></td></tr><tr><td>Odor of Urine</td><td>Urine smell ammoniacal</td><td>Urine</td><td></td></tr><tr><td>Clarity of Urine</td><td>Translucent</td><td>Urine</td><td></td></tr><tr><td>Color of Urine</td><td>Brown color</td><td>Urine</td><td></td></tr></tbody></table></div>"
                },
                "title": "Specimen information"
              }
            ],
            "title": "Laboratory Report"
          },
          {
            "text": {
              "status": "generated",
              "div": "<div xmlns=\"http://www.w3.org/1999/xhtml\"><h3>Annotation</h3><table class=\"hl7__eu__lab__report\"><tr><th>Conclusion and Recommendations based on this report and previous findings known to us</th></tr><tr><td>The patient shows significantly elevated creatinine, marked proteinuria, glucosuria, ketonuria, and low urine specific gravity, suggesting impaired renal function with possible nephrotic-range proteinuria and tubular dysfunction. Urine is cloudy, brown, and ammoniacal, but no evidence of infection. HbA1c is low, excluding chronic hyperglycemia. Findings are consistent with acute or chronic kidney disease; prompt nephrology evaluation is recommended.</td></tr></table></div>"
            },
            "code": {
              "coding": [
                {
                  "system": "http://loinc.org",
                  "code": "48767-8",
                  "display": "Annotation comment"
                }
              ]
            },
            "title": "Annotation comment"
          }
        ],
        "status": "final",
        "subject": {
          "reference": "urn:uuid:3be84a27-8220-4f24-9b11-0d9b7b036dbc",
          "display": "Meaghan Neary"
        },
        "date": "2020-05-12T00:11:04Z",
        "title": "Laboratory Report",
        "confidentiality": "N"
      }
    },
    {
      "fullUrl": "urn:uuid:49abdc62-d432-4fa0-bda3-ed92627e84e0",
      "resource": {
        "resourceType": "DiagnosticReport",
        "id": "49abdc62-d432-4fa0-bda3-ed92627e84e0",
        "meta": {
          "profile": [
            "http://hl7.eu/fhir/laboratory/StructureDefinition/DiagnosticReport-eu-lab"
          ]
        },
        "identifier": [
          {
            "assigner": {
              "display": "HL7 Europe"
            },
            "system": "urn:oid:2.16.840.1.113883.2.51.999",
            "value": "0f6eca85-c1e7-4245-b983-2cc37f16030c"
          }
        ],
        "extension": [
          {
            "url": "http://hl7.org/fhir/5.0/StructureDefinition/extension-DiagnosticReport.composition",
            "valueReference": {
              "reference": "urn:uuid:008bb836-e1d4-4fed-b24d-1e7fdd77b1ea"
            }
          }
        ],
        "category": [
          {
            "coding": [
              {
                "code": "26436-6",
                "system": "http://loinc.org",
                "display": "Laboratory studies (set)"
              }
            ]
          }
        ],
        "specimen": [
          {
            "reference": "urn:uuid:82556a7e-4630-4267-9787-b130d2f5a357"
          },
          {
            "reference": "urn:uuid:7920e016-256e-49c0-ac29-0ecc71f5a979"
          },
          {
            "reference": "urn:uuid:b8352059-867b-4f02-a4c7-6ecdfe3a8b49"
          }
        ],
        "result": [
          {
            "reference": "urn:uuid:d797decd-5271-4f6b-bbb4-bc59d96eddf3"
          },
          {
            "reference": "urn:uuid:45902f40-c6c6-4e45-858d-5f80dcf3bc26"
          },
          {
            "reference": "urn:uuid:686fa970-11f4-4408-886f-17256face1ff"
          },
          {
            "reference": "urn:uuid:26ffe862-e5e8-4f84-b0a2-bc9b6c3bbe6d"
          },
          {
            "reference": "urn:uuid:507fb338-035a-41f7-953c-4d77e39d85ea"
          },
          {
            "reference": "urn:uuid:d95292d9-9a0c-418e-a884-458ec4329295"
          },
          {
            "reference": "urn:uuid:3f125361-81ee-42ce-be5d-d30c37cdc590"
          },
          {
            "reference": "urn:uuid:b2a5ecaa-ea11-4a14-a103-abdef0ff50ab"
          },
          {
            "reference": "urn:uuid:6a99aff7-0690-40a3-9254-64c07ee9ee55"
          },
          {
            "reference": "urn:uuid:ab5d35ff-f647-4166-928e-a038e9c30b1d"
          },
          {
            "reference": "urn:uuid:cbf5ead2-d2b7-4104-bbe4-0e84629a4881"
          },
          {
            "reference": "urn:uuid:0b8d7375-97e3-4adb-bb3a-e29e4182122a"
          },
          {
            "reference": "urn:uuid:aa3b0ebd-561c-428c-af2e-25177e63f8bb"
          },
          {
            "reference": "urn:uuid:b7758c32-8276-4916-9942-99573d0a8e5d"
          },
          {
            "reference": "urn:uuid:bc34c314-19be-4d72-8fa2-2838db544e23"
          },
          {
            "reference": "urn:uuid:39f8d3b5-189c-447e-a39f-0b55279ac1cb"
          },
          {
            "reference": "urn:uuid:6d0d127e-d779-4d30-b437-681f7c038aba"
          },
          {
            "reference": "urn:uuid:03b0a652-9f1f-40a1-8671-74959b646a05"
          },
          {
            "reference": "urn:uuid:99350830-e67e-4b61-bbf9-7d75161b9141"
          },
          {
            "reference": "urn:uuid:7aa515c4-b411-4937-82bc-e8b368f22adf"
          },
          {
            "reference": "urn:uuid:43d87009-579b-4e99-96fd-ccb68d90bb35"
          },
          {
            "reference": "urn:uuid:54b1285b-8f39-4b4e-8545-40dad0e447cc"
          },
          {
            "reference": "urn:uuid:9329c8ad-1332-4041-866e-d8fcbf0be736"
          },
          {
            "reference": "urn:uuid:977564a5-10fa-417a-a9d1-0e70d14b374e"
          },
          {
            "reference": "urn:uuid:2f31fc14-8224-437d-a4a5-ff258fad0624"
          },
          {
            "reference": "urn:uuid:8e07aec1-95ff-424a-8ea8-7a2b5c0e88c5"
          },
          {
            "reference": "urn:uuid:27042854-59fc-4fc2-9502-4fab319aca33"
          },
          {
            "reference": "urn:uuid:3d95cd16-daeb-431f-bb2e-5843a4268718"
          },
          {
            "reference": "urn:uuid:d79547e8-c060-45db-965e-677217b47c68"
          },
          {
            "reference": "urn:uuid:4efff991-618b-4f47-b8b2-aca2e4731fb0"
          },
          {
            "reference": "urn:uuid:57fc8322-e848-4c17-a2ff-c1a604f517f9"
          },
          {
            "reference": "urn:uuid:ef42f5a5-5c01-4b65-8496-47a34eba2a9e"
          },
          {
            "reference": "urn:uuid:def238fc-7dd0-4556-8748-a84441760505"
          },
          {
            "reference": "urn:uuid:000af647-9027-4e44-a1e6-00c0bccddfe0"
          }
        ],
        "status": "registered",
        "code": {
          "coding": [
            {
              "code": "11502-2",
              "system": "http://loinc.org",
              "display": "Laboratory report"
            }
          ]
        },
        "subject": {
          "reference": "urn:uuid:3be84a27-8220-4f24-9b11-0d9b7b036dbc",
          "display": "Meaghan Neary"
        }
      }
    },
    {
      "fullUrl": "urn:uuid:3be84a27-8220-4f24-9b11-0d9b7b036dbc",
      "resource": {
        "resourceType": "Patient",
        "id": "3be84a27-8220-4f24-9b11-0d9b7b036dbc",
        "meta": {
          "security": [
            {
              "system": "http://terminology.hl7.org/CodeSystem/v3-ActReason",
              "code": "HTEST"
            },
            {
              "system": "http://terminology.hl7.org/CodeSystem/v3-ActReason",
              "code": "TRAIN"
            }
          ],
          "tag": [
            {
              "system": "https://synderai.net/fhir/CodeSystem/tags",
              "code": "synthetic",
              "display": "SYNDERAI Synthetic data"
            }
          ],
          "profile": [
            "http://hl7.eu/fhir/base/StructureDefinition/patient-eu-core"
          ]
        },
        "identifier": [
          {
            "type": {
              "coding": [
                {
                  "code": "PT",
                  "system": "http://terminology.hl7.org/CodeSystem/v2-0203"
                }
              ]
            },
            "system": "http://ec.europa.eu/identifier/eci",
            "value": "1586-567257-8"
          },
          {
            "type": {
              "coding": [
                {
                  "code": "MR",
                  "system": "http://terminology.hl7.org/CodeSystem/v2-0203"
                }
              ]
            },
            "system": "http://local.setting.eu/identifier",
            "value": "443e6379-f231-b364-3ccb-644740a1aa2a"
          }
        ],
        "name": [
          {
            "family": "Neary"
          },
          {
            "given": [
              "Meaghan"
            ]
          },
          {
            "text": "Meaghan Neary"
          }
        ],
        "address": [
          {
            "line": [
              "64 Linskey Street"
            ],
            "use": "home",
            "type": "physical",
            "postalCode": "D02",
            "city": "Dublin",
            "country": "Ireland"
          }
        ],
        "telecom": [
          {
            "system": "phone",
            "value": "001-967-573-0911x465"
          }
        ],
        "extension": [
          {
            "url": "http://hl7.org/fhir/StructureDefinition/patient-nationality",
            "valueCodeableConcept": {
              "coding": [
                {
                  "code": "IE",
                  "system": "http://hl7.org/fhir/ValueSet/country"
                }
              ]
            }
          }
        ],
        "text": {
          "status": "generated",
          "div": "<div xmlns=\"http://www.w3.org/1999/xhtml\"><table class=\"hl7__ips\"><tr><td>Meaghan Neary</td><td>female</td><td>19-Dec-1960</td></tr></table></div>"
        },
        "gender": "female",
        "birthDate": "1960-12-19"
      }
    },
    {
      "fullUrl": "urn:uuid:552abe1c-93ef-405e-a542-6f2283d402cd",
      "resource": {
        "resourceType": "ServiceRequest",
        "id": "552abe1c-93ef-405e-a542-6f2283d402cd",
        "meta": {
          "profile": [
            "http://hl7.eu/fhir/laboratory/StructureDefinition/ServiceRequest-eu-lab"
          ]
        },
        "identifier": [
          {
            "system": "http://example.org",
            "value": "e2421bc0-e29e-4092-83fb-e42ca6ce8c3f"
          }
        ],
        "specimen": [
          {
            "reference": "urn:uuid:82556a7e-4630-4267-9787-b130d2f5a357"
          },
          {
            "reference": "urn:uuid:7920e016-256e-49c0-ac29-0ecc71f5a979"
          },
          {
            "reference": "urn:uuid:b8352059-867b-4f02-a4c7-6ecdfe3a8b49"
          }
        ],
        "reasonCode": [
          {
            "coding": [
              {
                "code": "55822004",
                "system": "http://snomed.info/sct",
                "display": "Hyperlipidemia"
              }
            ]
          },
          {
            "coding": [
              {
                "code": "433144002",
                "system": "http://snomed.info/sct",
                "display": "Chronic kidney disease stage 3"
              }
            ]
          },
          {
            "coding": [
              {
                "code": "157141000119108",
                "system": "http://snomed.info/sct",
                "display": "Proteinuria due to type 2 diabetes mellitus"
              }
            ]
          },
          {
            "coding": [
              {
                "code": "431856006",
                "system": "http://snomed.info/sct",
                "display": "Chronic kidney disease stage 2"
              }
            ]
          },
          {
            "coding": [
              {
                "code": "90781000119102",
                "system": "http://snomed.info/sct",
                "display": "Microalbuminuria due to type 2 diabetes mellitus"
              }
            ]
          },
          {
            "coding": [
              {
                "code": "127013003",
                "system": "http://snomed.info/sct",
                "display": "Disorder of kidney due to diabetes mellitus"
              }
            ]
          },
          {
            "coding": [
              {
                "code": "431855005",
                "system": "http://snomed.info/sct",
                "display": "Chronic kidney disease stage 1"
              }
            ]
          },
          {
            "coding": [
              {
                "code": "237602007",
                "system": "http://snomed.info/sct",
                "display": "Metabolic syndrome X"
              }
            ]
          },
          {
            "coding": [
              {
                "code": "271737000",
                "system": "http://snomed.info/sct",
                "display": "Anemia"
              }
            ]
          },
          {
            "coding": [
              {
                "code": "15777000",
                "system": "http://snomed.info/sct",
                "display": "Prediabetes"
              }
            ]
          },
          {
            "coding": [
              {
                "code": "59621000",
                "system": "http://snomed.info/sct",
                "display": "Essential hypertension"
              }
            ]
          }
        ],
        "status": "active",
        "intent": "order",
        "code": {
          "coding": [
            {
              "code": "108252007",
              "system": "http://snomed.info/sct",
              "display": "Laboratory procedure"
            }
          ]
        },
        "subject": {
          "reference": "urn:uuid:3be84a27-8220-4f24-9b11-0d9b7b036dbc",
          "display": "Meaghan Neary"
        },
        "requester": {
          "reference": "urn:uuid:81ee9440-676e-44dc-873f-821eed205a1d"
        }
      }
    },
    {
      "fullUrl": "urn:uuid:81ee9440-676e-44dc-873f-821eed205a1d",
      "resource": {
        "resourceType": "PractitionerRole",
        "id": "81ee9440-676e-44dc-873f-821eed205a1d",
        "meta": {
          "profile": [
            "http://hl7.eu/fhir/base/StructureDefinition/practitionerRole-eu"
          ]
        },
        "text": {
          "status": "generated",
          "div": "<div xmlns=\"http://www.w3.org/1999/xhtml\">Provider Role Id: 81ee9440-676e-44dc-873f-821eed205a1d</div>"
        },
        "organization": {
          "reference": "urn:uuid:0ec24126-d51b-4deb-90e0-d97116197a39"
        }
      }
    },
    {
      "fullUrl": "urn:uuid:0ec24126-d51b-4deb-90e0-d97116197a39",
      "resource": {
        "resourceType": "Organization",
        "id": "0ec24126-d51b-4deb-90e0-d97116197a39",
        "meta": {
          "profile": [
            "http://hl7.eu/fhir/base/StructureDefinition/organization-eu"
          ]
        },
        "identifier": [
          {
            "assigner": {
              "display": "HL7 Europe"
            },
            "system": "urn:oid:2.16.840.1.113883.2.51.999",
            "value": "054776f3-c36e-44d7-9663-8f176720f03d"
          }
        ],
        "address": [
          {
            "line": [
              "Parnell Square West nan"
            ],
            "city": "Dublin",
            "postalCode": "D01",
            "country": "Ireland"
          }
        ],
        "text": {
          "status": "generated",
          "div": "<div xmlns=\"http://www.w3.org/1999/xhtml\">Provider Organization: Rotunda Hospital</div>"
        },
        "name": "Rotunda Hospital"
      }
    },
    {
      "fullUrl": "urn:uuid:82556a7e-4630-4267-9787-b130d2f5a357",
      "resource": {
        "resourceType": "Specimen",
        "id": "82556a7e-4630-4267-9787-b130d2f5a357",
        "meta": {
          "profile": [
            "http://hl7.eu/fhir/laboratory/StructureDefinition/Specimen-eu-lab"
          ]
        },
        "collection": {
          "collectedDateTime": "2020-05-11"
        },
        "text": {
          "status": "generated",
          "div": "<div xmlns=\"http://www.w3.org/1999/xhtml\"><table class=\"hl7__eu__lab__report\"><tr><th>Specimen</th><th>Collection Date</th></tr><tr><td>Acellular blood (serum or plasma) specimen</td><td><span class=\"nb\">11-May-2020</span></td></tr></table></div>"
        },
        "type": {
          "coding": [
            {
              "code": "122592007",
              "system": "http://snomed.info/sct",
              "display": "Acellular blood (serum or plasma) specimen"
            }
          ]
        }
      }
    },
    {
      "fullUrl": "urn:uuid:7920e016-256e-49c0-ac29-0ecc71f5a979",
      "resource": {
        "resourceType": "Specimen",
        "id": "7920e016-256e-49c0-ac29-0ecc71f5a979",
        "meta": {
          "profile": [
            "http://hl7.eu/fhir/laboratory/StructureDefinition/Specimen-eu-lab"
          ]
        },
        "collection": {
          "collectedDateTime": "2020-05-11"
        },
        "text": {
          "status": "generated",
          "div": "<div xmlns=\"http://www.w3.org/1999/xhtml\"><table class=\"hl7__eu__lab__report\"><tr><th>Specimen</th><th>Collection Date</th></tr><tr><td>Urine specimen</td><td><span class=\"nb\">11-May-2020</span></td></tr></table></div>"
        },
        "type": {
          "coding": [
            {
              "code": "122575003",
              "system": "http://snomed.info/sct",
              "display": "Urine specimen"
            }
          ]
        }
      }
    },
    {
      "fullUrl": "urn:uuid:b8352059-867b-4f02-a4c7-6ecdfe3a8b49",
      "resource": {
        "resourceType": "Specimen",
        "id": "b8352059-867b-4f02-a4c7-6ecdfe3a8b49",
        "meta": {
          "profile": [
            "http://hl7.eu/fhir/laboratory/StructureDefinition/Specimen-eu-lab"
          ]
        },
        "collection": {
          "collectedDateTime": "2020-05-11"
        },
        "text": {
          "status": "generated",
          "div": "<div xmlns=\"http://www.w3.org/1999/xhtml\"><table class=\"hl7__eu__lab__report\"><tr><th>Specimen</th><th>Collection Date</th></tr><tr><td>Whole blood specimen (specimen)</td><td><span class=\"nb\">11-May-2020</span></td></tr></table></div>"
        },
        "type": {
          "coding": [
            {
              "code": "258580003",
              "system": "http://snomed.info/sct",
              "display": "Whole blood specimen (specimen)"
            }
          ]
        }
      }
    },
    {
      "fullUrl": "urn:uuid:d797decd-5271-4f6b-bbb4-bc59d96eddf3",
      "resource": {
        "resourceType": "Observation",
        "id": "d797decd-5271-4f6b-bbb4-bc59d96eddf3",
        "meta": {
          "profile": [
            "http://hl7.eu/fhir/laboratory/StructureDefinition/Observation-resultslab-eu-lab"
          ]
        },
        "performer": [
          {
            "display": "The Central European Lab"
          }
        ],
        "category": [
          {
            "coding": [
              {
                "system": "http://terminology.hl7.org/CodeSystem/observation-category",
                "code": "laboratory"
              }
            ]
          }
        ],
        "code": {
          "coding": [
            {
              "code": "2345-7",
              "system": "http://loinc.org",
              "display": "Glucose [Mass/volume] in Serum or Plasma"
            }
          ],
          "text": "Glucose [Mass/volume] in Serum or Plasma"
        },
        "valueQuantity": {
          "system": "http://unitsofmeasure.org",
          "value": 80.5,
          "unit": "mg/dL",
          "code": "mg/dL"
        },
        "referenceRange": [
          {
            "low": {
              "value": 70,
              "code": "mg/dL",
              "system": "http://unitsofmeasure.org"
            }
          },
          {
            "high": {
              "value": 99,
              "code": "mg/dL",
              "system": "http://unitsofmeasure.org"
            }
          }
        ],
        "text": {
          "status": "generated",
          "div": "<div xmlns=\"http://www.w3.org/1999/xhtml\"><table class=\"hl7__eu__lab__report\"><tr><th>Test</th><th>12-May-2020</th><th>Reference&#xA0;Range</th><th>Unit</th></tr><tr><td>Glucose [Mass/volume] in Serum or Plasma</td><td>80.5</td><td>70 - 99</td><td></td><td>mg/dL</td></tr></table></div>"
        },
        "status": "final",
        "subject": {
          "reference": "urn:uuid:3be84a27-8220-4f24-9b11-0d9b7b036dbc",
          "display": "Meaghan Neary"
        },
        "effectiveDateTime": "2020-05-11T22:11:04Z",
        "specimen": {
          "reference": "urn:uuid:82556a7e-4630-4267-9787-b130d2f5a357"
        }
      }
    },
    {
      "fullUrl": "urn:uuid:45902f40-c6c6-4e45-858d-5f80dcf3bc26",
      "resource": {
        "resourceType": "Observation",
        "id": "45902f40-c6c6-4e45-858d-5f80dcf3bc26",
        "meta": {
          "profile": [
            "http://hl7.eu/fhir/laboratory/StructureDefinition/Observation-resultslab-eu-lab"
          ]
        },
        "performer": [
          {
            "display": "The Central European Lab"
          }
        ],
        "category": [
          {
            "coding": [
              {
                "system": "http://terminology.hl7.org/CodeSystem/observation-category",
                "code": "laboratory"
              }
            ]
          }
        ],
        "code": {
          "coding": [
            {
              "code": "3094-0",
              "system": "http://loinc.org",
              "display": "Urea nitrogen [Mass/volume] in Serum or Plasma"
            }
          ],
          "text": "Urea nitrogen [Mass/volume] in Serum or Plasma"
        },
        "valueQuantity": {
          "system": "http://unitsofmeasure.org",
          "value": 8.2,
          "unit": "mg/dL",
          "code": "mg/dL"
        },
        "referenceRange": [
          {
            "low": {
              "value": 7,
              "code": "mg/dL",
              "system": "http://unitsofmeasure.org"
            }
          },
          {
            "high": {
              "value": 50,
              "code": "mg/dL",
              "system": "http://unitsofmeasure.org"
            }
          }
        ],
        "text": {
          "status": "generated",
          "div": "<div xmlns=\"http://www.w3.org/1999/xhtml\"><table class=\"hl7__eu__lab__report\"><tr><th>Test</th><th>12-May-2020</th><th>Reference&#xA0;Range</th><th>Unit</th></tr><tr><td>Urea nitrogen [Mass/volume] in Serum or Plasma</td><td>8.2</td><td>7 - 50</td><td></td><td>mg/dL</td></tr></table></div>"
        },
        "status": "final",
        "subject": {
          "reference": "urn:uuid:3be84a27-8220-4f24-9b11-0d9b7b036dbc",
          "display": "Meaghan Neary"
        },
        "effectiveDateTime": "2020-05-11T22:11:04Z",
        "specimen": {
          "reference": "urn:uuid:82556a7e-4630-4267-9787-b130d2f5a357"
        }
      }
    },
    {
      "fullUrl": "urn:uuid:686fa970-11f4-4408-886f-17256face1ff",
      "resource": {
        "resourceType": "Observation",
        "id": "686fa970-11f4-4408-886f-17256face1ff",
        "meta": {
          "profile": [
            "http://hl7.eu/fhir/laboratory/StructureDefinition/Observation-resultslab-eu-lab"
          ]
        },
        "performer": [
          {
            "display": "The Central European Lab"
          }
        ],
        "category": [
          {
            "coding": [
              {
                "system": "http://terminology.hl7.org/CodeSystem/observation-category",
                "code": "laboratory"
              }
            ]
          }
        ],
        "code": {
          "coding": [
            {
              "code": "2160-0",
              "system": "http://loinc.org",
              "display": "Creatinine [Mass/volume] in Serum or Plasma"
            }
          ],
          "text": "Creatinine [Mass/volume] in Serum or Plasma"
        },
        "valueQuantity": {
          "system": "http://unitsofmeasure.org",
          "value": 1.9,
          "unit": "mg/dL",
          "code": "mg/dL"
        },
        "referenceRange": [
          {
            "low": {
              "value": 0.6,
              "code": "mg/dL",
              "system": "http://unitsofmeasure.org"
            }
          },
          {
            "high": {
              "value": 1.1,
              "code": "mg/dL",
              "system": "http://unitsofmeasure.org"
            }
          }
        ],
        "interpretation": [
          {
            "coding": [
              {
                "code": "H",
                "system": "http://terminology.hl7.org/CodeSystem/v3-ObservationInterpretation",
                "display": "High"
              }
            ]
          }
        ],
        "text": {
          "status": "generated",
          "div": "<div xmlns=\"http://www.w3.org/1999/xhtml\"><table class=\"hl7__eu__lab__report\"><tr><th>Test</th><th>12-May-2020</th><th>Reference&#xA0;Range</th><th>Unit</th></tr><tr><td>Creatinine [Mass/volume] in Serum or Plasma</td><td>1.9</td><td>0.6 - 1.1</td><td>H</td><td>mg/dL</td></tr></table></div>"
        },
        "status": "final",
        "subject": {
          "reference": "urn:uuid:3be84a27-8220-4f24-9b11-0d9b7b036dbc",
          "display": "Meaghan Neary"
        },
        "effectiveDateTime": "2020-05-11T22:11:04Z",
        "specimen": {
          "reference": "urn:uuid:82556a7e-4630-4267-9787-b130d2f5a357"
        }
      }
    },
    {
      "fullUrl": "urn:uuid:26ffe862-e5e8-4f84-b0a2-bc9b6c3bbe6d",
      "resource": {
        "resourceType": "Observation",
        "id": "26ffe862-e5e8-4f84-b0a2-bc9b6c3bbe6d",
        "meta": {
          "profile": [
            "http://hl7.eu/fhir/laboratory/StructureDefinition/Observation-resultslab-eu-lab"
          ]
        },
        "performer": [
          {
            "display": "The Central European Lab"
          }
        ],
        "category": [
          {
            "coding": [
              {
                "system": "http://terminology.hl7.org/CodeSystem/observation-category",
                "code": "laboratory"
              }
            ]
          }
        ],
        "code": {
          "coding": [
            {
              "code": "17861-6",
              "system": "http://loinc.org",
              "display": "Calcium [Mass/volume] in Serum or Plasma"
            }
          ],
          "text": "Calcium [Mass/volume] in Serum or Plasma"
        },
        "valueQuantity": {
          "system": "http://unitsofmeasure.org",
          "value": 9.4,
          "unit": "mg/dL",
          "code": "mg/dL"
        },
        "referenceRange": [
          {
            "low": {
              "value": 8.6,
              "code": "mg/dL",
              "system": "http://unitsofmeasure.org"
            }
          },
          {
            "high": {
              "value": 10.4,
              "code": "mg/dL",
              "system": "http://unitsofmeasure.org"
            }
          }
        ],
        "text": {
          "status": "generated",
          "div": "<div xmlns=\"http://www.w3.org/1999/xhtml\"><table class=\"hl7__eu__lab__report\"><tr><th>Test</th><th>12-May-2020</th><th>Reference&#xA0;Range</th><th>Unit</th></tr><tr><td>Calcium [Mass/volume] in Serum or Plasma</td><td>9.4</td><td>8.6 - 10.4</td><td></td><td>mg/dL</td></tr></table></div>"
        },
        "status": "final",
        "subject": {
          "reference": "urn:uuid:3be84a27-8220-4f24-9b11-0d9b7b036dbc",
          "display": "Meaghan Neary"
        },
        "effectiveDateTime": "2020-05-11T22:11:04Z",
        "specimen": {
          "reference": "urn:uuid:82556a7e-4630-4267-9787-b130d2f5a357"
        }
      }
    },
    {
      "fullUrl": "urn:uuid:507fb338-035a-41f7-953c-4d77e39d85ea",
      "resource": {
        "resourceType": "Observation",
        "id": "507fb338-035a-41f7-953c-4d77e39d85ea",
        "meta": {
          "profile": [
            "http://hl7.eu/fhir/laboratory/StructureDefinition/Observation-resultslab-eu-lab"
          ]
        },
        "performer": [
          {
            "display": "The Central European Lab"
          }
        ],
        "category": [
          {
            "coding": [
              {
                "system": "http://terminology.hl7.org/CodeSystem/observation-category",
                "code": "laboratory"
              }
            ]
          }
        ],
        "code": {
          "coding": [
            {
              "code": "2951-2",
              "system": "http://loinc.org",
              "display": "Sodium [Moles/volume] in Serum or Plasma"
            }
          ],
          "text": "Sodium [Moles/volume] in Serum or Plasma"
        },
        "valueQuantity": {
          "system": "http://unitsofmeasure.org",
          "value": 138.8,
          "unit": "mmol/L",
          "code": "mmol/L"
        },
        "referenceRange": [
          {
            "low": {
              "value": 135,
              "code": "mmol/L",
              "system": "http://unitsofmeasure.org"
            }
          },
          {
            "high": {
              "value": 145,
              "code": "mmol/L",
              "system": "http://unitsofmeasure.org"
            }
          }
        ],
        "text": {
          "status": "generated",
          "div": "<div xmlns=\"http://www.w3.org/1999/xhtml\"><table class=\"hl7__eu__lab__report\"><tr><th>Test</th><th>12-May-2020</th><th>Reference&#xA0;Range</th><th>Unit</th></tr><tr><td>Sodium [Moles/volume] in Serum or Plasma</td><td>138.8</td><td>135 - 145</td><td></td><td>mmol/L</td></tr></table></div>"
        },
        "status": "final",
        "subject": {
          "reference": "urn:uuid:3be84a27-8220-4f24-9b11-0d9b7b036dbc",
          "display": "Meaghan Neary"
        },
        "effectiveDateTime": "2020-05-11T22:11:04Z",
        "specimen": {
          "reference": "urn:uuid:82556a7e-4630-4267-9787-b130d2f5a357"
        }
      }
    },
    {
      "fullUrl": "urn:uuid:d95292d9-9a0c-418e-a884-458ec4329295",
      "resource": {
        "resourceType": "Observation",
        "id": "d95292d9-9a0c-418e-a884-458ec4329295",
        "meta": {
          "profile": [
            "http://hl7.eu/fhir/laboratory/StructureDefinition/Observation-resultslab-eu-lab"
          ]
        },
        "performer": [
          {
            "display": "The Central European Lab"
          }
        ],
        "category": [
          {
            "coding": [
              {
                "system": "http://terminology.hl7.org/CodeSystem/observation-category",
                "code": "laboratory"
              }
            ]
          }
        ],
        "code": {
          "coding": [
            {
              "code": "2823-3",
              "system": "http://loinc.org",
              "display": "Potassium [Moles/volume] in Serum or Plasma"
            }
          ],
          "text": "Potassium [Moles/volume] in Serum or Plasma"
        },
        "valueQuantity": {
          "system": "http://unitsofmeasure.org",
          "value": 4.1,
          "unit": "mmol/L",
          "code": "mmol/L"
        },
        "referenceRange": [
          {
            "low": {
              "value": 3.5,
              "code": "mmol/L",
              "system": "http://unitsofmeasure.org"
            }
          },
          {
            "high": {
              "value": 5.1,
              "code": "mmol/L",
              "system": "http://unitsofmeasure.org"
            }
          }
        ],
        "text": {
          "status": "generated",
          "div": "<div xmlns=\"http://www.w3.org/1999/xhtml\"><table class=\"hl7__eu__lab__report\"><tr><th>Test</th><th>12-May-2020</th><th>Reference&#xA0;Range</th><th>Unit</th></tr><tr><td>Potassium [Moles/volume] in Serum or Plasma</td><td>4.1</td><td>3.5 - 5.1</td><td></td><td>mmol/L</td></tr></table></div>"
        },
        "status": "final",
        "subject": {
          "reference": "urn:uuid:3be84a27-8220-4f24-9b11-0d9b7b036dbc",
          "display": "Meaghan Neary"
        },
        "effectiveDateTime": "2020-05-11T22:11:04Z",
        "specimen": {
          "reference": "urn:uuid:82556a7e-4630-4267-9787-b130d2f5a357"
        }
      }
    },
    {
      "fullUrl": "urn:uuid:3f125361-81ee-42ce-be5d-d30c37cdc590",
      "resource": {
        "resourceType": "Observation",
        "id": "3f125361-81ee-42ce-be5d-d30c37cdc590",
        "meta": {
          "profile": [
            "http://hl7.eu/fhir/laboratory/StructureDefinition/Observation-resultslab-eu-lab"
          ]
        },
        "performer": [
          {
            "display": "The Central European Lab"
          }
        ],
        "category": [
          {
            "coding": [
              {
                "system": "http://terminology.hl7.org/CodeSystem/observation-category",
                "code": "laboratory"
              }
            ]
          }
        ],
        "code": {
          "coding": [
            {
              "code": "2075-0",
              "system": "http://loinc.org",
              "display": "Chloride [Moles/volume] in Serum or Plasma"
            }
          ],
          "text": "Chloride [Moles/volume] in Serum or Plasma"
        },
        "valueQuantity": {
          "system": "http://unitsofmeasure.org",
          "value": 104,
          "unit": "mmol/L",
          "code": "mmol/L"
        },
        "referenceRange": [
          {
            "low": {
              "value": 98,
              "code": "mmol/L",
              "system": "http://unitsofmeasure.org"
            }
          },
          {
            "high": {
              "value": 108,
              "code": "mmol/L",
              "system": "http://unitsofmeasure.org"
            }
          }
        ],
        "text": {
          "status": "generated",
          "div": "<div xmlns=\"http://www.w3.org/1999/xhtml\"><table class=\"hl7__eu__lab__report\"><tr><th>Test</th><th>12-May-2020</th><th>Reference&#xA0;Range</th><th>Unit</th></tr><tr><td>Chloride [Moles/volume] in Serum or Plasma</td><td>104.0</td><td>98 - 108</td><td></td><td>mmol/L</td></tr></table></div>"
        },
        "status": "final",
        "subject": {
          "reference": "urn:uuid:3be84a27-8220-4f24-9b11-0d9b7b036dbc",
          "display": "Meaghan Neary"
        },
        "effectiveDateTime": "2020-05-11T22:11:04Z",
        "specimen": {
          "reference": "urn:uuid:82556a7e-4630-4267-9787-b130d2f5a357"
        }
      }
    },
    {
      "fullUrl": "urn:uuid:b2a5ecaa-ea11-4a14-a103-abdef0ff50ab",
      "resource": {
        "resourceType": "Observation",
        "id": "b2a5ecaa-ea11-4a14-a103-abdef0ff50ab",
        "meta": {
          "profile": [
            "http://hl7.eu/fhir/laboratory/StructureDefinition/Observation-resultslab-eu-lab"
          ]
        },
        "performer": [
          {
            "display": "The Central European Lab"
          }
        ],
        "category": [
          {
            "coding": [
              {
                "system": "http://terminology.hl7.org/CodeSystem/observation-category",
                "code": "laboratory"
              }
            ]
          }
        ],
        "code": {
          "coding": [
            {
              "code": "2028-9",
              "system": "http://loinc.org",
              "display": "Carbon dioxide, total [Moles/volume] in Serum or Plasma"
            }
          ],
          "text": "Carbon dioxide, total [Moles/volume] in Serum or Plasma"
        },
        "valueQuantity": {
          "system": "http://unitsofmeasure.org",
          "value": 28,
          "unit": "mmol/L",
          "code": "mmol/L"
        },
        "referenceRange": [
          {
            "low": {
              "value": 22,
              "code": "mmol/L",
              "system": "http://unitsofmeasure.org"
            }
          },
          {
            "high": {
              "value": 32,
              "code": "mmol/L",
              "system": "http://unitsofmeasure.org"
            }
          }
        ],
        "text": {
          "status": "generated",
          "div": "<div xmlns=\"http://www.w3.org/1999/xhtml\"><table class=\"hl7__eu__lab__report\"><tr><th>Test</th><th>12-May-2020</th><th>Reference&#xA0;Range</th><th>Unit</th></tr><tr><td>Carbon dioxide, total [Moles/volume] in Serum or Plasma</td><td>28.0</td><td>22 - 32</td><td></td><td>mmol/L</td></tr></table></div>"
        },
        "status": "final",
        "subject": {
          "reference": "urn:uuid:3be84a27-8220-4f24-9b11-0d9b7b036dbc",
          "display": "Meaghan Neary"
        },
        "effectiveDateTime": "2020-05-11T22:11:04Z",
        "specimen": {
          "reference": "urn:uuid:82556a7e-4630-4267-9787-b130d2f5a357"
        }
      }
    },
    {
      "fullUrl": "urn:uuid:6a99aff7-0690-40a3-9254-64c07ee9ee55",
      "resource": {
        "resourceType": "Observation",
        "id": "6a99aff7-0690-40a3-9254-64c07ee9ee55",
        "meta": {
          "profile": [
            "http://hl7.eu/fhir/laboratory/StructureDefinition/Observation-resultslab-eu-lab"
          ]
        },
        "performer": [
          {
            "display": "The Central European Lab"
          }
        ],
        "category": [
          {
            "coding": [
              {
                "system": "http://terminology.hl7.org/CodeSystem/observation-category",
                "code": "laboratory"
              }
            ]
          }
        ],
        "code": {
          "coding": [
            {
              "code": "5767-9",
              "system": "http://loinc.org",
              "display": "Appearance of Urine"
            }
          ],
          "text": "Appearance of Urine"
        },
        "text": {
          "status": "generated",
          "div": "<div xmlns=\"http://www.w3.org/1999/xhtml\"><table class=\"hl7__eu__lab__report\"><tr><th>Test</th><th>12-May-2020</th><th>Reference&#xA0;Range</th><th>Unit</th></tr><tr><td>Appearance of Urine</td></tr></table></div>"
        },
        "status": "final",
        "subject": {
          "reference": "urn:uuid:3be84a27-8220-4f24-9b11-0d9b7b036dbc",
          "display": "Meaghan Neary"
        },
        "effectiveDateTime": "2020-05-11T22:11:04Z",
        "specimen": {
          "reference": "urn:uuid:7920e016-256e-49c0-ac29-0ecc71f5a979"
        }
      }
    },
    {
      "fullUrl": "urn:uuid:ab5d35ff-f647-4166-928e-a038e9c30b1d",
      "resource": {
        "resourceType": "Observation",
        "id": "ab5d35ff-f647-4166-928e-a038e9c30b1d",
        "meta": {
          "profile": [
            "http://hl7.eu/fhir/laboratory/StructureDefinition/Observation-resultslab-eu-lab"
          ]
        },
        "performer": [
          {
            "display": "The Central European Lab"
          }
        ],
        "category": [
          {
            "coding": [
              {
                "system": "http://terminology.hl7.org/CodeSystem/observation-category",
                "code": "laboratory"
              }
            ]
          }
        ],
        "code": {
          "coding": [
            {
              "code": "34533-0",
              "system": "http://loinc.org",
              "display": "Odor of Urine"
            }
          ],
          "text": "Odor of Urine"
        },
        "text": {
          "status": "generated",
          "div": "<div xmlns=\"http://www.w3.org/1999/xhtml\"><table class=\"hl7__eu__lab__report\"><tr><th>Test</th><th>12-May-2020</th><th>Reference&#xA0;Range</th><th>Unit</th></tr><tr><td>Odor of Urine</td></tr></table></div>"
        },
        "status": "final",
        "subject": {
          "reference": "urn:uuid:3be84a27-8220-4f24-9b11-0d9b7b036dbc",
          "display": "Meaghan Neary"
        },
        "effectiveDateTime": "2020-05-11T22:11:04Z",
        "specimen": {
          "reference": "urn:uuid:7920e016-256e-49c0-ac29-0ecc71f5a979"
        }
      }
    },
    {
      "fullUrl": "urn:uuid:cbf5ead2-d2b7-4104-bbe4-0e84629a4881",
      "resource": {
        "resourceType": "Observation",
        "id": "cbf5ead2-d2b7-4104-bbe4-0e84629a4881",
        "meta": {
          "profile": [
            "http://hl7.eu/fhir/laboratory/StructureDefinition/Observation-resultslab-eu-lab"
          ]
        },
        "performer": [
          {
            "display": "The Central European Lab"
          }
        ],
        "category": [
          {
            "coding": [
              {
                "system": "http://terminology.hl7.org/CodeSystem/observation-category",
                "code": "laboratory"
              }
            ]
          }
        ],
        "code": {
          "coding": [
            {
              "code": "32167-9",
              "system": "http://loinc.org",
              "display": "Clarity of Urine"
            }
          ],
          "text": "Clarity of Urine"
        },
        "text": {
          "status": "generated",
          "div": "<div xmlns=\"http://www.w3.org/1999/xhtml\"><table class=\"hl7__eu__lab__report\"><tr><th>Test</th><th>12-May-2020</th><th>Reference&#xA0;Range</th><th>Unit</th></tr><tr><td>Clarity of Urine</td></tr></table></div>"
        },
        "status": "final",
        "subject": {
          "reference": "urn:uuid:3be84a27-8220-4f24-9b11-0d9b7b036dbc",
          "display": "Meaghan Neary"
        },
        "effectiveDateTime": "2020-05-11T22:11:04Z",
        "specimen": {
          "reference": "urn:uuid:7920e016-256e-49c0-ac29-0ecc71f5a979"
        }
      }
    },
    {
      "fullUrl": "urn:uuid:0b8d7375-97e3-4adb-bb3a-e29e4182122a",
      "resource": {
        "resourceType": "Observation",
        "id": "0b8d7375-97e3-4adb-bb3a-e29e4182122a",
        "meta": {
          "profile": [
            "http://hl7.eu/fhir/laboratory/StructureDefinition/Observation-resultslab-eu-lab"
          ]
        },
        "performer": [
          {
            "display": "The Central European Lab"
          }
        ],
        "category": [
          {
            "coding": [
              {
                "system": "http://terminology.hl7.org/CodeSystem/observation-category",
                "code": "laboratory"
              }
            ]
          }
        ],
        "code": {
          "coding": [
            {
              "code": "5778-6",
              "system": "http://loinc.org",
              "display": "Color of Urine"
            }
          ],
          "text": "Color of Urine"
        },
        "text": {
          "status": "generated",
          "div": "<div xmlns=\"http://www.w3.org/1999/xhtml\"><table class=\"hl7__eu__lab__report\"><tr><th>Test</th><th>12-May-2020</th><th>Reference&#xA0;Range</th><th>Unit</th></tr><tr><td>Color of Urine</td></tr></table></div>"
        },
        "status": "final",
        "subject": {
          "reference": "urn:uuid:3be84a27-8220-4f24-9b11-0d9b7b036dbc",
          "display": "Meaghan Neary"
        },
        "effectiveDateTime": "2020-05-11T22:11:04Z",
        "specimen": {
          "reference": "urn:uuid:7920e016-256e-49c0-ac29-0ecc71f5a979"
        }
      }
    },
    {
      "fullUrl": "urn:uuid:aa3b0ebd-561c-428c-af2e-25177e63f8bb",
      "resource": {
        "resourceType": "Observation",
        "id": "aa3b0ebd-561c-428c-af2e-25177e63f8bb",
        "meta": {
          "profile": [
            "http://hl7.eu/fhir/laboratory/StructureDefinition/Observation-resultslab-eu-lab"
          ]
        },
        "performer": [
          {
            "display": "The Central European Lab"
          }
        ],
        "category": [
          {
            "coding": [
              {
                "system": "http://terminology.hl7.org/CodeSystem/observation-category",
                "code": "laboratory"
              }
            ]
          }
        ],
        "code": {
          "coding": [
            {
              "code": "5792-7",
              "system": "http://loinc.org",
              "display": "Glucose [Mass/volume] in Urine by Test strip"
            }
          ],
          "text": "Glucose [Mass/volume] in Urine by Test strip"
        },
        "valueQuantity": {
          "system": "http://unitsofmeasure.org",
          "value": 1.7,
          "unit": "mg/dL",
          "code": "mg/dL"
        },
        "referenceRange": [
          {
            "low": {
              "value": 0.8,
              "code": "mg/dL",
              "system": "http://unitsofmeasure.org"
            }
          },
          {
            "high": {
              "value": 0,
              "code": "mg/dL",
              "system": "http://unitsofmeasure.org"
            }
          }
        ],
        "interpretation": [
          {
            "coding": [
              {
                "code": "H",
                "system": "http://terminology.hl7.org/CodeSystem/v3-ObservationInterpretation",
                "display": "High"
              }
            ]
          }
        ],
        "text": {
          "status": "generated",
          "div": "<div xmlns=\"http://www.w3.org/1999/xhtml\"><table class=\"hl7__eu__lab__report\"><tr><th>Test</th><th>12-May-2020</th><th>Reference&#xA0;Range</th><th>Unit</th></tr><tr><td>Glucose [Mass/volume] in Urine by Test strip</td><td>1.7</td><td>0.8 - 0</td><td>H</td><td>mg/dL</td></tr></table></div>"
        },
        "status": "final",
        "subject": {
          "reference": "urn:uuid:3be84a27-8220-4f24-9b11-0d9b7b036dbc",
          "display": "Meaghan Neary"
        },
        "effectiveDateTime": "2020-05-11T22:11:04Z",
        "specimen": {
          "reference": "urn:uuid:7920e016-256e-49c0-ac29-0ecc71f5a979"
        }
      }
    },
    {
      "fullUrl": "urn:uuid:b7758c32-8276-4916-9942-99573d0a8e5d",
      "resource": {
        "resourceType": "Observation",
        "id": "b7758c32-8276-4916-9942-99573d0a8e5d",
        "meta": {
          "profile": [
            "http://hl7.eu/fhir/laboratory/StructureDefinition/Observation-resultslab-eu-lab"
          ]
        },
        "performer": [
          {
            "display": "The Central European Lab"
          }
        ],
        "category": [
          {
            "coding": [
              {
                "system": "http://terminology.hl7.org/CodeSystem/observation-category",
                "code": "laboratory"
              }
            ]
          }
        ],
        "code": {
          "coding": [
            {
              "code": "25428-4",
              "system": "http://loinc.org",
              "display": "Glucose [Presence] in Urine by Test strip"
            }
          ],
          "text": "Glucose [Presence] in Urine by Test strip"
        },
        "text": {
          "status": "generated",
          "div": "<div xmlns=\"http://www.w3.org/1999/xhtml\"><table class=\"hl7__eu__lab__report\"><tr><th>Test</th><th>12-May-2020</th><th>Reference&#xA0;Range</th><th>Unit</th></tr><tr><td>Glucose [Presence] in Urine by Test strip</td></tr></table></div>"
        },
        "status": "final",
        "subject": {
          "reference": "urn:uuid:3be84a27-8220-4f24-9b11-0d9b7b036dbc",
          "display": "Meaghan Neary"
        },
        "effectiveDateTime": "2020-05-11T22:11:04Z",
        "specimen": {
          "reference": "urn:uuid:7920e016-256e-49c0-ac29-0ecc71f5a979"
        }
      }
    },
    {
      "fullUrl": "urn:uuid:bc34c314-19be-4d72-8fa2-2838db544e23",
      "resource": {
        "resourceType": "Observation",
        "id": "bc34c314-19be-4d72-8fa2-2838db544e23",
        "meta": {
          "profile": [
            "http://hl7.eu/fhir/laboratory/StructureDefinition/Observation-resultslab-eu-lab"
          ]
        },
        "performer": [
          {
            "display": "The Central European Lab"
          }
        ],
        "category": [
          {
            "coding": [
              {
                "system": "http://terminology.hl7.org/CodeSystem/observation-category",
                "code": "laboratory"
              }
            ]
          }
        ],
        "code": {
          "coding": [
            {
              "code": "20505-4",
              "system": "http://loinc.org",
              "display": "Bilirubin.total [Mass/volume] in Urine by Test strip"
            }
          ],
          "text": "Bilirubin.total [Mass/volume] in Urine by Test strip"
        },
        "valueQuantity": {
          "system": "http://unitsofmeasure.org",
          "value": 0.8,
          "unit": "mg/dL",
          "code": "mg/dL"
        },
        "referenceRange": [
          {
            "low": {
              "value": 0,
              "code": "mg/dL",
              "system": "http://unitsofmeasure.org"
            }
          },
          {
            "high": {
              "value": 1,
              "code": "mg/dL",
              "system": "http://unitsofmeasure.org"
            }
          }
        ],
        "text": {
          "status": "generated",
          "div": "<div xmlns=\"http://www.w3.org/1999/xhtml\"><table class=\"hl7__eu__lab__report\"><tr><th>Test</th><th>12-May-2020</th><th>Reference&#xA0;Range</th><th>Unit</th></tr><tr><td>Bilirubin.total [Mass/volume] in Urine by Test strip</td><td>0.8</td><td>0 - 1</td><td></td><td>mg/dL</td></tr></table></div>"
        },
        "status": "final",
        "subject": {
          "reference": "urn:uuid:3be84a27-8220-4f24-9b11-0d9b7b036dbc",
          "display": "Meaghan Neary"
        },
        "effectiveDateTime": "2020-05-11T22:11:04Z",
        "specimen": {
          "reference": "urn:uuid:7920e016-256e-49c0-ac29-0ecc71f5a979"
        }
      }
    },
    {
      "fullUrl": "urn:uuid:39f8d3b5-189c-447e-a39f-0b55279ac1cb",
      "resource": {
        "resourceType": "Observation",
        "id": "39f8d3b5-189c-447e-a39f-0b55279ac1cb",
        "meta": {
          "profile": [
            "http://hl7.eu/fhir/laboratory/StructureDefinition/Observation-resultslab-eu-lab"
          ]
        },
        "performer": [
          {
            "display": "The Central European Lab"
          }
        ],
        "category": [
          {
            "coding": [
              {
                "system": "http://terminology.hl7.org/CodeSystem/observation-category",
                "code": "laboratory"
              }
            ]
          }
        ],
        "code": {
          "coding": [
            {
              "code": "5770-3",
              "system": "http://loinc.org",
              "display": "Bilirubin.total [Presence] in Urine by Test strip"
            }
          ],
          "text": "Bilirubin.total [Presence] in Urine by Test strip"
        },
        "text": {
          "status": "generated",
          "div": "<div xmlns=\"http://www.w3.org/1999/xhtml\"><table class=\"hl7__eu__lab__report\"><tr><th>Test</th><th>12-May-2020</th><th>Reference&#xA0;Range</th><th>Unit</th></tr><tr><td>Bilirubin.total [Presence] in Urine by Test strip</td></tr></table></div>"
        },
        "status": "final",
        "subject": {
          "reference": "urn:uuid:3be84a27-8220-4f24-9b11-0d9b7b036dbc",
          "display": "Meaghan Neary"
        },
        "effectiveDateTime": "2020-05-11T22:11:04Z",
        "specimen": {
          "reference": "urn:uuid:7920e016-256e-49c0-ac29-0ecc71f5a979"
        }
      }
    },
    {
      "fullUrl": "urn:uuid:6d0d127e-d779-4d30-b437-681f7c038aba",
      "resource": {
        "resourceType": "Observation",
        "id": "6d0d127e-d779-4d30-b437-681f7c038aba",
        "meta": {
          "profile": [
            "http://hl7.eu/fhir/laboratory/StructureDefinition/Observation-resultslab-eu-lab"
          ]
        },
        "performer": [
          {
            "display": "The Central European Lab"
          }
        ],
        "category": [
          {
            "coding": [
              {
                "system": "http://terminology.hl7.org/CodeSystem/observation-category",
                "code": "laboratory"
              }
            ]
          }
        ],
        "code": {
          "coding": [
            {
              "code": "5797-6",
              "system": "http://loinc.org",
              "display": "Ketones [Mass/volume] in Urine by Test strip"
            }
          ],
          "text": "Ketones [Mass/volume] in Urine by Test strip"
        },
        "valueQuantity": {
          "system": "http://unitsofmeasure.org",
          "value": 0.3,
          "unit": "mg/dL",
          "code": "mg/dL"
        },
        "referenceRange": [
          {
            "low": {
              "value": 0,
              "code": "mg/dL",
              "system": "http://unitsofmeasure.org"
            }
          },
          {
            "high": {
              "value": 4,
              "code": "mg/dL",
              "system": "http://unitsofmeasure.org"
            }
          }
        ],
        "text": {
          "status": "generated",
          "div": "<div xmlns=\"http://www.w3.org/1999/xhtml\"><table class=\"hl7__eu__lab__report\"><tr><th>Test</th><th>12-May-2020</th><th>Reference&#xA0;Range</th><th>Unit</th></tr><tr><td>Ketones [Mass/volume] in Urine by Test strip</td><td>0.3</td><td>0 - 4</td><td></td><td>mg/dL</td></tr></table></div>"
        },
        "status": "final",
        "subject": {
          "reference": "urn:uuid:3be84a27-8220-4f24-9b11-0d9b7b036dbc",
          "display": "Meaghan Neary"
        },
        "effectiveDateTime": "2020-05-11T22:11:04Z",
        "specimen": {
          "reference": "urn:uuid:7920e016-256e-49c0-ac29-0ecc71f5a979"
        }
      }
    },
    {
      "fullUrl": "urn:uuid:03b0a652-9f1f-40a1-8671-74959b646a05",
      "resource": {
        "resourceType": "Observation",
        "id": "03b0a652-9f1f-40a1-8671-74959b646a05",
        "meta": {
          "profile": [
            "http://hl7.eu/fhir/laboratory/StructureDefinition/Observation-resultslab-eu-lab"
          ]
        },
        "performer": [
          {
            "display": "The Central European Lab"
          }
        ],
        "category": [
          {
            "coding": [
              {
                "system": "http://terminology.hl7.org/CodeSystem/observation-category",
                "code": "laboratory"
              }
            ]
          }
        ],
        "code": {
          "coding": [
            {
              "code": "2514-8",
              "system": "http://loinc.org",
              "display": "Ketones [Presence] in Urine by Test strip"
            }
          ],
          "text": "Ketones [Presence] in Urine by Test strip"
        },
        "text": {
          "status": "generated",
          "div": "<div xmlns=\"http://www.w3.org/1999/xhtml\"><table class=\"hl7__eu__lab__report\"><tr><th>Test</th><th>12-May-2020</th><th>Reference&#xA0;Range</th><th>Unit</th></tr><tr><td>Ketones [Presence] in Urine by Test strip</td></tr></table></div>"
        },
        "status": "final",
        "subject": {
          "reference": "urn:uuid:3be84a27-8220-4f24-9b11-0d9b7b036dbc",
          "display": "Meaghan Neary"
        },
        "effectiveDateTime": "2020-05-11T22:11:04Z",
        "specimen": {
          "reference": "urn:uuid:7920e016-256e-49c0-ac29-0ecc71f5a979"
        }
      }
    },
    {
      "fullUrl": "urn:uuid:99350830-e67e-4b61-bbf9-7d75161b9141",
      "resource": {
        "resourceType": "Observation",
        "id": "99350830-e67e-4b61-bbf9-7d75161b9141",
        "meta": {
          "profile": [
            "http://hl7.eu/fhir/laboratory/StructureDefinition/Observation-resultslab-eu-lab"
          ]
        },
        "performer": [
          {
            "display": "The Central European Lab"
          }
        ],
        "category": [
          {
            "coding": [
              {
                "system": "http://terminology.hl7.org/CodeSystem/observation-category",
                "code": "laboratory"
              }
            ]
          }
        ],
        "code": {
          "coding": [
            {
              "code": "5811-5",
              "system": "http://loinc.org",
              "display": "Specific gravity of Urine by Test strip"
            }
          ],
          "text": "Specific gravity of Urine by Test strip"
        },
        "valueQuantity": {
          "system": "http://unitsofmeasure.org",
          "value": 1,
          "unit": "{nominal}",
          "code": "{nominal}"
        },
        "referenceRange": [
          {
            "low": {
              "value": 1.005,
              "code": "g/mL",
              "system": "http://unitsofmeasure.org"
            }
          },
          {
            "high": {
              "value": 1.03,
              "code": "g/mL",
              "system": "http://unitsofmeasure.org"
            }
          }
        ],
        "interpretation": [
          {
            "coding": [
              {
                "code": "L",
                "system": "http://terminology.hl7.org/CodeSystem/v3-ObservationInterpretation",
                "display": "Low"
              }
            ]
          }
        ],
        "text": {
          "status": "generated",
          "div": "<div xmlns=\"http://www.w3.org/1999/xhtml\"><table class=\"hl7__eu__lab__report\"><tr><th>Test</th><th>12-May-2020</th><th>Reference&#xA0;Range</th><th>Unit</th></tr><tr><td>Specific gravity of Urine by Test strip</td><td>1.0</td><td>1.005 - 1.03</td><td>L</td><td>{nominal}</td></tr></table></div>"
        },
        "status": "final",
        "subject": {
          "reference": "urn:uuid:3be84a27-8220-4f24-9b11-0d9b7b036dbc",
          "display": "Meaghan Neary"
        },
        "effectiveDateTime": "2020-05-11T22:11:04Z",
        "specimen": {
          "reference": "urn:uuid:7920e016-256e-49c0-ac29-0ecc71f5a979"
        }
      }
    },
    {
      "fullUrl": "urn:uuid:7aa515c4-b411-4937-82bc-e8b368f22adf",
      "resource": {
        "resourceType": "Observation",
        "id": "7aa515c4-b411-4937-82bc-e8b368f22adf",
        "meta": {
          "profile": [
            "http://hl7.eu/fhir/laboratory/StructureDefinition/Observation-resultslab-eu-lab"
          ]
        },
        "performer": [
          {
            "display": "The Central European Lab"
          }
        ],
        "category": [
          {
            "coding": [
              {
                "system": "http://terminology.hl7.org/CodeSystem/observation-category",
                "code": "laboratory"
              }
            ]
          }
        ],
        "code": {
          "coding": [
            {
              "code": "5803-2",
              "system": "http://loinc.org",
              "display": "pH of Urine by Test strip"
            }
          ],
          "text": "pH of Urine by Test strip"
        },
        "valueQuantity": {
          "system": "http://unitsofmeasure.org",
          "value": 6.8,
          "unit": "pH",
          "code": "pH"
        },
        "referenceRange": [
          {
            "low": {
              "value": 4.6,
              "code": "pH",
              "system": "http://unitsofmeasure.org"
            }
          },
          {
            "high": {
              "value": 7,
              "code": "pH",
              "system": "http://unitsofmeasure.org"
            }
          }
        ],
        "text": {
          "status": "generated",
          "div": "<div xmlns=\"http://www.w3.org/1999/xhtml\"><table class=\"hl7__eu__lab__report\"><tr><th>Test</th><th>12-May-2020</th><th>Reference&#xA0;Range</th><th>Unit</th></tr><tr><td>pH of Urine by Test strip</td><td>6.8</td><td>4.6 - 7</td><td></td><td>pH</td></tr></table></div>"
        },
        "status": "final",
        "subject": {
          "reference": "urn:uuid:3be84a27-8220-4f24-9b11-0d9b7b036dbc",
          "display": "Meaghan Neary"
        },
        "effectiveDateTime": "2020-05-11T22:11:04Z",
        "specimen": {
          "reference": "urn:uuid:7920e016-256e-49c0-ac29-0ecc71f5a979"
        }
      }
    },
    {
      "fullUrl": "urn:uuid:43d87009-579b-4e99-96fd-ccb68d90bb35",
      "resource": {
        "resourceType": "Observation",
        "id": "43d87009-579b-4e99-96fd-ccb68d90bb35",
        "meta": {
          "profile": [
            "http://hl7.eu/fhir/laboratory/StructureDefinition/Observation-resultslab-eu-lab"
          ]
        },
        "performer": [
          {
            "display": "The Central European Lab"
          }
        ],
        "category": [
          {
            "coding": [
              {
                "system": "http://terminology.hl7.org/CodeSystem/observation-category",
                "code": "laboratory"
              }
            ]
          }
        ],
        "code": {
          "coding": [
            {
              "code": "5804-0",
              "system": "http://loinc.org",
              "display": "Protein [Mass/volume] in Urine by Test strip"
            }
          ],
          "text": "Protein [Mass/volume] in Urine by Test strip"
        },
        "valueQuantity": {
          "system": "http://unitsofmeasure.org",
          "value": 235.9,
          "unit": "mg/dL",
          "code": "mg/dL"
        },
        "referenceRange": [
          {
            "low": {
              "value": 0,
              "code": "mg/dL",
              "system": "http://unitsofmeasure.org"
            }
          },
          {
            "high": {
              "value": 14,
              "code": "mg/dL",
              "system": "http://unitsofmeasure.org"
            }
          }
        ],
        "interpretation": [
          {
            "coding": [
              {
                "code": "H",
                "system": "http://terminology.hl7.org/CodeSystem/v3-ObservationInterpretation",
                "display": "High"
              }
            ]
          }
        ],
        "text": {
          "status": "generated",
          "div": "<div xmlns=\"http://www.w3.org/1999/xhtml\"><table class=\"hl7__eu__lab__report\"><tr><th>Test</th><th>12-May-2020</th><th>Reference&#xA0;Range</th><th>Unit</th></tr><tr><td>Protein [Mass/volume] in Urine by Test strip</td><td>235.9</td><td>0 - 14</td><td>H</td><td>mg/dL</td></tr></table></div>"
        },
        "status": "final",
        "subject": {
          "reference": "urn:uuid:3be84a27-8220-4f24-9b11-0d9b7b036dbc",
          "display": "Meaghan Neary"
        },
        "effectiveDateTime": "2020-05-11T22:11:04Z",
        "specimen": {
          "reference": "urn:uuid:7920e016-256e-49c0-ac29-0ecc71f5a979"
        }
      }
    },
    {
      "fullUrl": "urn:uuid:54b1285b-8f39-4b4e-8545-40dad0e447cc",
      "resource": {
        "resourceType": "Observation",
        "id": "54b1285b-8f39-4b4e-8545-40dad0e447cc",
        "meta": {
          "profile": [
            "http://hl7.eu/fhir/laboratory/StructureDefinition/Observation-resultslab-eu-lab"
          ]
        },
        "performer": [
          {
            "display": "The Central European Lab"
          }
        ],
        "category": [
          {
            "coding": [
              {
                "system": "http://terminology.hl7.org/CodeSystem/observation-category",
                "code": "laboratory"
              }
            ]
          }
        ],
        "code": {
          "coding": [
            {
              "code": "20454-5",
              "system": "http://loinc.org",
              "display": "Protein [Presence] in Urine by Test strip"
            }
          ],
          "text": "Protein [Presence] in Urine by Test strip"
        },
        "text": {
          "status": "generated",
          "div": "<div xmlns=\"http://www.w3.org/1999/xhtml\"><table class=\"hl7__eu__lab__report\"><tr><th>Test</th><th>12-May-2020</th><th>Reference&#xA0;Range</th><th>Unit</th></tr><tr><td>Protein [Presence] in Urine by Test strip</td></tr></table></div>"
        },
        "status": "final",
        "subject": {
          "reference": "urn:uuid:3be84a27-8220-4f24-9b11-0d9b7b036dbc",
          "display": "Meaghan Neary"
        },
        "effectiveDateTime": "2020-05-11T22:11:04Z",
        "specimen": {
          "reference": "urn:uuid:7920e016-256e-49c0-ac29-0ecc71f5a979"
        }
      }
    },
    {
      "fullUrl": "urn:uuid:9329c8ad-1332-4041-866e-d8fcbf0be736",
      "resource": {
        "resourceType": "Observation",
        "id": "9329c8ad-1332-4041-866e-d8fcbf0be736",
        "meta": {
          "profile": [
            "http://hl7.eu/fhir/laboratory/StructureDefinition/Observation-resultslab-eu-lab"
          ]
        },
        "performer": [
          {
            "display": "The Central European Lab"
          }
        ],
        "category": [
          {
            "coding": [
              {
                "system": "http://terminology.hl7.org/CodeSystem/observation-category",
                "code": "laboratory"
              }
            ]
          }
        ],
        "code": {
          "coding": [
            {
              "code": "5802-4",
              "system": "http://loinc.org",
              "display": "Nitrite [Presence] in Urine by Test strip"
            }
          ],
          "text": "Nitrite [Presence] in Urine by Test strip"
        },
        "text": {
          "status": "generated",
          "div": "<div xmlns=\"http://www.w3.org/1999/xhtml\"><table class=\"hl7__eu__lab__report\"><tr><th>Test</th><th>12-May-2020</th><th>Reference&#xA0;Range</th><th>Unit</th></tr><tr><td>Nitrite [Presence] in Urine by Test strip</td></tr></table></div>"
        },
        "status": "final",
        "subject": {
          "reference": "urn:uuid:3be84a27-8220-4f24-9b11-0d9b7b036dbc",
          "display": "Meaghan Neary"
        },
        "effectiveDateTime": "2020-05-11T22:11:04Z",
        "specimen": {
          "reference": "urn:uuid:7920e016-256e-49c0-ac29-0ecc71f5a979"
        }
      }
    },
    {
      "fullUrl": "urn:uuid:977564a5-10fa-417a-a9d1-0e70d14b374e",
      "resource": {
        "resourceType": "Observation",
        "id": "977564a5-10fa-417a-a9d1-0e70d14b374e",
        "meta": {
          "profile": [
            "http://hl7.eu/fhir/laboratory/StructureDefinition/Observation-resultslab-eu-lab"
          ]
        },
        "performer": [
          {
            "display": "The Central European Lab"
          }
        ],
        "category": [
          {
            "coding": [
              {
                "system": "http://terminology.hl7.org/CodeSystem/observation-category",
                "code": "laboratory"
              }
            ]
          }
        ],
        "code": {
          "coding": [
            {
              "code": "5794-3",
              "system": "http://loinc.org",
              "display": "Hemoglobin [Presence] in Urine by Test strip"
            }
          ],
          "text": "Hemoglobin [Presence] in Urine by Test strip"
        },
        "text": {
          "status": "generated",
          "div": "<div xmlns=\"http://www.w3.org/1999/xhtml\"><table class=\"hl7__eu__lab__report\"><tr><th>Test</th><th>12-May-2020</th><th>Reference&#xA0;Range</th><th>Unit</th></tr><tr><td>Hemoglobin [Presence] in Urine by Test strip</td></tr></table></div>"
        },
        "status": "final",
        "subject": {
          "reference": "urn:uuid:3be84a27-8220-4f24-9b11-0d9b7b036dbc",
          "display": "Meaghan Neary"
        },
        "effectiveDateTime": "2020-05-11T22:11:04Z",
        "specimen": {
          "reference": "urn:uuid:7920e016-256e-49c0-ac29-0ecc71f5a979"
        }
      }
    },
    {
      "fullUrl": "urn:uuid:2f31fc14-8224-437d-a4a5-ff258fad0624",
      "resource": {
        "resourceType": "Observation",
        "id": "2f31fc14-8224-437d-a4a5-ff258fad0624",
        "meta": {
          "profile": [
            "http://hl7.eu/fhir/laboratory/StructureDefinition/Observation-resultslab-eu-lab"
          ]
        },
        "performer": [
          {
            "display": "The Central European Lab"
          }
        ],
        "category": [
          {
            "coding": [
              {
                "system": "http://terminology.hl7.org/CodeSystem/observation-category",
                "code": "laboratory"
              }
            ]
          }
        ],
        "code": {
          "coding": [
            {
              "code": "5799-2",
              "system": "http://loinc.org",
              "display": "Leukocyte esterase [Presence] in Urine by Test strip"
            }
          ],
          "text": "Leukocyte esterase [Presence] in Urine by Test strip"
        },
        "text": {
          "status": "generated",
          "div": "<div xmlns=\"http://www.w3.org/1999/xhtml\"><table class=\"hl7__eu__lab__report\"><tr><th>Test</th><th>12-May-2020</th><th>Reference&#xA0;Range</th><th>Unit</th></tr><tr><td>Leukocyte esterase [Presence] in Urine by Test strip</td></tr></table></div>"
        },
        "status": "final",
        "subject": {
          "reference": "urn:uuid:3be84a27-8220-4f24-9b11-0d9b7b036dbc",
          "display": "Meaghan Neary"
        },
        "effectiveDateTime": "2020-05-11T22:11:04Z",
        "specimen": {
          "reference": "urn:uuid:7920e016-256e-49c0-ac29-0ecc71f5a979"
        }
      }
    },
    {
      "fullUrl": "urn:uuid:8e07aec1-95ff-424a-8ea8-7a2b5c0e88c5",
      "resource": {
        "resourceType": "Observation",
        "id": "8e07aec1-95ff-424a-8ea8-7a2b5c0e88c5",
        "meta": {
          "profile": [
            "http://hl7.eu/fhir/laboratory/StructureDefinition/Observation-resultslab-eu-lab"
          ]
        },
        "performer": [
          {
            "display": "The Central European Lab"
          }
        ],
        "category": [
          {
            "coding": [
              {
                "system": "http://terminology.hl7.org/CodeSystem/observation-category",
                "code": "laboratory"
              }
            ]
          }
        ],
        "code": {
          "coding": [
            {
              "code": "4548-4",
              "system": "http://loinc.org",
              "display": "Hemoglobin A1c/Hemoglobin.total in Blood"
            }
          ],
          "text": "Hemoglobin A1c/Hemoglobin.total in Blood"
        },
        "valueQuantity": {
          "system": "http://unitsofmeasure.org",
          "value": 2.9,
          "unit": "%",
          "code": "%"
        },
        "referenceRange": [
          {
            "low": {
              "value": 4,
              "code": "%",
              "system": "http://unitsofmeasure.org"
            }
          },
          {
            "high": {
              "value": 6.4,
              "code": "%",
              "system": "http://unitsofmeasure.org"
            }
          }
        ],
        "interpretation": [
          {
            "coding": [
              {
                "code": "L",
                "system": "http://terminology.hl7.org/CodeSystem/v3-ObservationInterpretation",
                "display": "Low"
              }
            ]
          }
        ],
        "text": {
          "status": "generated",
          "div": "<div xmlns=\"http://www.w3.org/1999/xhtml\"><table class=\"hl7__eu__lab__report\"><tr><th>Test</th><th>12-May-2020</th><th>Reference&#xA0;Range</th><th>Unit</th></tr><tr><td>Hemoglobin A1c/Hemoglobin.total in Blood</td><td>2.9</td><td>4 - 6.4</td><td>L</td><td>%</td></tr></table></div>"
        },
        "status": "final",
        "subject": {
          "reference": "urn:uuid:3be84a27-8220-4f24-9b11-0d9b7b036dbc",
          "display": "Meaghan Neary"
        },
        "effectiveDateTime": "2020-05-11T22:11:04Z",
        "specimen": {
          "reference": "urn:uuid:b8352059-867b-4f02-a4c7-6ecdfe3a8b49"
        }
      }
    },
    {
      "fullUrl": "urn:uuid:27042854-59fc-4fc2-9502-4fab319aca33",
      "resource": {
        "resourceType": "Observation",
        "id": "27042854-59fc-4fc2-9502-4fab319aca33",
        "meta": {
          "profile": [
            "http://hl7.eu/fhir/laboratory/StructureDefinition/Observation-resultslab-eu-lab"
          ]
        },
        "performer": [
          {
            "display": "The Central European Lab"
          }
        ],
        "category": [
          {
            "coding": [
              {
                "system": "http://terminology.hl7.org/CodeSystem/observation-category",
                "code": "laboratory"
              }
            ]
          }
        ],
        "code": {
          "coding": [
            {
              "code": "2339-0",
              "system": "http://loinc.org",
              "display": "Glucose [Mass/volume] in Blood"
            }
          ],
          "text": "Glucose [Mass/volume] in Blood"
        },
        "valueQuantity": {
          "system": "http://unitsofmeasure.org",
          "value": 80.5,
          "unit": "mg/dL",
          "code": "mg/dL"
        },
        "referenceRange": [
          {
            "low": {
              "value": 70,
              "code": "mg/dL",
              "system": "http://unitsofmeasure.org"
            }
          },
          {
            "high": {
              "value": 100,
              "code": "mg/dL",
              "system": "http://unitsofmeasure.org"
            }
          }
        ],
        "text": {
          "status": "generated",
          "div": "<div xmlns=\"http://www.w3.org/1999/xhtml\"><table class=\"hl7__eu__lab__report\"><tr><th>Test</th><th>12-May-2020</th><th>Reference&#xA0;Range</th><th>Unit</th></tr><tr><td>Glucose [Mass/volume] in Blood</td><td>80.5</td><td>70 - 100</td><td></td><td>mg/dL</td></tr></table></div>"
        },
        "status": "final",
        "subject": {
          "reference": "urn:uuid:3be84a27-8220-4f24-9b11-0d9b7b036dbc",
          "display": "Meaghan Neary"
        },
        "effectiveDateTime": "2020-05-11T22:11:04Z",
        "specimen": {
          "reference": "urn:uuid:b8352059-867b-4f02-a4c7-6ecdfe3a8b49"
        }
      }
    },
    {
      "fullUrl": "urn:uuid:3d95cd16-daeb-431f-bb2e-5843a4268718",
      "resource": {
        "resourceType": "Observation",
        "id": "3d95cd16-daeb-431f-bb2e-5843a4268718",
        "meta": {
          "profile": [
            "http://hl7.eu/fhir/laboratory/StructureDefinition/Observation-resultslab-eu-lab"
          ]
        },
        "performer": [
          {
            "display": "The Central European Lab"
          }
        ],
        "category": [
          {
            "coding": [
              {
                "system": "http://terminology.hl7.org/CodeSystem/observation-category",
                "code": "laboratory"
              }
            ]
          }
        ],
        "code": {
          "coding": [
            {
              "code": "6299-2",
              "system": "http://loinc.org",
              "display": "Urea nitrogen [Mass/volume] in Blood"
            }
          ],
          "text": "Urea nitrogen [Mass/volume] in Blood"
        },
        "valueQuantity": {
          "system": "http://unitsofmeasure.org",
          "value": 8.2,
          "unit": "mg/dL",
          "code": "mg/dL"
        },
        "referenceRange": [
          {
            "low": {
              "value": 7,
              "code": "mg/dL",
              "system": "http://unitsofmeasure.org"
            }
          },
          {
            "high": {
              "value": 43,
              "code": "mg/dL",
              "system": "http://unitsofmeasure.org"
            }
          }
        ],
        "text": {
          "status": "generated",
          "div": "<div xmlns=\"http://www.w3.org/1999/xhtml\"><table class=\"hl7__eu__lab__report\"><tr><th>Test</th><th>12-May-2020</th><th>Reference&#xA0;Range</th><th>Unit</th></tr><tr><td>Urea nitrogen [Mass/volume] in Blood</td><td>8.2</td><td>7 - 43</td><td></td><td>mg/dL</td></tr></table></div>"
        },
        "status": "final",
        "subject": {
          "reference": "urn:uuid:3be84a27-8220-4f24-9b11-0d9b7b036dbc",
          "display": "Meaghan Neary"
        },
        "effectiveDateTime": "2020-05-11T22:11:04Z",
        "specimen": {
          "reference": "urn:uuid:b8352059-867b-4f02-a4c7-6ecdfe3a8b49"
        }
      }
    },
    {
      "fullUrl": "urn:uuid:d79547e8-c060-45db-965e-677217b47c68",
      "resource": {
        "resourceType": "Observation",
        "id": "d79547e8-c060-45db-965e-677217b47c68",
        "meta": {
          "profile": [
            "http://hl7.eu/fhir/laboratory/StructureDefinition/Observation-resultslab-eu-lab"
          ]
        },
        "performer": [
          {
            "display": "The Central European Lab"
          }
        ],
        "category": [
          {
            "coding": [
              {
                "system": "http://terminology.hl7.org/CodeSystem/observation-category",
                "code": "laboratory"
              }
            ]
          }
        ],
        "code": {
          "coding": [
            {
              "code": "38483-4",
              "system": "http://loinc.org",
              "display": "Creatinine [Mass/volume] in Blood"
            }
          ],
          "text": "Creatinine [Mass/volume] in Blood"
        },
        "valueQuantity": {
          "system": "http://unitsofmeasure.org",
          "value": 3.1,
          "unit": "mg/dL",
          "code": "mg/dL"
        },
        "referenceRange": [
          {
            "low": {
              "value": 0.6,
              "code": "mg/dL",
              "system": "http://unitsofmeasure.org"
            }
          },
          {
            "high": {
              "value": 1.1,
              "code": "mg/dL",
              "system": "http://unitsofmeasure.org"
            }
          }
        ],
        "interpretation": [
          {
            "coding": [
              {
                "code": "H",
                "system": "http://terminology.hl7.org/CodeSystem/v3-ObservationInterpretation",
                "display": "High"
              }
            ]
          }
        ],
        "text": {
          "status": "generated",
          "div": "<div xmlns=\"http://www.w3.org/1999/xhtml\"><table class=\"hl7__eu__lab__report\"><tr><th>Test</th><th>12-May-2020</th><th>Reference&#xA0;Range</th><th>Unit</th></tr><tr><td>Creatinine [Mass/volume] in Blood</td><td>3.1</td><td>0.6 - 1.1</td><td>H</td><td>mg/dL</td></tr></table></div>"
        },
        "status": "final",
        "subject": {
          "reference": "urn:uuid:3be84a27-8220-4f24-9b11-0d9b7b036dbc",
          "display": "Meaghan Neary"
        },
        "effectiveDateTime": "2020-05-11T22:11:04Z",
        "specimen": {
          "reference": "urn:uuid:b8352059-867b-4f02-a4c7-6ecdfe3a8b49"
        }
      }
    },
    {
      "fullUrl": "urn:uuid:4efff991-618b-4f47-b8b2-aca2e4731fb0",
      "resource": {
        "resourceType": "Observation",
        "id": "4efff991-618b-4f47-b8b2-aca2e4731fb0",
        "meta": {
          "profile": [
            "http://hl7.eu/fhir/laboratory/StructureDefinition/Observation-resultslab-eu-lab"
          ]
        },
        "performer": [
          {
            "display": "The Central European Lab"
          }
        ],
        "category": [
          {
            "coding": [
              {
                "system": "http://terminology.hl7.org/CodeSystem/observation-category",
                "code": "laboratory"
              }
            ]
          }
        ],
        "code": {
          "coding": [
            {
              "code": "49765-1",
              "system": "http://loinc.org",
              "display": "Calcium [Mass/volume] in Blood"
            }
          ],
          "text": "Calcium [Mass/volume] in Blood"
        },
        "valueQuantity": {
          "system": "http://unitsofmeasure.org",
          "value": 9.4,
          "unit": "mg/dL",
          "code": "mg/dL"
        },
        "referenceRange": [
          {
            "low": {
              "value": 8.5,
              "code": "mg/dL",
              "system": "http://unitsofmeasure.org"
            }
          },
          {
            "high": {
              "value": 10.5,
              "code": "mg/dL",
              "system": "http://unitsofmeasure.org"
            }
          }
        ],
        "text": {
          "status": "generated",
          "div": "<div xmlns=\"http://www.w3.org/1999/xhtml\"><table class=\"hl7__eu__lab__report\"><tr><th>Test</th><th>12-May-2020</th><th>Reference&#xA0;Range</th><th>Unit</th></tr><tr><td>Calcium [Mass/volume] in Blood</td><td>9.4</td><td>8.5 - 10.5</td><td></td><td>mg/dL</td></tr></table></div>"
        },
        "status": "final",
        "subject": {
          "reference": "urn:uuid:3be84a27-8220-4f24-9b11-0d9b7b036dbc",
          "display": "Meaghan Neary"
        },
        "effectiveDateTime": "2020-05-11T22:11:04Z",
        "specimen": {
          "reference": "urn:uuid:b8352059-867b-4f02-a4c7-6ecdfe3a8b49"
        }
      }
    },
    {
      "fullUrl": "urn:uuid:57fc8322-e848-4c17-a2ff-c1a604f517f9",
      "resource": {
        "resourceType": "Observation",
        "id": "57fc8322-e848-4c17-a2ff-c1a604f517f9",
        "meta": {
          "profile": [
            "http://hl7.eu/fhir/laboratory/StructureDefinition/Observation-resultslab-eu-lab"
          ]
        },
        "performer": [
          {
            "display": "The Central European Lab"
          }
        ],
        "category": [
          {
            "coding": [
              {
                "system": "http://terminology.hl7.org/CodeSystem/observation-category",
                "code": "laboratory"
              }
            ]
          }
        ],
        "code": {
          "coding": [
            {
              "code": "2947-0",
              "system": "http://loinc.org",
              "display": "Sodium [Moles/volume] in Blood"
            }
          ],
          "text": "Sodium [Moles/volume] in Blood"
        },
        "valueQuantity": {
          "system": "http://unitsofmeasure.org",
          "value": 138.8,
          "unit": "mmol/L",
          "code": "mmol/L"
        },
        "referenceRange": [
          {
            "low": {
              "value": 135,
              "code": "mmol/L",
              "system": "http://unitsofmeasure.org"
            }
          },
          {
            "high": {
              "value": 145,
              "code": "mmol/L",
              "system": "http://unitsofmeasure.org"
            }
          }
        ],
        "text": {
          "status": "generated",
          "div": "<div xmlns=\"http://www.w3.org/1999/xhtml\"><table class=\"hl7__eu__lab__report\"><tr><th>Test</th><th>12-May-2020</th><th>Reference&#xA0;Range</th><th>Unit</th></tr><tr><td>Sodium [Moles/volume] in Blood</td><td>138.8</td><td>135 - 145</td><td></td><td>mmol/L</td></tr></table></div>"
        },
        "status": "final",
        "subject": {
          "reference": "urn:uuid:3be84a27-8220-4f24-9b11-0d9b7b036dbc",
          "display": "Meaghan Neary"
        },
        "effectiveDateTime": "2020-05-11T22:11:04Z",
        "specimen": {
          "reference": "urn:uuid:b8352059-867b-4f02-a4c7-6ecdfe3a8b49"
        }
      }
    },
    {
      "fullUrl": "urn:uuid:ef42f5a5-5c01-4b65-8496-47a34eba2a9e",
      "resource": {
        "resourceType": "Observation",
        "id": "ef42f5a5-5c01-4b65-8496-47a34eba2a9e",
        "meta": {
          "profile": [
            "http://hl7.eu/fhir/laboratory/StructureDefinition/Observation-resultslab-eu-lab"
          ]
        },
        "performer": [
          {
            "display": "The Central European Lab"
          }
        ],
        "category": [
          {
            "coding": [
              {
                "system": "http://terminology.hl7.org/CodeSystem/observation-category",
                "code": "laboratory"
              }
            ]
          }
        ],
        "code": {
          "coding": [
            {
              "code": "6298-4",
              "system": "http://loinc.org",
              "display": "Potassium [Moles/volume] in Blood"
            }
          ],
          "text": "Potassium [Moles/volume] in Blood"
        },
        "valueQuantity": {
          "system": "http://unitsofmeasure.org",
          "value": 4.1,
          "unit": "mmol/L",
          "code": "mmol/L"
        },
        "referenceRange": [
          {
            "low": {
              "value": 3.5,
              "code": "mmol/L",
              "system": "http://unitsofmeasure.org"
            }
          },
          {
            "high": {
              "value": 5.1,
              "code": "mmol/L",
              "system": "http://unitsofmeasure.org"
            }
          }
        ],
        "text": {
          "status": "generated",
          "div": "<div xmlns=\"http://www.w3.org/1999/xhtml\"><table class=\"hl7__eu__lab__report\"><tr><th>Test</th><th>12-May-2020</th><th>Reference&#xA0;Range</th><th>Unit</th></tr><tr><td>Potassium [Moles/volume] in Blood</td><td>4.1</td><td>3.5 - 5.1</td><td></td><td>mmol/L</td></tr></table></div>"
        },
        "status": "final",
        "subject": {
          "reference": "urn:uuid:3be84a27-8220-4f24-9b11-0d9b7b036dbc",
          "display": "Meaghan Neary"
        },
        "effectiveDateTime": "2020-05-11T22:11:04Z",
        "specimen": {
          "reference": "urn:uuid:b8352059-867b-4f02-a4c7-6ecdfe3a8b49"
        }
      }
    },
    {
      "fullUrl": "urn:uuid:def238fc-7dd0-4556-8748-a84441760505",
      "resource": {
        "resourceType": "Observation",
        "id": "def238fc-7dd0-4556-8748-a84441760505",
        "meta": {
          "profile": [
            "http://hl7.eu/fhir/laboratory/StructureDefinition/Observation-resultslab-eu-lab"
          ]
        },
        "performer": [
          {
            "display": "The Central European Lab"
          }
        ],
        "category": [
          {
            "coding": [
              {
                "system": "http://terminology.hl7.org/CodeSystem/observation-category",
                "code": "laboratory"
              }
            ]
          }
        ],
        "code": {
          "coding": [
            {
              "code": "2069-3",
              "system": "http://loinc.org",
              "display": "Chloride [Moles/volume] in Blood"
            }
          ],
          "text": "Chloride [Moles/volume] in Blood"
        },
        "valueQuantity": {
          "system": "http://unitsofmeasure.org",
          "value": 104,
          "unit": "mmol/L",
          "code": "mmol/L"
        },
        "referenceRange": [
          {
            "low": {
              "value": 98,
              "code": "mmol/L",
              "system": "http://unitsofmeasure.org"
            }
          },
          {
            "high": {
              "value": 108,
              "code": "mmol/L",
              "system": "http://unitsofmeasure.org"
            }
          }
        ],
        "text": {
          "status": "generated",
          "div": "<div xmlns=\"http://www.w3.org/1999/xhtml\"><table class=\"hl7__eu__lab__report\"><tr><th>Test</th><th>12-May-2020</th><th>Reference&#xA0;Range</th><th>Unit</th></tr><tr><td>Chloride [Moles/volume] in Blood</td><td>104.0</td><td>98 - 108</td><td></td><td>mmol/L</td></tr></table></div>"
        },
        "status": "final",
        "subject": {
          "reference": "urn:uuid:3be84a27-8220-4f24-9b11-0d9b7b036dbc",
          "display": "Meaghan Neary"
        },
        "effectiveDateTime": "2020-05-11T22:11:04Z",
        "specimen": {
          "reference": "urn:uuid:b8352059-867b-4f02-a4c7-6ecdfe3a8b49"
        }
      }
    },
    {
      "fullUrl": "urn:uuid:000af647-9027-4e44-a1e6-00c0bccddfe0",
      "resource": {
        "resourceType": "Observation",
        "id": "000af647-9027-4e44-a1e6-00c0bccddfe0",
        "meta": {
          "profile": [
            "http://hl7.eu/fhir/laboratory/StructureDefinition/Observation-resultslab-eu-lab"
          ]
        },
        "performer": [
          {
            "display": "The Central European Lab"
          }
        ],
        "category": [
          {
            "coding": [
              {
                "system": "http://terminology.hl7.org/CodeSystem/observation-category",
                "code": "laboratory"
              }
            ]
          }
        ],
        "code": {
          "coding": [
            {
              "code": "20565-8",
              "system": "http://loinc.org",
              "display": "Carbon dioxide, total [Moles/volume] in Blood"
            }
          ],
          "text": "Carbon dioxide, total [Moles/volume] in Blood"
        },
        "valueQuantity": {
          "system": "http://unitsofmeasure.org",
          "value": 28,
          "unit": "mmol/L",
          "code": "mmol/L"
        },
        "referenceRange": [
          {
            "low": {
              "value": 22,
              "code": "mmol/L",
              "system": "http://unitsofmeasure.org"
            }
          },
          {
            "high": {
              "value": 29,
              "code": "mmol/L",
              "system": "http://unitsofmeasure.org"
            }
          }
        ],
        "text": {
          "status": "generated",
          "div": "<div xmlns=\"http://www.w3.org/1999/xhtml\"><table class=\"hl7__eu__lab__report\"><tr><th>Test</th><th>12-May-2020</th><th>Reference&#xA0;Range</th><th>Unit</th></tr><tr><td>Carbon dioxide, total [Moles/volume] in Blood</td><td>28.0</td><td>22 - 29</td><td></td><td>mmol/L</td></tr></table></div>"
        },
        "status": "final",
        "subject": {
          "reference": "urn:uuid:3be84a27-8220-4f24-9b11-0d9b7b036dbc",
          "display": "Meaghan Neary"
        },
        "effectiveDateTime": "2020-05-11T22:11:04Z",
        "specimen": {
          "reference": "urn:uuid:b8352059-867b-4f02-a4c7-6ecdfe3a8b49"
        }
      }
    },
    {
      "fullUrl": "urn:uuid:903daa28-1e71-483a-84f0-8ea8db50a159",
      "resource": {
        "resourceType": "Device",
        "id": "903daa28-1e71-483a-84f0-8ea8db50a159",
        "deviceName": [
          {
            "name": "SYNDERAI Synthetic Generator",
            "type": "manufacturer-name"
          }
        ],
        "version": [
          {
            "value": "5.0"
          }
        ],
        "text": {
          "status": "generated",
          "div": "<div xmlns=\"http://www.w3.org/1999/xhtml\">SYNDERAI Synthetic Generator v5.0</div>"
        },
        "status": "active\"",
        "distinctIdentifier": "synderai-generator-50",
        "manufacturer": "SYNDERAI Project"
      }
    },
    {
      "fullUrl": "urn:uuid:a9d154f0-d5b3-49b0-91d2-2dfa6998f212",
      "resource": {
        "resourceType": "Provenance",
        "id": "a9d154f0-d5b3-49b0-91d2-2dfa6998f212",
        "target": [
          {
            "reference": "Patient/3be84a27-8220-4f24-9b11-0d9b7b036dbc"
          },
          {
            "reference": "Bundle/36ea95c0-c12f-457a-b6d3-b0c0f3634928"
          },
          {
            "reference": "Composition/041f94ff-e67e-44da-8150-269bc309cd8a"
          },
          {
            "reference": "PractitionerRole/ec79dfb0-16ab-463b-93a9-d8779da06fc4"
          },
          {
            "reference": "Practitioner/b9c8b441-21e4-4c08-91c1-c4d2845bd0fb"
          },
          {
            "reference": "PractitionerRole/81ee9440-676e-44dc-873f-821eed205a1d"
          },
          {
            "reference": "Organization/0ec24126-d51b-4deb-90e0-d97116197a39"
          }
        ],
        "activity": {
          "text": "Synthetic Example Data Generation"
        },
        "policy": [
          "https://synderai.net/synderai-synthetic-data-policy"
        ],
        "agent": [
          {
            "type": {
              "text": "author"
            },
            "who": {
              "reference": "Device/903daa28-1e71-483a-84f0-8ea8db50a159"
            }
          }
        ],
        "reason": [
          {
            "text": "Interoperability Testing and Training (non-clinical use)"
          }
        ],
        "text": {
          "status": "generated",
          "div": "<div xmlns=\"http://www.w3.org/1999/xhtml\">Provenance for SYNDERAI Synthetic Example Data Resource</div>"
        },
        "recorded": "2020-05-12T00:11:04Z"
      }
    },
    {
      "fullUrl": "urn:uuid:ec79dfb0-16ab-463b-93a9-d8779da06fc4",
      "resource": {
        "resourceType": "PractitionerRole",
        "id": "ec79dfb0-16ab-463b-93a9-d8779da06fc4",
        "meta": {
          "profile": [
            "http://hl7.eu/fhir/base/StructureDefinition/practitionerRole-eu"
          ]
        },
        "text": {
          "status": "generated",
          "div": "<div xmlns=\"http://www.w3.org/1999/xhtml\">Laboratory Role Id: ec79dfb0-16ab-463b-93a9-d8779da06fc4</div>"
        },
        "practitioner": {
          "reference": "urn:uuid:b9c8b441-21e4-4c08-91c1-c4d2845bd0fb"
        }
      }
    },
    {
      "fullUrl": "urn:uuid:b9c8b441-21e4-4c08-91c1-c4d2845bd0fb",
      "resource": {
        "resourceType": "Practitioner",
        "id": "b9c8b441-21e4-4c08-91c1-c4d2845bd0fb",
        "meta": {
          "profile": [
            "http://hl7.eu/fhir/base/StructureDefinition/practitioner-eu"
          ]
        },
        "identifier": [
          {
            "assigner": {
              "display": "HL7 Europe"
            },
            "system": "urn:oid:2.16.840.1.113883.2.51.999",
            "value": "d6c167be-c719-4ab9-90cd-534f1e1ffe93"
          }
        ],
        "name": [
          {
            "prefix": [
              "dr"
            ],
            "given": [
              "Ex"
            ],
            "family": "Ample"
          }
        ],
        "address": [
          {
            "line": [
              "Laboratoire Central Europenne",
              "Boulevard du Jardin Botanique 32"
            ],
            "postalCode": "1000",
            "city": "Brussels",
            "country": "Belgium"
          }
        ],
        "text": {
          "status": "generated",
          "div": "<div xmlns=\"http://www.w3.org/1999/xhtml\">Laboratory: Laboratoire Central Europenne, 1000 Brussels, Belgium</div>"
        }
      }
    }
  ],
  "type": "document",
  "timestamp": "2020-05-12T00:11:04Z"
}
