{
  "resourceType": "Bundle",
  "id": "cf06fcc9-9770-4cf4-91d0-8b99719102f5",
  "meta": {
    "profile": [
      "http://hl7.eu/fhir/laboratory/StructureDefinition/Bundle-eu-lab"
    ]
  },
  "identifier": {
    "assigner": {
      "display": "HL7 Europe"
    },
    "system": "urn:oid:2.16.840.1.113883.2.51.999",
    "value": "e74923b9-119d-410a-86da-6d38f833c138"
  },
  "entry": [
    {
      "fullUrl": "urn:uuid:71540079-f049-4662-a800-be33cb5af49d",
      "resource": {
        "resourceType": "Composition",
        "id": "71540079-f049-4662-a800-be33cb5af49d",
        "meta": {
          "profile": [
            "http://hl7.eu/fhir/laboratory/StructureDefinition/Composition-eu-lab"
          ]
        },
        "identifier": {
          "assigner": {
            "display": "HL7 Europe"
          },
          "system": "urn:oid:2.16.840.1.113883.2.51.999",
          "value": "51f42add-c28d-477e-9fdc-eae957f94cd0"
        },
        "author": [
          {
            "reference": "urn:uuid:b1852c33-17b3-40c8-9df7-27626d53eac3"
          }
        ],
        "category": [
          {
            "coding": [
              {
                "code": "26436-6",
                "system": "http://loinc.org",
                "display": "Laboratory studies (set)"
              }
            ]
          }
        ],
        "type": {
          "coding": [
            {
              "code": "11502-2",
              "system": "http://loinc.org",
              "display": "Laboratory report"
            }
          ],
          "text": "Laboratory Report"
        },
        "section": [
          {
            "code": {
              "coding": [
                {
                  "code": "26436-6",
                  "system": "http://loinc.org",
                  "display": "Laboratory studies (set)"
                }
              ],
              "text": "Laboratory studies"
            },
            "section": [
              {
                "code": {
                  "coding": [
                    {
                      "code": "$18719-5",
                      "system": "http://loinc.org",
                      "display": "Chemistry studies (set)"
                    }
                  ],
                  "text": "Chemistry"
                },
                "entry": [
                  {
                    "reference": "urn:uuid:a0526f77-219c-4b2c-801b-6c817ec79936"
                  },
                  {
                    "reference": "urn:uuid:f44e05d8-a816-45fa-a3b6-85c4daac5d41"
                  },
                  {
                    "reference": "urn:uuid:89518e10-2892-431c-a252-992ca2019b58"
                  },
                  {
                    "reference": "urn:uuid:575cc90a-4991-4302-aade-6ec035147237"
                  },
                  {
                    "reference": "urn:uuid:e97a3ba9-6822-4ef9-9654-9dfa19807987"
                  },
                  {
                    "reference": "urn:uuid:b7c289bb-84c9-4bab-b677-a3010e165416"
                  },
                  {
                    "reference": "urn:uuid:666c26ff-f206-4d08-8f5d-ec4615844b7f"
                  },
                  {
                    "reference": "urn:uuid:7acb6a7d-60ef-49f7-843f-519487aafff6"
                  },
                  {
                    "reference": "urn:uuid:6955a4a8-9715-4dc2-9cba-d0814bb44e7e"
                  }
                ],
                "text": {
                  "status": "generated",
                  "div": "<div xmlns=\"http://www.w3.org/1999/xhtml\"><h3>Chemistry</h3><table class=\"hl7__eu__lab__report\"><thead><tr><th>Test</th><th>13-FEB-2021</th><th>Reference&#xA0;Range</th><th>Unit</th></tr></thead><tbody><tr><td>Hemoglobin A1c/Hemoglobin.total in Blood</td><td>5.8</td><td>4 - 6</td><td>%</td></tr><tr><td>Glucose [Mass/volume] in Blood</td><td>81.7</td><td>70 - 140</td><td>mg/dL</td></tr><tr><td>Urea nitrogen [Mass/volume] in Blood</td><td>13.0</td><td>7 - 45</td><td>mg/dL</td></tr><tr><td>Creatinine [Mass/volume] in Blood</td><td><strong>1.2 H</strong></td><td>0.6 - 1.1</td><td>mg/dL</td></tr><tr><td>Calcium [Mass/volume] in Blood</td><td>9.4</td><td>8.5 - 10.5</td><td>mg/dL</td></tr><tr><td>Sodium [Moles/volume] in Blood</td><td>143.2</td><td>135 - 145</td><td>mmol/L</td></tr><tr><td>Potassium [Moles/volume] in Blood</td><td>4.8</td><td>3.5 - 5.1</td><td>mmol/L</td></tr><tr><td>Chloride [Moles/volume] in Blood</td><td><strong>107.7 H</strong></td><td>98 - 107</td><td>mmol/L</td></tr><tr><td>Carbon dioxide, total [Moles/volume] in Blood</td><td>22.7</td><td>22 - 32</td><td>mmol/L</td></tr></tbody></table></div>"
                },
                "title": "Chemistry"
              }
            ],
            "title": "Laboratory Report"
          },
          {
            "text": {
              "status": "generated",
              "div": "<div xmlns=\"http://www.w3.org/1999/xhtml\"><h3>Annotation</h3><table class=\"hl7__eu__lab__report\"><tr><th>Conclusion and Recommendations based on this report and previous findings known to us</th></tr><tr><td>Most parameters are within normal limits. Mildly elevated creatinine may suggest early renal impairment or dehydration; consider monitoring renal function. Slightly high chloride is likely not clinically significant if the patient is asymptomatic. Glucose and HbA1c are within target ranges. No acute abnormalities detected. Recommend clinical correlation and follow-up of renal parameters.</td></tr></table></div>"
            },
            "code": {
              "coding": [
                {
                  "system": "http://loinc.org",
                  "code": "48767-8",
                  "display": "Annotation comment"
                }
              ]
            },
            "title": "Annotation comment"
          }
        ],
        "status": "final",
        "subject": {
          "reference": "urn:uuid:3d2c7b38-e842-477d-8755-e521d88e50a5",
          "display": "Lydia Ward"
        },
        "date": "2021-02-13T00:08:09Z",
        "title": "Laboratory Report",
        "confidentiality": "N"
      }
    },
    {
      "fullUrl": "urn:uuid:0e1b7afb-ecd8-42ee-985a-0d9af611b5dd",
      "resource": {
        "resourceType": "DiagnosticReport",
        "id": "0e1b7afb-ecd8-42ee-985a-0d9af611b5dd",
        "meta": {
          "profile": [
            "http://hl7.eu/fhir/laboratory/StructureDefinition/DiagnosticReport-eu-lab"
          ]
        },
        "identifier": [
          {
            "assigner": {
              "display": "HL7 Europe"
            },
            "system": "urn:oid:2.16.840.1.113883.2.51.999",
            "value": "0e9be0d5-9bc0-4a9f-a650-1618087ee942"
          }
        ],
        "extension": [
          {
            "url": "http://hl7.org/fhir/5.0/StructureDefinition/extension-DiagnosticReport.composition",
            "valueReference": {
              "reference": "urn:uuid:51f42add-c28d-477e-9fdc-eae957f94cd0"
            }
          }
        ],
        "category": [
          {
            "coding": [
              {
                "code": "26436-6",
                "system": "http://loinc.org",
                "display": "Laboratory studies (set)"
              }
            ]
          }
        ],
        "specimen": [
          {
            "reference": "urn:uuid:659e4dc1-46b7-4020-8e1c-166e4dc84337"
          }
        ],
        "result": [
          {
            "reference": "urn:uuid:a0526f77-219c-4b2c-801b-6c817ec79936"
          },
          {
            "reference": "urn:uuid:f44e05d8-a816-45fa-a3b6-85c4daac5d41"
          },
          {
            "reference": "urn:uuid:89518e10-2892-431c-a252-992ca2019b58"
          },
          {
            "reference": "urn:uuid:575cc90a-4991-4302-aade-6ec035147237"
          },
          {
            "reference": "urn:uuid:e97a3ba9-6822-4ef9-9654-9dfa19807987"
          },
          {
            "reference": "urn:uuid:b7c289bb-84c9-4bab-b677-a3010e165416"
          },
          {
            "reference": "urn:uuid:666c26ff-f206-4d08-8f5d-ec4615844b7f"
          },
          {
            "reference": "urn:uuid:7acb6a7d-60ef-49f7-843f-519487aafff6"
          },
          {
            "reference": "urn:uuid:6955a4a8-9715-4dc2-9cba-d0814bb44e7e"
          }
        ],
        "status": "registered",
        "code": {
          "coding": [
            {
              "code": "11502-2",
              "system": "http://loinc.org",
              "display": "Laboratory report"
            }
          ]
        },
        "subject": {
          "reference": "urn:uuid:3d2c7b38-e842-477d-8755-e521d88e50a5",
          "display": "Lydia Ward"
        }
      }
    },
    {
      "fullUrl": "urn:uuid:3d2c7b38-e842-477d-8755-e521d88e50a5",
      "resource": {
        "resourceType": "Patient",
        "id": "3d2c7b38-e842-477d-8755-e521d88e50a5",
        "meta": {
          "security": [
            {
              "system": "http://terminology.hl7.org/CodeSystem/v3-ActReason",
              "code": "HTEST"
            },
            {
              "system": "http://terminology.hl7.org/CodeSystem/v3-ActReason",
              "code": "TRAIN"
            }
          ],
          "tag": [
            {
              "system": "https://synderai.net/fhir/CodeSystem/tags",
              "code": "synthetic",
              "display": "SYNDERAI Synthetic data"
            }
          ],
          "profile": [
            "http://hl7.eu/fhir/base/StructureDefinition/patient-eu-core"
          ]
        },
        "identifier": [
          {
            "type": {
              "coding": [
                {
                  "code": "PT",
                  "system": "http://terminology.hl7.org/CodeSystem/v2-0203"
                }
              ]
            },
            "system": "http://ec.europa.eu/identifier/eci",
            "value": "8944-364030-8"
          },
          {
            "type": {
              "coding": [
                {
                  "code": "MR",
                  "system": "http://terminology.hl7.org/CodeSystem/v2-0203"
                }
              ]
            },
            "system": "http://local.setting.eu/identifier",
            "value": "9edf6b8d-b276-7218-98c6-ccf8d15f2a01"
          }
        ],
        "name": [
          {
            "family": "Ward"
          },
          {
            "given": [
              "Lydia"
            ]
          },
          {
            "text": "Lydia Ward"
          }
        ],
        "address": [
          {
            "line": [
              "6 Hunt radial"
            ],
            "use": "home",
            "type": "physical",
            "postalCode": "EH33",
            "city": "South Rosieside",
            "country": "United Kingdom"
          }
        ],
        "telecom": [
          {
            "system": "phone",
            "value": "01144960349"
          }
        ],
        "extension": [
          {
            "url": "http://hl7.org/fhir/StructureDefinition/patient-nationality",
            "valueCodeableConcept": {
              "coding": [
                {
                  "code": "GB",
                  "system": "http://hl7.org/fhir/ValueSet/country"
                }
              ]
            }
          }
        ],
        "text": {
          "status": "generated",
          "div": "<div xmlns=\"http://www.w3.org/1999/xhtml\"><table class=\"hl7__ips\"><tr><td>Lydia Ward</td><td>female</td><td>27-Dec-1968</td></tr></table></div>"
        },
        "gender": "female",
        "birthDate": "1968-12-27"
      }
    },
    {
      "fullUrl": "urn:uuid:e58f8a7e-b314-40a5-ac02-a51a4abf99e9",
      "resource": {
        "resourceType": "ServiceRequest",
        "id": "e58f8a7e-b314-40a5-ac02-a51a4abf99e9",
        "meta": {
          "profile": [
            "http://hl7.eu/fhir/laboratory/StructureDefinition/ServiceRequest-eu-lab"
          ]
        },
        "identifier": [
          {
            "system": "http://example.org",
            "value": "ef4fa74c-f6c4-4055-9567-ff039eaf601c"
          }
        ],
        "specimen": [
          {
            "reference": "urn:uuid:659e4dc1-46b7-4020-8e1c-166e4dc84337"
          }
        ],
        "reasonCode": [
          {
            "coding": [
              {
                "code": "271737000",
                "system": "http://snomed.info/sct",
                "display": "Anemia"
              }
            ]
          },
          {
            "coding": [
              {
                "code": "15777000",
                "system": "http://snomed.info/sct",
                "display": "Prediabetes"
              }
            ]
          }
        ],
        "status": "active",
        "intent": "order",
        "code": {
          "coding": [
            {
              "code": "108252007",
              "system": "http://snomed.info/sct",
              "display": "Laboratory procedure"
            }
          ]
        },
        "subject": {
          "reference": "urn:uuid:3d2c7b38-e842-477d-8755-e521d88e50a5",
          "display": "Lydia Ward"
        },
        "requester": {
          "reference": "urn:uuid:11404c6a-2f52-400d-8bdc-b25d506ec1b1"
        }
      }
    },
    {
      "fullUrl": "urn:uuid:11404c6a-2f52-400d-8bdc-b25d506ec1b1",
      "resource": {
        "resourceType": "PractitionerRole",
        "id": "11404c6a-2f52-400d-8bdc-b25d506ec1b1",
        "meta": {
          "profile": [
            "http://hl7.eu/fhir/base/StructureDefinition/practitionerRole-eu"
          ]
        },
        "text": {
          "status": "generated",
          "div": "<div xmlns=\"http://www.w3.org/1999/xhtml\">Provider Role Id: 11404c6a-2f52-400d-8bdc-b25d506ec1b1</div>"
        },
        "organization": {
          "reference": "urn:uuid:91511c19-aae0-4eee-8a24-b7dfbdabac52"
        }
      }
    },
    {
      "fullUrl": "urn:uuid:91511c19-aae0-4eee-8a24-b7dfbdabac52",
      "resource": {
        "resourceType": "Organization",
        "id": "91511c19-aae0-4eee-8a24-b7dfbdabac52",
        "meta": {
          "profile": [
            "http://hl7.eu/fhir/base/StructureDefinition/organization-eu"
          ]
        },
        "identifier": [
          {
            "assigner": {
              "display": "HL7 Europe"
            },
            "system": "urn:oid:2.16.840.1.113883.2.51.999",
            "value": "efd8a357-8c0d-4298-9c6f-2a04a75effb5"
          }
        ],
        "address": [
          {
            "city": "Edinburgh",
            "postalCode": "EH9 2",
            "country": "United Kingdom"
          }
        ],
        "text": {
          "status": "generated",
          "div": "<div xmlns=\"http://www.w3.org/1999/xhtml\">Provider Organization: Royal Hospital for Sick Children</div>"
        },
        "name": "Royal Hospital for Sick Children"
      }
    },
    {
      "fullUrl": "urn:uuid:659e4dc1-46b7-4020-8e1c-166e4dc84337",
      "resource": {
        "resourceType": "Specimen",
        "id": "659e4dc1-46b7-4020-8e1c-166e4dc84337",
        "meta": {
          "profile": [
            "http://hl7.eu/fhir/laboratory/StructureDefinition/Specimen-eu-lab"
          ]
        },
        "collection": {
          "collectedDateTime": "2021-02-12"
        },
        "text": {
          "status": "generated",
          "div": "<div xmlns=\"http://www.w3.org/1999/xhtml\"><table class=\"hl7__eu__lab__report\"><tr><th>Specimen</th><th>Collection Date</th></tr><tr><td>Whole blood specimen (specimen)</td><td><span class=\"nb\">12-Feb-2021</span></td></tr></table></div>"
        },
        "type": {
          "coding": [
            {
              "code": "258580003",
              "system": "http://snomed.info/sct",
              "display": "Whole blood specimen (specimen)"
            }
          ]
        }
      }
    },
    {
      "fullUrl": "urn:uuid:a0526f77-219c-4b2c-801b-6c817ec79936",
      "resource": {
        "resourceType": "Observation",
        "id": "a0526f77-219c-4b2c-801b-6c817ec79936",
        "meta": {
          "profile": [
            "http://hl7.eu/fhir/laboratory/StructureDefinition/Observation-resultslab-eu-lab"
          ]
        },
        "performer": [
          {
            "display": "The Central European Lab"
          }
        ],
        "category": [
          {
            "coding": [
              {
                "system": "http://terminology.hl7.org/CodeSystem/observation-category",
                "code": "laboratory"
              }
            ]
          }
        ],
        "code": {
          "coding": [
            {
              "code": "4548-4",
              "system": "http://loinc.org",
              "display": "Hemoglobin A1c/Hemoglobin.total in Blood"
            }
          ],
          "text": "Hemoglobin A1c/Hemoglobin.total in Blood"
        },
        "valueQuantity": {
          "system": "http://unitsofmeasure.org",
          "value": 5.8,
          "unit": "%",
          "code": "%"
        },
        "referenceRange": [
          {
            "low": {
              "value": 4,
              "code": "%",
              "system": "http://unitsofmeasure.org"
            }
          },
          {
            "high": {
              "value": 6,
              "code": "%",
              "system": "http://unitsofmeasure.org"
            }
          }
        ],
        "text": {
          "status": "generated",
          "div": "<div xmlns=\"http://www.w3.org/1999/xhtml\"><table class=\"hl7__eu__lab__report\"><tr><th>Test</th><th>13-Feb-2021</th><th>Reference&#xA0;Range</th><th>Unit</th></tr><tr><td>Hemoglobin A1c/Hemoglobin.total in Blood</td><td>5.8</td><td>4 - 6</td><td></td><td>%</td></tr></table></div>"
        },
        "status": "final",
        "subject": {
          "reference": "urn:uuid:3d2c7b38-e842-477d-8755-e521d88e50a5",
          "display": "Lydia Ward"
        },
        "effectiveDateTime": "2021-02-12T23:08:09Z",
        "specimen": {
          "reference": "urn:uuid:659e4dc1-46b7-4020-8e1c-166e4dc84337"
        }
      }
    },
    {
      "fullUrl": "urn:uuid:f44e05d8-a816-45fa-a3b6-85c4daac5d41",
      "resource": {
        "resourceType": "Observation",
        "id": "f44e05d8-a816-45fa-a3b6-85c4daac5d41",
        "meta": {
          "profile": [
            "http://hl7.eu/fhir/laboratory/StructureDefinition/Observation-resultslab-eu-lab"
          ]
        },
        "performer": [
          {
            "display": "The Central European Lab"
          }
        ],
        "category": [
          {
            "coding": [
              {
                "system": "http://terminology.hl7.org/CodeSystem/observation-category",
                "code": "laboratory"
              }
            ]
          }
        ],
        "code": {
          "coding": [
            {
              "code": "2339-0",
              "system": "http://loinc.org",
              "display": "Glucose [Mass/volume] in Blood"
            }
          ],
          "text": "Glucose [Mass/volume] in Blood"
        },
        "valueQuantity": {
          "system": "http://unitsofmeasure.org",
          "value": 81.7,
          "unit": "mg/dL",
          "code": "mg/dL"
        },
        "referenceRange": [
          {
            "low": {
              "value": 70,
              "code": "mg/dL",
              "system": "http://unitsofmeasure.org"
            }
          },
          {
            "high": {
              "value": 140,
              "code": "mg/dL",
              "system": "http://unitsofmeasure.org"
            }
          }
        ],
        "text": {
          "status": "generated",
          "div": "<div xmlns=\"http://www.w3.org/1999/xhtml\"><table class=\"hl7__eu__lab__report\"><tr><th>Test</th><th>13-Feb-2021</th><th>Reference&#xA0;Range</th><th>Unit</th></tr><tr><td>Glucose [Mass/volume] in Blood</td><td>81.7</td><td>70 - 140</td><td></td><td>mg/dL</td></tr></table></div>"
        },
        "status": "final",
        "subject": {
          "reference": "urn:uuid:3d2c7b38-e842-477d-8755-e521d88e50a5",
          "display": "Lydia Ward"
        },
        "effectiveDateTime": "2021-02-12T23:08:09Z",
        "specimen": {
          "reference": "urn:uuid:659e4dc1-46b7-4020-8e1c-166e4dc84337"
        }
      }
    },
    {
      "fullUrl": "urn:uuid:89518e10-2892-431c-a252-992ca2019b58",
      "resource": {
        "resourceType": "Observation",
        "id": "89518e10-2892-431c-a252-992ca2019b58",
        "meta": {
          "profile": [
            "http://hl7.eu/fhir/laboratory/StructureDefinition/Observation-resultslab-eu-lab"
          ]
        },
        "performer": [
          {
            "display": "The Central European Lab"
          }
        ],
        "category": [
          {
            "coding": [
              {
                "system": "http://terminology.hl7.org/CodeSystem/observation-category",
                "code": "laboratory"
              }
            ]
          }
        ],
        "code": {
          "coding": [
            {
              "code": "6299-2",
              "system": "http://loinc.org",
              "display": "Urea nitrogen [Mass/volume] in Blood"
            }
          ],
          "text": "Urea nitrogen [Mass/volume] in Blood"
        },
        "valueQuantity": {
          "system": "http://unitsofmeasure.org",
          "value": 13,
          "unit": "mg/dL",
          "code": "mg/dL"
        },
        "referenceRange": [
          {
            "low": {
              "value": 7,
              "code": "mg/dL",
              "system": "http://unitsofmeasure.org"
            }
          },
          {
            "high": {
              "value": 45,
              "code": "mg/dL",
              "system": "http://unitsofmeasure.org"
            }
          }
        ],
        "text": {
          "status": "generated",
          "div": "<div xmlns=\"http://www.w3.org/1999/xhtml\"><table class=\"hl7__eu__lab__report\"><tr><th>Test</th><th>13-Feb-2021</th><th>Reference&#xA0;Range</th><th>Unit</th></tr><tr><td>Urea nitrogen [Mass/volume] in Blood</td><td>13.0</td><td>7 - 45</td><td></td><td>mg/dL</td></tr></table></div>"
        },
        "status": "final",
        "subject": {
          "reference": "urn:uuid:3d2c7b38-e842-477d-8755-e521d88e50a5",
          "display": "Lydia Ward"
        },
        "effectiveDateTime": "2021-02-12T23:08:09Z",
        "specimen": {
          "reference": "urn:uuid:659e4dc1-46b7-4020-8e1c-166e4dc84337"
        }
      }
    },
    {
      "fullUrl": "urn:uuid:575cc90a-4991-4302-aade-6ec035147237",
      "resource": {
        "resourceType": "Observation",
        "id": "575cc90a-4991-4302-aade-6ec035147237",
        "meta": {
          "profile": [
            "http://hl7.eu/fhir/laboratory/StructureDefinition/Observation-resultslab-eu-lab"
          ]
        },
        "performer": [
          {
            "display": "The Central European Lab"
          }
        ],
        "category": [
          {
            "coding": [
              {
                "system": "http://terminology.hl7.org/CodeSystem/observation-category",
                "code": "laboratory"
              }
            ]
          }
        ],
        "code": {
          "coding": [
            {
              "code": "38483-4",
              "system": "http://loinc.org",
              "display": "Creatinine [Mass/volume] in Blood"
            }
          ],
          "text": "Creatinine [Mass/volume] in Blood"
        },
        "valueQuantity": {
          "system": "http://unitsofmeasure.org",
          "value": 1.2,
          "unit": "mg/dL",
          "code": "mg/dL"
        },
        "referenceRange": [
          {
            "low": {
              "value": 0.6,
              "code": "mg/dL",
              "system": "http://unitsofmeasure.org"
            }
          },
          {
            "high": {
              "value": 1.1,
              "code": "mg/dL",
              "system": "http://unitsofmeasure.org"
            }
          }
        ],
        "interpretation": [
          {
            "coding": [
              {
                "code": "H",
                "system": "http://terminology.hl7.org/CodeSystem/v3-ObservationInterpretation",
                "display": "High"
              }
            ]
          }
        ],
        "text": {
          "status": "generated",
          "div": "<div xmlns=\"http://www.w3.org/1999/xhtml\"><table class=\"hl7__eu__lab__report\"><tr><th>Test</th><th>13-Feb-2021</th><th>Reference&#xA0;Range</th><th>Unit</th></tr><tr><td>Creatinine [Mass/volume] in Blood</td><td>1.2</td><td>0.6 - 1.1</td><td>H</td><td>mg/dL</td></tr></table></div>"
        },
        "status": "final",
        "subject": {
          "reference": "urn:uuid:3d2c7b38-e842-477d-8755-e521d88e50a5",
          "display": "Lydia Ward"
        },
        "effectiveDateTime": "2021-02-12T23:08:09Z",
        "specimen": {
          "reference": "urn:uuid:659e4dc1-46b7-4020-8e1c-166e4dc84337"
        }
      }
    },
    {
      "fullUrl": "urn:uuid:e97a3ba9-6822-4ef9-9654-9dfa19807987",
      "resource": {
        "resourceType": "Observation",
        "id": "e97a3ba9-6822-4ef9-9654-9dfa19807987",
        "meta": {
          "profile": [
            "http://hl7.eu/fhir/laboratory/StructureDefinition/Observation-resultslab-eu-lab"
          ]
        },
        "performer": [
          {
            "display": "The Central European Lab"
          }
        ],
        "category": [
          {
            "coding": [
              {
                "system": "http://terminology.hl7.org/CodeSystem/observation-category",
                "code": "laboratory"
              }
            ]
          }
        ],
        "code": {
          "coding": [
            {
              "code": "49765-1",
              "system": "http://loinc.org",
              "display": "Calcium [Mass/volume] in Blood"
            }
          ],
          "text": "Calcium [Mass/volume] in Blood"
        },
        "valueQuantity": {
          "system": "http://unitsofmeasure.org",
          "value": 9.4,
          "unit": "mg/dL",
          "code": "mg/dL"
        },
        "referenceRange": [
          {
            "low": {
              "value": 8.5,
              "code": "mg/dL",
              "system": "http://unitsofmeasure.org"
            }
          },
          {
            "high": {
              "value": 10.5,
              "code": "mg/dL",
              "system": "http://unitsofmeasure.org"
            }
          }
        ],
        "text": {
          "status": "generated",
          "div": "<div xmlns=\"http://www.w3.org/1999/xhtml\"><table class=\"hl7__eu__lab__report\"><tr><th>Test</th><th>13-Feb-2021</th><th>Reference&#xA0;Range</th><th>Unit</th></tr><tr><td>Calcium [Mass/volume] in Blood</td><td>9.4</td><td>8.5 - 10.5</td><td></td><td>mg/dL</td></tr></table></div>"
        },
        "status": "final",
        "subject": {
          "reference": "urn:uuid:3d2c7b38-e842-477d-8755-e521d88e50a5",
          "display": "Lydia Ward"
        },
        "effectiveDateTime": "2021-02-12T23:08:09Z",
        "specimen": {
          "reference": "urn:uuid:659e4dc1-46b7-4020-8e1c-166e4dc84337"
        }
      }
    },
    {
      "fullUrl": "urn:uuid:b7c289bb-84c9-4bab-b677-a3010e165416",
      "resource": {
        "resourceType": "Observation",
        "id": "b7c289bb-84c9-4bab-b677-a3010e165416",
        "meta": {
          "profile": [
            "http://hl7.eu/fhir/laboratory/StructureDefinition/Observation-resultslab-eu-lab"
          ]
        },
        "performer": [
          {
            "display": "The Central European Lab"
          }
        ],
        "category": [
          {
            "coding": [
              {
                "system": "http://terminology.hl7.org/CodeSystem/observation-category",
                "code": "laboratory"
              }
            ]
          }
        ],
        "code": {
          "coding": [
            {
              "code": "2947-0",
              "system": "http://loinc.org",
              "display": "Sodium [Moles/volume] in Blood"
            }
          ],
          "text": "Sodium [Moles/volume] in Blood"
        },
        "valueQuantity": {
          "system": "http://unitsofmeasure.org",
          "value": 143.2,
          "unit": "mmol/L",
          "code": "mmol/L"
        },
        "referenceRange": [
          {
            "low": {
              "value": 135,
              "code": "mmol/L",
              "system": "http://unitsofmeasure.org"
            }
          },
          {
            "high": {
              "value": 145,
              "code": "mmol/L",
              "system": "http://unitsofmeasure.org"
            }
          }
        ],
        "text": {
          "status": "generated",
          "div": "<div xmlns=\"http://www.w3.org/1999/xhtml\"><table class=\"hl7__eu__lab__report\"><tr><th>Test</th><th>13-Feb-2021</th><th>Reference&#xA0;Range</th><th>Unit</th></tr><tr><td>Sodium [Moles/volume] in Blood</td><td>143.2</td><td>135 - 145</td><td></td><td>mmol/L</td></tr></table></div>"
        },
        "status": "final",
        "subject": {
          "reference": "urn:uuid:3d2c7b38-e842-477d-8755-e521d88e50a5",
          "display": "Lydia Ward"
        },
        "effectiveDateTime": "2021-02-12T23:08:09Z",
        "specimen": {
          "reference": "urn:uuid:659e4dc1-46b7-4020-8e1c-166e4dc84337"
        }
      }
    },
    {
      "fullUrl": "urn:uuid:666c26ff-f206-4d08-8f5d-ec4615844b7f",
      "resource": {
        "resourceType": "Observation",
        "id": "666c26ff-f206-4d08-8f5d-ec4615844b7f",
        "meta": {
          "profile": [
            "http://hl7.eu/fhir/laboratory/StructureDefinition/Observation-resultslab-eu-lab"
          ]
        },
        "performer": [
          {
            "display": "The Central European Lab"
          }
        ],
        "category": [
          {
            "coding": [
              {
                "system": "http://terminology.hl7.org/CodeSystem/observation-category",
                "code": "laboratory"
              }
            ]
          }
        ],
        "code": {
          "coding": [
            {
              "code": "6298-4",
              "system": "http://loinc.org",
              "display": "Potassium [Moles/volume] in Blood"
            }
          ],
          "text": "Potassium [Moles/volume] in Blood"
        },
        "valueQuantity": {
          "system": "http://unitsofmeasure.org",
          "value": 4.8,
          "unit": "mmol/L",
          "code": "mmol/L"
        },
        "referenceRange": [
          {
            "low": {
              "value": 3.5,
              "code": "mmol/L",
              "system": "http://unitsofmeasure.org"
            }
          },
          {
            "high": {
              "value": 5.1,
              "code": "mmol/L",
              "system": "http://unitsofmeasure.org"
            }
          }
        ],
        "text": {
          "status": "generated",
          "div": "<div xmlns=\"http://www.w3.org/1999/xhtml\"><table class=\"hl7__eu__lab__report\"><tr><th>Test</th><th>13-Feb-2021</th><th>Reference&#xA0;Range</th><th>Unit</th></tr><tr><td>Potassium [Moles/volume] in Blood</td><td>4.8</td><td>3.5 - 5.1</td><td></td><td>mmol/L</td></tr></table></div>"
        },
        "status": "final",
        "subject": {
          "reference": "urn:uuid:3d2c7b38-e842-477d-8755-e521d88e50a5",
          "display": "Lydia Ward"
        },
        "effectiveDateTime": "2021-02-12T23:08:09Z",
        "specimen": {
          "reference": "urn:uuid:659e4dc1-46b7-4020-8e1c-166e4dc84337"
        }
      }
    },
    {
      "fullUrl": "urn:uuid:7acb6a7d-60ef-49f7-843f-519487aafff6",
      "resource": {
        "resourceType": "Observation",
        "id": "7acb6a7d-60ef-49f7-843f-519487aafff6",
        "meta": {
          "profile": [
            "http://hl7.eu/fhir/laboratory/StructureDefinition/Observation-resultslab-eu-lab"
          ]
        },
        "performer": [
          {
            "display": "The Central European Lab"
          }
        ],
        "category": [
          {
            "coding": [
              {
                "system": "http://terminology.hl7.org/CodeSystem/observation-category",
                "code": "laboratory"
              }
            ]
          }
        ],
        "code": {
          "coding": [
            {
              "code": "2069-3",
              "system": "http://loinc.org",
              "display": "Chloride [Moles/volume] in Blood"
            }
          ],
          "text": "Chloride [Moles/volume] in Blood"
        },
        "valueQuantity": {
          "system": "http://unitsofmeasure.org",
          "value": 107.7,
          "unit": "mmol/L",
          "code": "mmol/L"
        },
        "referenceRange": [
          {
            "low": {
              "value": 98,
              "code": "mmol/L",
              "system": "http://unitsofmeasure.org"
            }
          },
          {
            "high": {
              "value": 107,
              "code": "mmol/L",
              "system": "http://unitsofmeasure.org"
            }
          }
        ],
        "interpretation": [
          {
            "coding": [
              {
                "code": "H",
                "system": "http://terminology.hl7.org/CodeSystem/v3-ObservationInterpretation",
                "display": "High"
              }
            ]
          }
        ],
        "text": {
          "status": "generated",
          "div": "<div xmlns=\"http://www.w3.org/1999/xhtml\"><table class=\"hl7__eu__lab__report\"><tr><th>Test</th><th>13-Feb-2021</th><th>Reference&#xA0;Range</th><th>Unit</th></tr><tr><td>Chloride [Moles/volume] in Blood</td><td>107.7</td><td>98 - 107</td><td>H</td><td>mmol/L</td></tr></table></div>"
        },
        "status": "final",
        "subject": {
          "reference": "urn:uuid:3d2c7b38-e842-477d-8755-e521d88e50a5",
          "display": "Lydia Ward"
        },
        "effectiveDateTime": "2021-02-12T23:08:09Z",
        "specimen": {
          "reference": "urn:uuid:659e4dc1-46b7-4020-8e1c-166e4dc84337"
        }
      }
    },
    {
      "fullUrl": "urn:uuid:6955a4a8-9715-4dc2-9cba-d0814bb44e7e",
      "resource": {
        "resourceType": "Observation",
        "id": "6955a4a8-9715-4dc2-9cba-d0814bb44e7e",
        "meta": {
          "profile": [
            "http://hl7.eu/fhir/laboratory/StructureDefinition/Observation-resultslab-eu-lab"
          ]
        },
        "performer": [
          {
            "display": "The Central European Lab"
          }
        ],
        "category": [
          {
            "coding": [
              {
                "system": "http://terminology.hl7.org/CodeSystem/observation-category",
                "code": "laboratory"
              }
            ]
          }
        ],
        "code": {
          "coding": [
            {
              "code": "20565-8",
              "system": "http://loinc.org",
              "display": "Carbon dioxide, total [Moles/volume] in Blood"
            }
          ],
          "text": "Carbon dioxide, total [Moles/volume] in Blood"
        },
        "valueQuantity": {
          "system": "http://unitsofmeasure.org",
          "value": 22.7,
          "unit": "mmol/L",
          "code": "mmol/L"
        },
        "referenceRange": [
          {
            "low": {
              "value": 22,
              "code": "mmol/L",
              "system": "http://unitsofmeasure.org"
            }
          },
          {
            "high": {
              "value": 32,
              "code": "mmol/L",
              "system": "http://unitsofmeasure.org"
            }
          }
        ],
        "text": {
          "status": "generated",
          "div": "<div xmlns=\"http://www.w3.org/1999/xhtml\"><table class=\"hl7__eu__lab__report\"><tr><th>Test</th><th>13-Feb-2021</th><th>Reference&#xA0;Range</th><th>Unit</th></tr><tr><td>Carbon dioxide, total [Moles/volume] in Blood</td><td>22.7</td><td>22 - 32</td><td></td><td>mmol/L</td></tr></table></div>"
        },
        "status": "final",
        "subject": {
          "reference": "urn:uuid:3d2c7b38-e842-477d-8755-e521d88e50a5",
          "display": "Lydia Ward"
        },
        "effectiveDateTime": "2021-02-12T23:08:09Z",
        "specimen": {
          "reference": "urn:uuid:659e4dc1-46b7-4020-8e1c-166e4dc84337"
        }
      }
    },
    {
      "fullUrl": "urn:uuid:087566a3-809d-49c3-9f64-5dae4f81499f",
      "resource": {
        "resourceType": "Device",
        "id": "087566a3-809d-49c3-9f64-5dae4f81499f",
        "deviceName": [
          {
            "name": "SYNDERAI Synthetic Generator",
            "type": "manufacturer-name"
          }
        ],
        "version": [
          {
            "value": "5.0"
          }
        ],
        "text": {
          "status": "generated",
          "div": "<div xmlns=\"http://www.w3.org/1999/xhtml\">SYNDERAI Synthetic Generator v5.0</div>"
        },
        "status": "active\"",
        "distinctIdentifier": "synderai-generator-50",
        "manufacturer": "SYNDERAI Project"
      }
    },
    {
      "fullUrl": "urn:uuid:436960dd-2c0e-4e12-b468-105304b5872e",
      "resource": {
        "resourceType": "Provenance",
        "id": "436960dd-2c0e-4e12-b468-105304b5872e",
        "target": [
          {
            "reference": "Patient/3d2c7b38-e842-477d-8755-e521d88e50a5"
          },
          {
            "reference": "Bundle/cf06fcc9-9770-4cf4-91d0-8b99719102f5"
          },
          {
            "reference": "Composition/71540079-f049-4662-a800-be33cb5af49d"
          },
          {
            "reference": "PractitionerRole/b1852c33-17b3-40c8-9df7-27626d53eac3"
          },
          {
            "reference": "Practitioner/779b6709-24f7-4baa-a486-a2fa1dec4fb7"
          },
          {
            "reference": "PractitionerRole/11404c6a-2f52-400d-8bdc-b25d506ec1b1"
          },
          {
            "reference": "Organization/91511c19-aae0-4eee-8a24-b7dfbdabac52"
          }
        ],
        "activity": {
          "text": "Synthetic Example Data Generation"
        },
        "policy": [
          "https://synderai.net/synderai-synthetic-data-policy"
        ],
        "agent": [
          {
            "type": {
              "text": "author"
            },
            "who": {
              "reference": "Device/087566a3-809d-49c3-9f64-5dae4f81499f"
            }
          }
        ],
        "reason": [
          {
            "text": "Interoperability Testing and Training (non-clinical use)"
          }
        ],
        "text": {
          "status": "generated",
          "div": "<div xmlns=\"http://www.w3.org/1999/xhtml\">Provenance for SYNDERAI Synthetic Example Data Resource</div>"
        },
        "recorded": "2021-02-13T00:08:09Z"
      }
    },
    {
      "fullUrl": "urn:uuid:b1852c33-17b3-40c8-9df7-27626d53eac3",
      "resource": {
        "resourceType": "PractitionerRole",
        "id": "b1852c33-17b3-40c8-9df7-27626d53eac3",
        "meta": {
          "profile": [
            "http://hl7.eu/fhir/base/StructureDefinition/practitionerRole-eu"
          ]
        },
        "text": {
          "status": "generated",
          "div": "<div xmlns=\"http://www.w3.org/1999/xhtml\">Laboratory Role Id: b1852c33-17b3-40c8-9df7-27626d53eac3</div>"
        },
        "practitioner": {
          "reference": "urn:uuid:779b6709-24f7-4baa-a486-a2fa1dec4fb7"
        }
      }
    },
    {
      "fullUrl": "urn:uuid:779b6709-24f7-4baa-a486-a2fa1dec4fb7",
      "resource": {
        "resourceType": "Practitioner",
        "id": "779b6709-24f7-4baa-a486-a2fa1dec4fb7",
        "meta": {
          "profile": [
            "http://hl7.eu/fhir/base/StructureDefinition/practitioner-eu"
          ]
        },
        "identifier": [
          {
            "assigner": {
              "display": "HL7 Europe"
            },
            "system": "urn:oid:2.16.840.1.113883.2.51.999",
            "value": "1c89f9d7-a120-4bf3-8b6d-fabdbdf6b7a1"
          }
        ],
        "name": [
          {
            "prefix": [
              "dr"
            ],
            "given": [
              "Ex"
            ],
            "family": "Ample"
          }
        ],
        "address": [
          {
            "line": [
              "Laboratoire Central Européenne",
              "Boulevard du Jardin Botanique 32"
            ],
            "postalCode": "1000",
            "city": "Brussels",
            "country": "Belgium"
          }
        ],
        "text": {
          "status": "generated",
          "div": "<div xmlns=\"http://www.w3.org/1999/xhtml\">Laboratory: Laboratoire Central Européenne, 1000 Brussels, Belgium</div>"
        }
      }
    }
  ],
  "type": "document",
  "timestamp": "2021-02-13T00:08:09Z"
}
