{
  "resourceType": "Bundle",
  "id": "080e318c-efff-414b-8d50-c79219f496ac",
  "meta": {
    "profile": [
      "http://hl7.eu/fhir/laboratory/StructureDefinition/Bundle-eu-lab"
    ]
  },
  "identifier": {
    "assigner": {
      "display": "HL7 Europe"
    },
    "system": "urn:oid:2.16.840.1.113883.2.51.999",
    "value": "941eec8e-4246-4a3f-8c9f-32de8cb05af5"
  },
  "entry": [
    {
      "fullUrl": "urn:uuid:5e5f7d91-8d02-4d1c-ac39-f9c2826b522c",
      "resource": {
        "resourceType": "Composition",
        "id": "5e5f7d91-8d02-4d1c-ac39-f9c2826b522c",
        "meta": {
          "profile": [
            "http://hl7.eu/fhir/laboratory/StructureDefinition/Composition-eu-lab"
          ]
        },
        "identifier": {
          "assigner": {
            "display": "HL7 Europe"
          },
          "system": "urn:oid:2.16.840.1.113883.2.51.999",
          "value": "0210900e-b433-4193-bba0-78ce5924f931"
        },
        "author": [
          {
            "reference": "urn:uuid:b3fc092e-abed-488a-868a-4c603011885c"
          }
        ],
        "category": [
          {
            "coding": [
              {
                "code": "26436-6",
                "system": "http://loinc.org",
                "display": "Laboratory studies (set)"
              }
            ]
          }
        ],
        "type": {
          "coding": [
            {
              "code": "11502-2",
              "system": "http://loinc.org",
              "display": "Laboratory report"
            }
          ],
          "text": "Laboratory Report"
        },
        "section": [
          {
            "code": {
              "coding": [
                {
                  "code": "26436-6",
                  "system": "http://loinc.org",
                  "display": "Laboratory studies (set)"
                }
              ],
              "text": "Laboratory studies"
            },
            "section": [
              {
                "code": {
                  "coding": [
                    {
                      "code": "$18719-5",
                      "system": "http://loinc.org",
                      "display": "Chemistry studies (set)"
                    }
                  ],
                  "text": "Chemistry"
                },
                "entry": [
                  {
                    "reference": "urn:uuid:1f8ac6fb-b437-441b-b014-c90de86a48be"
                  },
                  {
                    "reference": "urn:uuid:f9014f96-840c-4c51-bb66-f60d8bc392f9"
                  },
                  {
                    "reference": "urn:uuid:38b7dbae-bba8-4a41-b784-a66fbe531293"
                  },
                  {
                    "reference": "urn:uuid:84a4a3a6-cd52-4ef2-b015-da1c5802edfb"
                  },
                  {
                    "reference": "urn:uuid:be423b00-ae19-4320-aff9-64960cf1039c"
                  },
                  {
                    "reference": "urn:uuid:3f5b6641-f7fc-4311-a48a-fe96e349438f"
                  },
                  {
                    "reference": "urn:uuid:b84d1764-387f-4389-aa35-892f02eaeaf8"
                  },
                  {
                    "reference": "urn:uuid:7ed63fc6-fb51-4be6-9b05-182c6d146977"
                  },
                  {
                    "reference": "urn:uuid:315e6542-a227-4312-9f37-99ec33123fbf"
                  },
                  {
                    "reference": "urn:uuid:5d39e93b-fdcb-4cb7-9b2f-21140b06e1cf"
                  },
                  {
                    "reference": "urn:uuid:8f403db4-a492-47c4-b0e0-2b23d37f58a4"
                  },
                  {
                    "reference": "urn:uuid:16445238-48f2-4b06-bf3f-14f631554ed4"
                  },
                  {
                    "reference": "urn:uuid:9ab99dc5-549f-4b5b-8e40-4205114900a5"
                  },
                  {
                    "reference": "urn:uuid:8d6e2418-22bf-402a-97e1-1bd4be673d14"
                  },
                  {
                    "reference": "urn:uuid:8f3e3c2b-0472-46a0-9728-a15959344c63"
                  },
                  {
                    "reference": "urn:uuid:031430c6-4baf-4b99-b9cb-7b92c7165f14"
                  },
                  {
                    "reference": "urn:uuid:b9930474-7b3e-49cd-9cc8-0fbe0d2d8010"
                  },
                  {
                    "reference": "urn:uuid:d6e7cac4-6db0-4bf6-8b62-0757a1e615d4"
                  },
                  {
                    "reference": "urn:uuid:7558d444-5a11-4f4c-958f-c27f3b1ed78a"
                  }
                ],
                "text": {
                  "status": "generated",
                  "div": "<div xmlns=\"http://www.w3.org/1999/xhtml\"><h3>Chemistry</h3><table class=\"hl7__eu__lab__report\"><thead><tr><th>Test</th><th>18-MAR-2018</th><th>Reference&#xA0;Range</th><th>Unit</th></tr></thead><tbody><tr><td>Glucose [Mass/volume] in Blood</td><td>92.7</td><td>70 - 140</td><td>mg/dL</td></tr><tr><td>Urea nitrogen [Mass/volume] in Blood</td><td>15.2</td><td>7 - 20</td><td>mg/dL</td></tr><tr><td>Creatinine [Mass/volume] in Blood</td><td><strong>3.3 H</strong></td><td>0.5 - 1.3</td><td>mg/dL</td></tr><tr><td>Calcium [Mass/volume] in Blood</td><td>9.7</td><td>8.5 - 10.5</td><td>mg/dL</td></tr><tr><td>Sodium [Moles/volume] in Blood</td><td>141.6</td><td>135 - 145</td><td>mmol/L</td></tr><tr><td>Potassium [Moles/volume] in Blood</td><td>4.8</td><td>3.5 - 5.1</td><td>mmol/L</td></tr><tr><td>Chloride [Moles/volume] in Blood</td><td><strong>109.1 H</strong></td><td>98 - 108</td><td>mmol/L</td></tr><tr><td>Carbon dioxide, total [Moles/volume] in Blood</td><td>28.0</td><td>22 - 29</td><td>mmol/L</td></tr><tr><td>Protein [Mass/volume] in Serum or Plasma</td><td>6.2</td><td>6 - 8.2</td><td>g/dL</td></tr><tr><td>Albumin [Mass/volume] in Serum or Plasma</td><td>3.8</td><td>3.5 - 5</td><td>g/dL</td></tr><tr><td>Globulin [Mass/volume] in Serum by calculation</td><td>2.9</td><td>2 - 4</td><td>g/L</td></tr><tr><td>Bilirubin.total [Mass/volume] in Serum or Plasma</td><td>0.4</td><td>0.3 - 1.2</td><td>mg/dL</td></tr><tr><td>Alkaline phosphatase [Enzymatic activity/volume] in Serum or Plasma</td><td>66.1</td><td>35 - 141</td><td>U/L</td></tr><tr><td>Alanine aminotransferase [Enzymatic activity/volume] in Serum or Plasma</td><td>41.2</td><td>7 - 60</td><td>U/L</td></tr><tr><td>Aspartate aminotransferase [Enzymatic activity/volume] in Serum or Plasma</td><td>10.6</td><td>10 - 40</td><td>U/L</td></tr><tr><td>Cholesterol [Mass/volume] in Serum or Plasma</td><td><strong>202.9 H</strong></td><td>0 - 200</td><td>mg/dL</td></tr><tr><td>Triglyceride [Mass/volume] in Serum or Plasma</td><td>129.2</td><td>0 - 199</td><td>mg/dL</td></tr><tr><td>Cholesterol in LDL [Mass/volume] in Serum or Plasma by Direct assay</td><td>93.5</td><td>0 - 130</td><td>mg/dL</td></tr><tr><td>Cholesterol in HDL [Mass/volume] in Serum or Plasma</td><td><strong>45.8 L</strong></td><td>46 - 77</td><td>mg/dL</td></tr></tbody></table></div>"
                },
                "title": "Chemistry"
              }
            ],
            "title": "Laboratory Report"
          },
          {
            "text": {
              "status": "generated",
              "div": "<div xmlns=\"http://www.w3.org/1999/xhtml\"><h3>Annotation</h3><table class=\"hl7__eu__lab__report\"><tr><th>Conclusion and Recommendations based on this report and previous findings known to us</th></tr><tr><td>The patient shows significantly elevated creatinine, suggesting impaired renal function, and mild hyperchloremia. Cholesterol is slightly elevated with low HDL, indicating increased cardiovascular risk. Other parameters, including glucose, liver enzymes, electrolytes, and proteins, are within normal limits. Renal function and lipid profile should be closely monitored and managed as appropriate.</td></tr></table></div>"
            },
            "code": {
              "coding": [
                {
                  "system": "http://loinc.org",
                  "code": "48767-8",
                  "display": "Annotation comment"
                }
              ]
            },
            "title": "Annotation comment"
          }
        ],
        "status": "final",
        "subject": {
          "reference": "urn:uuid:8928d3d2-9831-4ca3-ae09-e2280912f8aa",
          "display": "Marlene Gerlach"
        },
        "date": "2018-03-18T20:24:33Z",
        "title": "Laboratory Report",
        "confidentiality": "N"
      }
    },
    {
      "fullUrl": "urn:uuid:ec6df41c-0854-4722-b534-09aaacee7f14",
      "resource": {
        "resourceType": "DiagnosticReport",
        "id": "ec6df41c-0854-4722-b534-09aaacee7f14",
        "meta": {
          "profile": [
            "http://hl7.eu/fhir/laboratory/StructureDefinition/DiagnosticReport-eu-lab"
          ]
        },
        "identifier": [
          {
            "assigner": {
              "display": "HL7 Europe"
            },
            "system": "urn:oid:2.16.840.1.113883.2.51.999",
            "value": "b807053a-38a0-4b9b-876a-ce5dc9e31906"
          }
        ],
        "extension": [
          {
            "url": "http://hl7.org/fhir/5.0/StructureDefinition/extension-DiagnosticReport.composition",
            "valueReference": {
              "reference": "urn:uuid:0210900e-b433-4193-bba0-78ce5924f931"
            }
          }
        ],
        "category": [
          {
            "coding": [
              {
                "code": "26436-6",
                "system": "http://loinc.org",
                "display": "Laboratory studies (set)"
              }
            ]
          }
        ],
        "specimen": [
          {
            "reference": "urn:uuid:41df6ba5-57cc-4447-9dce-32dc4127b200"
          },
          {
            "reference": "urn:uuid:ac431790-501f-4029-8dd4-3652c9e211a0"
          },
          {
            "reference": "urn:uuid:90d9a449-6b5d-4b49-957d-1bcde4cc957e"
          }
        ],
        "result": [
          {
            "reference": "urn:uuid:1f8ac6fb-b437-441b-b014-c90de86a48be"
          },
          {
            "reference": "urn:uuid:f9014f96-840c-4c51-bb66-f60d8bc392f9"
          },
          {
            "reference": "urn:uuid:38b7dbae-bba8-4a41-b784-a66fbe531293"
          },
          {
            "reference": "urn:uuid:84a4a3a6-cd52-4ef2-b015-da1c5802edfb"
          },
          {
            "reference": "urn:uuid:be423b00-ae19-4320-aff9-64960cf1039c"
          },
          {
            "reference": "urn:uuid:3f5b6641-f7fc-4311-a48a-fe96e349438f"
          },
          {
            "reference": "urn:uuid:b84d1764-387f-4389-aa35-892f02eaeaf8"
          },
          {
            "reference": "urn:uuid:7ed63fc6-fb51-4be6-9b05-182c6d146977"
          },
          {
            "reference": "urn:uuid:315e6542-a227-4312-9f37-99ec33123fbf"
          },
          {
            "reference": "urn:uuid:5d39e93b-fdcb-4cb7-9b2f-21140b06e1cf"
          },
          {
            "reference": "urn:uuid:8f403db4-a492-47c4-b0e0-2b23d37f58a4"
          },
          {
            "reference": "urn:uuid:16445238-48f2-4b06-bf3f-14f631554ed4"
          },
          {
            "reference": "urn:uuid:9ab99dc5-549f-4b5b-8e40-4205114900a5"
          },
          {
            "reference": "urn:uuid:8d6e2418-22bf-402a-97e1-1bd4be673d14"
          },
          {
            "reference": "urn:uuid:8f3e3c2b-0472-46a0-9728-a15959344c63"
          },
          {
            "reference": "urn:uuid:031430c6-4baf-4b99-b9cb-7b92c7165f14"
          },
          {
            "reference": "urn:uuid:b9930474-7b3e-49cd-9cc8-0fbe0d2d8010"
          },
          {
            "reference": "urn:uuid:d6e7cac4-6db0-4bf6-8b62-0757a1e615d4"
          },
          {
            "reference": "urn:uuid:7558d444-5a11-4f4c-958f-c27f3b1ed78a"
          }
        ],
        "status": "registered",
        "code": {
          "coding": [
            {
              "code": "11502-2",
              "system": "http://loinc.org",
              "display": "Laboratory report"
            }
          ]
        },
        "subject": {
          "reference": "urn:uuid:8928d3d2-9831-4ca3-ae09-e2280912f8aa",
          "display": "Marlene Gerlach"
        }
      }
    },
    {
      "fullUrl": "urn:uuid:8928d3d2-9831-4ca3-ae09-e2280912f8aa",
      "resource": {
        "resourceType": "Patient",
        "id": "8928d3d2-9831-4ca3-ae09-e2280912f8aa",
        "meta": {
          "security": [
            {
              "system": "http://terminology.hl7.org/CodeSystem/v3-ActReason",
              "code": "HTEST"
            },
            {
              "system": "http://terminology.hl7.org/CodeSystem/v3-ActReason",
              "code": "TRAIN"
            }
          ],
          "tag": [
            {
              "system": "https://synderai.net/fhir/CodeSystem/tags",
              "code": "synthetic",
              "display": "SYNDERAI Synthetic data"
            }
          ],
          "profile": [
            "http://hl7.eu/fhir/base/StructureDefinition/patient-eu-core"
          ]
        },
        "identifier": [
          {
            "type": {
              "coding": [
                {
                  "code": "PT",
                  "system": "http://terminology.hl7.org/CodeSystem/v2-0203"
                }
              ]
            },
            "system": "http://ec.europa.eu/identifier/eci",
            "value": "4536-398571-9"
          },
          {
            "type": {
              "coding": [
                {
                  "code": "MR",
                  "system": "http://terminology.hl7.org/CodeSystem/v2-0203"
                }
              ]
            },
            "system": "http://local.setting.eu/identifier",
            "value": "ff7a4ff6-4bac-f07f-03c9-b91b1e1cfb23"
          }
        ],
        "name": [
          {
            "family": "Gerlach"
          },
          {
            "given": [
              "Marlene"
            ]
          },
          {
            "text": "Marlene Gerlach"
          }
        ],
        "address": [
          {
            "line": [
              "Etzlerplatz 57-53"
            ],
            "use": "home",
            "type": "physical",
            "postalCode": "71522",
            "city": "Backnang",
            "country": "Germany"
          }
        ],
        "telecom": [
          {
            "system": "phone",
            "value": "+49(0)2700 61724"
          }
        ],
        "extension": [
          {
            "url": "http://hl7.org/fhir/StructureDefinition/patient-nationality",
            "valueCodeableConcept": {
              "coding": [
                {
                  "code": "DE",
                  "system": "http://hl7.org/fhir/ValueSet/country"
                }
              ]
            }
          }
        ],
        "text": {
          "status": "generated",
          "div": "<div xmlns=\"http://www.w3.org/1999/xhtml\"><table class=\"hl7__ips\"><tr><td>Marlene Gerlach</td><td>female</td><td>28-Aug-1939</td></tr></table></div>"
        },
        "gender": "female",
        "birthDate": "1939-08-28"
      }
    },
    {
      "fullUrl": "urn:uuid:4b03e783-360f-4c57-a9cf-75b0ae7a87e8",
      "resource": {
        "resourceType": "ServiceRequest",
        "id": "4b03e783-360f-4c57-a9cf-75b0ae7a87e8",
        "meta": {
          "profile": [
            "http://hl7.eu/fhir/laboratory/StructureDefinition/ServiceRequest-eu-lab"
          ]
        },
        "identifier": [
          {
            "system": "http://example.org",
            "value": "94e1751d-7664-4a6f-b555-43db70044efd"
          }
        ],
        "specimen": [
          {
            "reference": "urn:uuid:41df6ba5-57cc-4447-9dce-32dc4127b200"
          },
          {
            "reference": "urn:uuid:ac431790-501f-4029-8dd4-3652c9e211a0"
          },
          {
            "reference": "urn:uuid:90d9a449-6b5d-4b49-957d-1bcde4cc957e"
          }
        ],
        "reasonCode": [
          {
            "coding": [
              {
                "code": "55822004",
                "system": "http://snomed.info/sct",
                "display": "Hyperlipidemia"
              }
            ]
          },
          {
            "coding": [
              {
                "code": "414545008",
                "system": "http://snomed.info/sct",
                "display": "Ischemic heart disease"
              }
            ]
          },
          {
            "coding": [
              {
                "code": "157141000119108",
                "system": "http://snomed.info/sct",
                "display": "Proteinuria due to type 2 diabetes mellitus"
              }
            ]
          },
          {
            "coding": [
              {
                "code": "90781000119102",
                "system": "http://snomed.info/sct",
                "display": "Microalbuminuria due to type 2 diabetes mellitus"
              }
            ]
          },
          {
            "coding": [
              {
                "code": "127013003",
                "system": "http://snomed.info/sct",
                "display": "Disorder of kidney due to diabetes mellitus"
              }
            ]
          },
          {
            "coding": [
              {
                "code": "271737000",
                "system": "http://snomed.info/sct",
                "display": "Anemia"
              }
            ]
          },
          {
            "coding": [
              {
                "code": "15777000",
                "system": "http://snomed.info/sct",
                "display": "Prediabetes"
              }
            ]
          },
          {
            "coding": [
              {
                "code": "59621000",
                "system": "http://snomed.info/sct",
                "display": "Essential hypertension"
              }
            ]
          }
        ],
        "status": "active",
        "intent": "order",
        "code": {
          "coding": [
            {
              "code": "108252007",
              "system": "http://snomed.info/sct",
              "display": "Laboratory procedure"
            }
          ]
        },
        "subject": {
          "reference": "urn:uuid:8928d3d2-9831-4ca3-ae09-e2280912f8aa",
          "display": "Marlene Gerlach"
        },
        "requester": {
          "reference": "urn:uuid:d8371cef-017b-4920-8f29-b941a7803c73"
        }
      }
    },
    {
      "fullUrl": "urn:uuid:d8371cef-017b-4920-8f29-b941a7803c73",
      "resource": {
        "resourceType": "PractitionerRole",
        "id": "d8371cef-017b-4920-8f29-b941a7803c73",
        "meta": {
          "profile": [
            "http://hl7.eu/fhir/base/StructureDefinition/practitionerRole-eu"
          ]
        },
        "text": {
          "status": "generated",
          "div": "<div xmlns=\"http://www.w3.org/1999/xhtml\">Provider Role Id: d8371cef-017b-4920-8f29-b941a7803c73</div>"
        },
        "organization": {
          "reference": "urn:uuid:bb3246ff-ada2-424a-a587-e2cbfd6806d9"
        }
      }
    },
    {
      "fullUrl": "urn:uuid:bb3246ff-ada2-424a-a587-e2cbfd6806d9",
      "resource": {
        "resourceType": "Organization",
        "id": "bb3246ff-ada2-424a-a587-e2cbfd6806d9",
        "meta": {
          "profile": [
            "http://hl7.eu/fhir/base/StructureDefinition/organization-eu"
          ]
        },
        "identifier": [
          {
            "assigner": {
              "display": "HL7 Europe"
            },
            "system": "urn:oid:2.16.840.1.113883.2.51.999",
            "value": "fca4ec66-cb3a-41ea-943c-6bb449e07ce8"
          }
        ],
        "address": [
          {
            "line": [
              "Karl-Krische-Straße 4"
            ],
            "city": "Backnang",
            "postalCode": "71522",
            "country": "Germany"
          }
        ],
        "text": {
          "status": "generated",
          "div": "<div xmlns=\"http://www.w3.org/1999/xhtml\">Provider Organization: Gesundheitszentrum</div>"
        },
        "name": "Gesundheitszentrum"
      }
    },
    {
      "fullUrl": "urn:uuid:41df6ba5-57cc-4447-9dce-32dc4127b200",
      "resource": {
        "resourceType": "Specimen",
        "id": "41df6ba5-57cc-4447-9dce-32dc4127b200",
        "meta": {
          "profile": [
            "http://hl7.eu/fhir/laboratory/StructureDefinition/Specimen-eu-lab"
          ]
        },
        "collection": {
          "collectedDateTime": "2018-03-18"
        },
        "text": {
          "status": "generated",
          "div": "<div xmlns=\"http://www.w3.org/1999/xhtml\"><table class=\"hl7__eu__lab__report\"><tr><th>Specimen</th><th>Collection Date</th></tr><tr><td>Whole blood specimen (specimen)</td><td><span class=\"nb\">18-Mar-2018</span></td></tr></table></div>"
        },
        "type": {
          "coding": [
            {
              "code": "258580003",
              "system": "http://snomed.info/sct",
              "display": "Whole blood specimen (specimen)"
            }
          ]
        }
      }
    },
    {
      "fullUrl": "urn:uuid:ac431790-501f-4029-8dd4-3652c9e211a0",
      "resource": {
        "resourceType": "Specimen",
        "id": "ac431790-501f-4029-8dd4-3652c9e211a0",
        "meta": {
          "profile": [
            "http://hl7.eu/fhir/laboratory/StructureDefinition/Specimen-eu-lab"
          ]
        },
        "collection": {
          "collectedDateTime": "2018-03-18"
        },
        "text": {
          "status": "generated",
          "div": "<div xmlns=\"http://www.w3.org/1999/xhtml\"><table class=\"hl7__eu__lab__report\"><tr><th>Specimen</th><th>Collection Date</th></tr><tr><td>Acellular blood (serum or plasma) specimen</td><td><span class=\"nb\">18-Mar-2018</span></td></tr></table></div>"
        },
        "type": {
          "coding": [
            {
              "code": "122592007",
              "system": "http://snomed.info/sct",
              "display": "Acellular blood (serum or plasma) specimen"
            }
          ]
        }
      }
    },
    {
      "fullUrl": "urn:uuid:90d9a449-6b5d-4b49-957d-1bcde4cc957e",
      "resource": {
        "resourceType": "Specimen",
        "id": "90d9a449-6b5d-4b49-957d-1bcde4cc957e",
        "meta": {
          "profile": [
            "http://hl7.eu/fhir/laboratory/StructureDefinition/Specimen-eu-lab"
          ]
        },
        "collection": {
          "collectedDateTime": "2018-03-18"
        },
        "text": {
          "status": "generated",
          "div": "<div xmlns=\"http://www.w3.org/1999/xhtml\"><table class=\"hl7__eu__lab__report\"><tr><th>Specimen</th><th>Collection Date</th></tr><tr><td>Serum specimen</td><td><span class=\"nb\">18-Mar-2018</span></td></tr></table></div>"
        },
        "type": {
          "coding": [
            {
              "code": "119364003",
              "system": "http://snomed.info/sct",
              "display": "Serum specimen"
            }
          ]
        }
      }
    },
    {
      "fullUrl": "urn:uuid:1f8ac6fb-b437-441b-b014-c90de86a48be",
      "resource": {
        "resourceType": "Observation",
        "id": "1f8ac6fb-b437-441b-b014-c90de86a48be",
        "meta": {
          "profile": [
            "http://hl7.eu/fhir/laboratory/StructureDefinition/Observation-resultslab-eu-lab"
          ]
        },
        "performer": [
          {
            "display": "The Central European Lab"
          }
        ],
        "category": [
          {
            "coding": [
              {
                "system": "http://terminology.hl7.org/CodeSystem/observation-category",
                "code": "laboratory"
              }
            ]
          }
        ],
        "code": {
          "coding": [
            {
              "code": "2339-0",
              "system": "http://loinc.org",
              "display": "Glucose [Mass/volume] in Blood"
            }
          ],
          "text": "Glucose [Mass/volume] in Blood"
        },
        "valueQuantity": {
          "system": "http://unitsofmeasure.org",
          "value": 92.7,
          "unit": "mg/dL",
          "code": "mg/dL"
        },
        "referenceRange": [
          {
            "low": {
              "value": 70,
              "code": "mg/dL",
              "system": "http://unitsofmeasure.org"
            }
          },
          {
            "high": {
              "value": 140,
              "code": "mg/dL",
              "system": "http://unitsofmeasure.org"
            }
          }
        ],
        "text": {
          "status": "generated",
          "div": "<div xmlns=\"http://www.w3.org/1999/xhtml\"><table class=\"hl7__eu__lab__report\"><tr><th>Test</th><th>18-Mar-2018</th><th>Reference&#xA0;Range</th><th>Unit</th></tr><tr><td>Glucose [Mass/volume] in Blood</td><td>92.7</td><td>70 - 140</td><td></td><td>mg/dL</td></tr></table></div>"
        },
        "status": "final",
        "subject": {
          "reference": "urn:uuid:8928d3d2-9831-4ca3-ae09-e2280912f8aa",
          "display": "Marlene Gerlach"
        },
        "effectiveDateTime": "2018-03-18T19:24:33Z",
        "specimen": {
          "reference": "urn:uuid:41df6ba5-57cc-4447-9dce-32dc4127b200"
        }
      }
    },
    {
      "fullUrl": "urn:uuid:f9014f96-840c-4c51-bb66-f60d8bc392f9",
      "resource": {
        "resourceType": "Observation",
        "id": "f9014f96-840c-4c51-bb66-f60d8bc392f9",
        "meta": {
          "profile": [
            "http://hl7.eu/fhir/laboratory/StructureDefinition/Observation-resultslab-eu-lab"
          ]
        },
        "performer": [
          {
            "display": "The Central European Lab"
          }
        ],
        "category": [
          {
            "coding": [
              {
                "system": "http://terminology.hl7.org/CodeSystem/observation-category",
                "code": "laboratory"
              }
            ]
          }
        ],
        "code": {
          "coding": [
            {
              "code": "6299-2",
              "system": "http://loinc.org",
              "display": "Urea nitrogen [Mass/volume] in Blood"
            }
          ],
          "text": "Urea nitrogen [Mass/volume] in Blood"
        },
        "valueQuantity": {
          "system": "http://unitsofmeasure.org",
          "value": 15.2,
          "unit": "mg/dL",
          "code": "mg/dL"
        },
        "referenceRange": [
          {
            "low": {
              "value": 7,
              "code": "mg/dL",
              "system": "http://unitsofmeasure.org"
            }
          },
          {
            "high": {
              "value": 20,
              "code": "mg/dL",
              "system": "http://unitsofmeasure.org"
            }
          }
        ],
        "text": {
          "status": "generated",
          "div": "<div xmlns=\"http://www.w3.org/1999/xhtml\"><table class=\"hl7__eu__lab__report\"><tr><th>Test</th><th>18-Mar-2018</th><th>Reference&#xA0;Range</th><th>Unit</th></tr><tr><td>Urea nitrogen [Mass/volume] in Blood</td><td>15.2</td><td>7 - 20</td><td></td><td>mg/dL</td></tr></table></div>"
        },
        "status": "final",
        "subject": {
          "reference": "urn:uuid:8928d3d2-9831-4ca3-ae09-e2280912f8aa",
          "display": "Marlene Gerlach"
        },
        "effectiveDateTime": "2018-03-18T19:24:33Z",
        "specimen": {
          "reference": "urn:uuid:41df6ba5-57cc-4447-9dce-32dc4127b200"
        }
      }
    },
    {
      "fullUrl": "urn:uuid:38b7dbae-bba8-4a41-b784-a66fbe531293",
      "resource": {
        "resourceType": "Observation",
        "id": "38b7dbae-bba8-4a41-b784-a66fbe531293",
        "meta": {
          "profile": [
            "http://hl7.eu/fhir/laboratory/StructureDefinition/Observation-resultslab-eu-lab"
          ]
        },
        "performer": [
          {
            "display": "The Central European Lab"
          }
        ],
        "category": [
          {
            "coding": [
              {
                "system": "http://terminology.hl7.org/CodeSystem/observation-category",
                "code": "laboratory"
              }
            ]
          }
        ],
        "code": {
          "coding": [
            {
              "code": "38483-4",
              "system": "http://loinc.org",
              "display": "Creatinine [Mass/volume] in Blood"
            }
          ],
          "text": "Creatinine [Mass/volume] in Blood"
        },
        "valueQuantity": {
          "system": "http://unitsofmeasure.org",
          "value": 3.3,
          "unit": "mg/dL",
          "code": "mg/dL"
        },
        "referenceRange": [
          {
            "low": {
              "value": 0.5,
              "code": "mg/dL",
              "system": "http://unitsofmeasure.org"
            }
          },
          {
            "high": {
              "value": 1.3,
              "code": "mg/dL",
              "system": "http://unitsofmeasure.org"
            }
          }
        ],
        "interpretation": [
          {
            "coding": [
              {
                "code": "H",
                "system": "http://terminology.hl7.org/CodeSystem/v3-ObservationInterpretation",
                "display": "High"
              }
            ]
          }
        ],
        "text": {
          "status": "generated",
          "div": "<div xmlns=\"http://www.w3.org/1999/xhtml\"><table class=\"hl7__eu__lab__report\"><tr><th>Test</th><th>18-Mar-2018</th><th>Reference&#xA0;Range</th><th>Unit</th></tr><tr><td>Creatinine [Mass/volume] in Blood</td><td>3.3</td><td>0.5 - 1.3</td><td>H</td><td>mg/dL</td></tr></table></div>"
        },
        "status": "final",
        "subject": {
          "reference": "urn:uuid:8928d3d2-9831-4ca3-ae09-e2280912f8aa",
          "display": "Marlene Gerlach"
        },
        "effectiveDateTime": "2018-03-18T19:24:33Z",
        "specimen": {
          "reference": "urn:uuid:41df6ba5-57cc-4447-9dce-32dc4127b200"
        }
      }
    },
    {
      "fullUrl": "urn:uuid:84a4a3a6-cd52-4ef2-b015-da1c5802edfb",
      "resource": {
        "resourceType": "Observation",
        "id": "84a4a3a6-cd52-4ef2-b015-da1c5802edfb",
        "meta": {
          "profile": [
            "http://hl7.eu/fhir/laboratory/StructureDefinition/Observation-resultslab-eu-lab"
          ]
        },
        "performer": [
          {
            "display": "The Central European Lab"
          }
        ],
        "category": [
          {
            "coding": [
              {
                "system": "http://terminology.hl7.org/CodeSystem/observation-category",
                "code": "laboratory"
              }
            ]
          }
        ],
        "code": {
          "coding": [
            {
              "code": "49765-1",
              "system": "http://loinc.org",
              "display": "Calcium [Mass/volume] in Blood"
            }
          ],
          "text": "Calcium [Mass/volume] in Blood"
        },
        "valueQuantity": {
          "system": "http://unitsofmeasure.org",
          "value": 9.7,
          "unit": "mg/dL",
          "code": "mg/dL"
        },
        "referenceRange": [
          {
            "low": {
              "value": 8.5,
              "code": "mg/dL",
              "system": "http://unitsofmeasure.org"
            }
          },
          {
            "high": {
              "value": 10.5,
              "code": "mg/dL",
              "system": "http://unitsofmeasure.org"
            }
          }
        ],
        "text": {
          "status": "generated",
          "div": "<div xmlns=\"http://www.w3.org/1999/xhtml\"><table class=\"hl7__eu__lab__report\"><tr><th>Test</th><th>18-Mar-2018</th><th>Reference&#xA0;Range</th><th>Unit</th></tr><tr><td>Calcium [Mass/volume] in Blood</td><td>9.7</td><td>8.5 - 10.5</td><td></td><td>mg/dL</td></tr></table></div>"
        },
        "status": "final",
        "subject": {
          "reference": "urn:uuid:8928d3d2-9831-4ca3-ae09-e2280912f8aa",
          "display": "Marlene Gerlach"
        },
        "effectiveDateTime": "2018-03-18T19:24:33Z",
        "specimen": {
          "reference": "urn:uuid:41df6ba5-57cc-4447-9dce-32dc4127b200"
        }
      }
    },
    {
      "fullUrl": "urn:uuid:be423b00-ae19-4320-aff9-64960cf1039c",
      "resource": {
        "resourceType": "Observation",
        "id": "be423b00-ae19-4320-aff9-64960cf1039c",
        "meta": {
          "profile": [
            "http://hl7.eu/fhir/laboratory/StructureDefinition/Observation-resultslab-eu-lab"
          ]
        },
        "performer": [
          {
            "display": "The Central European Lab"
          }
        ],
        "category": [
          {
            "coding": [
              {
                "system": "http://terminology.hl7.org/CodeSystem/observation-category",
                "code": "laboratory"
              }
            ]
          }
        ],
        "code": {
          "coding": [
            {
              "code": "2947-0",
              "system": "http://loinc.org",
              "display": "Sodium [Moles/volume] in Blood"
            }
          ],
          "text": "Sodium [Moles/volume] in Blood"
        },
        "valueQuantity": {
          "system": "http://unitsofmeasure.org",
          "value": 141.6,
          "unit": "mmol/L",
          "code": "mmol/L"
        },
        "referenceRange": [
          {
            "low": {
              "value": 135,
              "code": "mmol/L",
              "system": "http://unitsofmeasure.org"
            }
          },
          {
            "high": {
              "value": 145,
              "code": "mmol/L",
              "system": "http://unitsofmeasure.org"
            }
          }
        ],
        "text": {
          "status": "generated",
          "div": "<div xmlns=\"http://www.w3.org/1999/xhtml\"><table class=\"hl7__eu__lab__report\"><tr><th>Test</th><th>18-Mar-2018</th><th>Reference&#xA0;Range</th><th>Unit</th></tr><tr><td>Sodium [Moles/volume] in Blood</td><td>141.6</td><td>135 - 145</td><td></td><td>mmol/L</td></tr></table></div>"
        },
        "status": "final",
        "subject": {
          "reference": "urn:uuid:8928d3d2-9831-4ca3-ae09-e2280912f8aa",
          "display": "Marlene Gerlach"
        },
        "effectiveDateTime": "2018-03-18T19:24:33Z",
        "specimen": {
          "reference": "urn:uuid:41df6ba5-57cc-4447-9dce-32dc4127b200"
        }
      }
    },
    {
      "fullUrl": "urn:uuid:3f5b6641-f7fc-4311-a48a-fe96e349438f",
      "resource": {
        "resourceType": "Observation",
        "id": "3f5b6641-f7fc-4311-a48a-fe96e349438f",
        "meta": {
          "profile": [
            "http://hl7.eu/fhir/laboratory/StructureDefinition/Observation-resultslab-eu-lab"
          ]
        },
        "performer": [
          {
            "display": "The Central European Lab"
          }
        ],
        "category": [
          {
            "coding": [
              {
                "system": "http://terminology.hl7.org/CodeSystem/observation-category",
                "code": "laboratory"
              }
            ]
          }
        ],
        "code": {
          "coding": [
            {
              "code": "6298-4",
              "system": "http://loinc.org",
              "display": "Potassium [Moles/volume] in Blood"
            }
          ],
          "text": "Potassium [Moles/volume] in Blood"
        },
        "valueQuantity": {
          "system": "http://unitsofmeasure.org",
          "value": 4.8,
          "unit": "mmol/L",
          "code": "mmol/L"
        },
        "referenceRange": [
          {
            "low": {
              "value": 3.5,
              "code": "mmol/L",
              "system": "http://unitsofmeasure.org"
            }
          },
          {
            "high": {
              "value": 5.1,
              "code": "mmol/L",
              "system": "http://unitsofmeasure.org"
            }
          }
        ],
        "text": {
          "status": "generated",
          "div": "<div xmlns=\"http://www.w3.org/1999/xhtml\"><table class=\"hl7__eu__lab__report\"><tr><th>Test</th><th>18-Mar-2018</th><th>Reference&#xA0;Range</th><th>Unit</th></tr><tr><td>Potassium [Moles/volume] in Blood</td><td>4.8</td><td>3.5 - 5.1</td><td></td><td>mmol/L</td></tr></table></div>"
        },
        "status": "final",
        "subject": {
          "reference": "urn:uuid:8928d3d2-9831-4ca3-ae09-e2280912f8aa",
          "display": "Marlene Gerlach"
        },
        "effectiveDateTime": "2018-03-18T19:24:33Z",
        "specimen": {
          "reference": "urn:uuid:41df6ba5-57cc-4447-9dce-32dc4127b200"
        }
      }
    },
    {
      "fullUrl": "urn:uuid:b84d1764-387f-4389-aa35-892f02eaeaf8",
      "resource": {
        "resourceType": "Observation",
        "id": "b84d1764-387f-4389-aa35-892f02eaeaf8",
        "meta": {
          "profile": [
            "http://hl7.eu/fhir/laboratory/StructureDefinition/Observation-resultslab-eu-lab"
          ]
        },
        "performer": [
          {
            "display": "The Central European Lab"
          }
        ],
        "category": [
          {
            "coding": [
              {
                "system": "http://terminology.hl7.org/CodeSystem/observation-category",
                "code": "laboratory"
              }
            ]
          }
        ],
        "code": {
          "coding": [
            {
              "code": "2069-3",
              "system": "http://loinc.org",
              "display": "Chloride [Moles/volume] in Blood"
            }
          ],
          "text": "Chloride [Moles/volume] in Blood"
        },
        "valueQuantity": {
          "system": "http://unitsofmeasure.org",
          "value": 109.1,
          "unit": "mmol/L",
          "code": "mmol/L"
        },
        "referenceRange": [
          {
            "low": {
              "value": 98,
              "code": "mmol/L",
              "system": "http://unitsofmeasure.org"
            }
          },
          {
            "high": {
              "value": 108,
              "code": "mmol/L",
              "system": "http://unitsofmeasure.org"
            }
          }
        ],
        "interpretation": [
          {
            "coding": [
              {
                "code": "H",
                "system": "http://terminology.hl7.org/CodeSystem/v3-ObservationInterpretation",
                "display": "High"
              }
            ]
          }
        ],
        "text": {
          "status": "generated",
          "div": "<div xmlns=\"http://www.w3.org/1999/xhtml\"><table class=\"hl7__eu__lab__report\"><tr><th>Test</th><th>18-Mar-2018</th><th>Reference&#xA0;Range</th><th>Unit</th></tr><tr><td>Chloride [Moles/volume] in Blood</td><td>109.1</td><td>98 - 108</td><td>H</td><td>mmol/L</td></tr></table></div>"
        },
        "status": "final",
        "subject": {
          "reference": "urn:uuid:8928d3d2-9831-4ca3-ae09-e2280912f8aa",
          "display": "Marlene Gerlach"
        },
        "effectiveDateTime": "2018-03-18T19:24:33Z",
        "specimen": {
          "reference": "urn:uuid:41df6ba5-57cc-4447-9dce-32dc4127b200"
        }
      }
    },
    {
      "fullUrl": "urn:uuid:7ed63fc6-fb51-4be6-9b05-182c6d146977",
      "resource": {
        "resourceType": "Observation",
        "id": "7ed63fc6-fb51-4be6-9b05-182c6d146977",
        "meta": {
          "profile": [
            "http://hl7.eu/fhir/laboratory/StructureDefinition/Observation-resultslab-eu-lab"
          ]
        },
        "performer": [
          {
            "display": "The Central European Lab"
          }
        ],
        "category": [
          {
            "coding": [
              {
                "system": "http://terminology.hl7.org/CodeSystem/observation-category",
                "code": "laboratory"
              }
            ]
          }
        ],
        "code": {
          "coding": [
            {
              "code": "20565-8",
              "system": "http://loinc.org",
              "display": "Carbon dioxide, total [Moles/volume] in Blood"
            }
          ],
          "text": "Carbon dioxide, total [Moles/volume] in Blood"
        },
        "valueQuantity": {
          "system": "http://unitsofmeasure.org",
          "value": 28,
          "unit": "mmol/L",
          "code": "mmol/L"
        },
        "referenceRange": [
          {
            "low": {
              "value": 22,
              "code": "mmol/L",
              "system": "http://unitsofmeasure.org"
            }
          },
          {
            "high": {
              "value": 29,
              "code": "mmol/L",
              "system": "http://unitsofmeasure.org"
            }
          }
        ],
        "text": {
          "status": "generated",
          "div": "<div xmlns=\"http://www.w3.org/1999/xhtml\"><table class=\"hl7__eu__lab__report\"><tr><th>Test</th><th>18-Mar-2018</th><th>Reference&#xA0;Range</th><th>Unit</th></tr><tr><td>Carbon dioxide, total [Moles/volume] in Blood</td><td>28.0</td><td>22 - 29</td><td></td><td>mmol/L</td></tr></table></div>"
        },
        "status": "final",
        "subject": {
          "reference": "urn:uuid:8928d3d2-9831-4ca3-ae09-e2280912f8aa",
          "display": "Marlene Gerlach"
        },
        "effectiveDateTime": "2018-03-18T19:24:33Z",
        "specimen": {
          "reference": "urn:uuid:41df6ba5-57cc-4447-9dce-32dc4127b200"
        }
      }
    },
    {
      "fullUrl": "urn:uuid:315e6542-a227-4312-9f37-99ec33123fbf",
      "resource": {
        "resourceType": "Observation",
        "id": "315e6542-a227-4312-9f37-99ec33123fbf",
        "meta": {
          "profile": [
            "http://hl7.eu/fhir/laboratory/StructureDefinition/Observation-resultslab-eu-lab"
          ]
        },
        "performer": [
          {
            "display": "The Central European Lab"
          }
        ],
        "category": [
          {
            "coding": [
              {
                "system": "http://terminology.hl7.org/CodeSystem/observation-category",
                "code": "laboratory"
              }
            ]
          }
        ],
        "code": {
          "coding": [
            {
              "code": "2885-2",
              "system": "http://loinc.org",
              "display": "Protein [Mass/volume] in Serum or Plasma"
            }
          ],
          "text": "Protein [Mass/volume] in Serum or Plasma"
        },
        "valueQuantity": {
          "system": "http://unitsofmeasure.org",
          "value": 6.2,
          "unit": "g/dL",
          "code": "g/dL"
        },
        "referenceRange": [
          {
            "low": {
              "value": 6,
              "code": "g/dL",
              "system": "http://unitsofmeasure.org"
            }
          },
          {
            "high": {
              "value": 8.2,
              "code": "g/dL",
              "system": "http://unitsofmeasure.org"
            }
          }
        ],
        "text": {
          "status": "generated",
          "div": "<div xmlns=\"http://www.w3.org/1999/xhtml\"><table class=\"hl7__eu__lab__report\"><tr><th>Test</th><th>18-Mar-2018</th><th>Reference&#xA0;Range</th><th>Unit</th></tr><tr><td>Protein [Mass/volume] in Serum or Plasma</td><td>6.2</td><td>6 - 8.2</td><td></td><td>g/dL</td></tr></table></div>"
        },
        "status": "final",
        "subject": {
          "reference": "urn:uuid:8928d3d2-9831-4ca3-ae09-e2280912f8aa",
          "display": "Marlene Gerlach"
        },
        "effectiveDateTime": "2018-03-18T19:24:33Z",
        "specimen": {
          "reference": "urn:uuid:ac431790-501f-4029-8dd4-3652c9e211a0"
        }
      }
    },
    {
      "fullUrl": "urn:uuid:5d39e93b-fdcb-4cb7-9b2f-21140b06e1cf",
      "resource": {
        "resourceType": "Observation",
        "id": "5d39e93b-fdcb-4cb7-9b2f-21140b06e1cf",
        "meta": {
          "profile": [
            "http://hl7.eu/fhir/laboratory/StructureDefinition/Observation-resultslab-eu-lab"
          ]
        },
        "performer": [
          {
            "display": "The Central European Lab"
          }
        ],
        "category": [
          {
            "coding": [
              {
                "system": "http://terminology.hl7.org/CodeSystem/observation-category",
                "code": "laboratory"
              }
            ]
          }
        ],
        "code": {
          "coding": [
            {
              "code": "1751-7",
              "system": "http://loinc.org",
              "display": "Albumin [Mass/volume] in Serum or Plasma"
            }
          ],
          "text": "Albumin [Mass/volume] in Serum or Plasma"
        },
        "valueQuantity": {
          "system": "http://unitsofmeasure.org",
          "value": 3.8,
          "unit": "g/dL",
          "code": "g/dL"
        },
        "referenceRange": [
          {
            "low": {
              "value": 3.5,
              "code": "g/dL",
              "system": "http://unitsofmeasure.org"
            }
          },
          {
            "high": {
              "value": 5,
              "code": "g/dL",
              "system": "http://unitsofmeasure.org"
            }
          }
        ],
        "text": {
          "status": "generated",
          "div": "<div xmlns=\"http://www.w3.org/1999/xhtml\"><table class=\"hl7__eu__lab__report\"><tr><th>Test</th><th>18-Mar-2018</th><th>Reference&#xA0;Range</th><th>Unit</th></tr><tr><td>Albumin [Mass/volume] in Serum or Plasma</td><td>3.8</td><td>3.5 - 5</td><td></td><td>g/dL</td></tr></table></div>"
        },
        "status": "final",
        "subject": {
          "reference": "urn:uuid:8928d3d2-9831-4ca3-ae09-e2280912f8aa",
          "display": "Marlene Gerlach"
        },
        "effectiveDateTime": "2018-03-18T19:24:33Z",
        "specimen": {
          "reference": "urn:uuid:ac431790-501f-4029-8dd4-3652c9e211a0"
        }
      }
    },
    {
      "fullUrl": "urn:uuid:8f403db4-a492-47c4-b0e0-2b23d37f58a4",
      "resource": {
        "resourceType": "Observation",
        "id": "8f403db4-a492-47c4-b0e0-2b23d37f58a4",
        "meta": {
          "profile": [
            "http://hl7.eu/fhir/laboratory/StructureDefinition/Observation-resultslab-eu-lab"
          ]
        },
        "performer": [
          {
            "display": "The Central European Lab"
          }
        ],
        "category": [
          {
            "coding": [
              {
                "system": "http://terminology.hl7.org/CodeSystem/observation-category",
                "code": "laboratory"
              }
            ]
          }
        ],
        "code": {
          "coding": [
            {
              "code": "10834-0",
              "system": "http://loinc.org",
              "display": "Globulin [Mass/volume] in Serum by calculation"
            }
          ],
          "text": "Globulin [Mass/volume] in Serum by calculation"
        },
        "valueQuantity": {
          "system": "http://unitsofmeasure.org",
          "value": 2.9,
          "unit": "g/L",
          "code": "g/L"
        },
        "referenceRange": [
          {
            "low": {
              "value": 2,
              "code": "g/L",
              "system": "http://unitsofmeasure.org"
            }
          },
          {
            "high": {
              "value": 4,
              "code": "g/L",
              "system": "http://unitsofmeasure.org"
            }
          }
        ],
        "text": {
          "status": "generated",
          "div": "<div xmlns=\"http://www.w3.org/1999/xhtml\"><table class=\"hl7__eu__lab__report\"><tr><th>Test</th><th>18-Mar-2018</th><th>Reference&#xA0;Range</th><th>Unit</th></tr><tr><td>Globulin [Mass/volume] in Serum by calculation</td><td>2.9</td><td>2 - 4</td><td></td><td>g/L</td></tr></table></div>"
        },
        "status": "final",
        "subject": {
          "reference": "urn:uuid:8928d3d2-9831-4ca3-ae09-e2280912f8aa",
          "display": "Marlene Gerlach"
        },
        "effectiveDateTime": "2018-03-18T19:24:33Z",
        "specimen": {
          "reference": "urn:uuid:90d9a449-6b5d-4b49-957d-1bcde4cc957e"
        }
      }
    },
    {
      "fullUrl": "urn:uuid:16445238-48f2-4b06-bf3f-14f631554ed4",
      "resource": {
        "resourceType": "Observation",
        "id": "16445238-48f2-4b06-bf3f-14f631554ed4",
        "meta": {
          "profile": [
            "http://hl7.eu/fhir/laboratory/StructureDefinition/Observation-resultslab-eu-lab"
          ]
        },
        "performer": [
          {
            "display": "The Central European Lab"
          }
        ],
        "category": [
          {
            "coding": [
              {
                "system": "http://terminology.hl7.org/CodeSystem/observation-category",
                "code": "laboratory"
              }
            ]
          }
        ],
        "code": {
          "coding": [
            {
              "code": "1975-2",
              "system": "http://loinc.org",
              "display": "Bilirubin.total [Mass/volume] in Serum or Plasma"
            }
          ],
          "text": "Bilirubin.total [Mass/volume] in Serum or Plasma"
        },
        "valueQuantity": {
          "system": "http://unitsofmeasure.org",
          "value": 0.4,
          "unit": "mg/dL",
          "code": "mg/dL"
        },
        "referenceRange": [
          {
            "low": {
              "value": 0.3,
              "code": "mg/dL",
              "system": "http://unitsofmeasure.org"
            }
          },
          {
            "high": {
              "value": 1.2,
              "code": "mg/dL",
              "system": "http://unitsofmeasure.org"
            }
          }
        ],
        "text": {
          "status": "generated",
          "div": "<div xmlns=\"http://www.w3.org/1999/xhtml\"><table class=\"hl7__eu__lab__report\"><tr><th>Test</th><th>18-Mar-2018</th><th>Reference&#xA0;Range</th><th>Unit</th></tr><tr><td>Bilirubin.total [Mass/volume] in Serum or Plasma</td><td>0.4</td><td>0.3 - 1.2</td><td></td><td>mg/dL</td></tr></table></div>"
        },
        "status": "final",
        "subject": {
          "reference": "urn:uuid:8928d3d2-9831-4ca3-ae09-e2280912f8aa",
          "display": "Marlene Gerlach"
        },
        "effectiveDateTime": "2018-03-18T19:24:33Z",
        "specimen": {
          "reference": "urn:uuid:ac431790-501f-4029-8dd4-3652c9e211a0"
        }
      }
    },
    {
      "fullUrl": "urn:uuid:9ab99dc5-549f-4b5b-8e40-4205114900a5",
      "resource": {
        "resourceType": "Observation",
        "id": "9ab99dc5-549f-4b5b-8e40-4205114900a5",
        "meta": {
          "profile": [
            "http://hl7.eu/fhir/laboratory/StructureDefinition/Observation-resultslab-eu-lab"
          ]
        },
        "performer": [
          {
            "display": "The Central European Lab"
          }
        ],
        "category": [
          {
            "coding": [
              {
                "system": "http://terminology.hl7.org/CodeSystem/observation-category",
                "code": "laboratory"
              }
            ]
          }
        ],
        "code": {
          "coding": [
            {
              "code": "6768-6",
              "system": "http://loinc.org",
              "display": "Alkaline phosphatase [Enzymatic activity/volume] in Serum or Plasma"
            }
          ],
          "text": "Alkaline phosphatase [Enzymatic activity/volume] in Serum or Plasma"
        },
        "valueQuantity": {
          "system": "http://unitsofmeasure.org",
          "value": 66.1,
          "unit": "U/L",
          "code": "U/L"
        },
        "referenceRange": [
          {
            "low": {
              "value": 35,
              "code": "U/L",
              "system": "http://unitsofmeasure.org"
            }
          },
          {
            "high": {
              "value": 141,
              "code": "U/L",
              "system": "http://unitsofmeasure.org"
            }
          }
        ],
        "text": {
          "status": "generated",
          "div": "<div xmlns=\"http://www.w3.org/1999/xhtml\"><table class=\"hl7__eu__lab__report\"><tr><th>Test</th><th>18-Mar-2018</th><th>Reference&#xA0;Range</th><th>Unit</th></tr><tr><td>Alkaline phosphatase [Enzymatic activity/volume] in Serum or Plasma</td><td>66.1</td><td>35 - 141</td><td></td><td>U/L</td></tr></table></div>"
        },
        "status": "final",
        "subject": {
          "reference": "urn:uuid:8928d3d2-9831-4ca3-ae09-e2280912f8aa",
          "display": "Marlene Gerlach"
        },
        "effectiveDateTime": "2018-03-18T19:24:33Z",
        "specimen": {
          "reference": "urn:uuid:ac431790-501f-4029-8dd4-3652c9e211a0"
        }
      }
    },
    {
      "fullUrl": "urn:uuid:8d6e2418-22bf-402a-97e1-1bd4be673d14",
      "resource": {
        "resourceType": "Observation",
        "id": "8d6e2418-22bf-402a-97e1-1bd4be673d14",
        "meta": {
          "profile": [
            "http://hl7.eu/fhir/laboratory/StructureDefinition/Observation-resultslab-eu-lab"
          ]
        },
        "performer": [
          {
            "display": "The Central European Lab"
          }
        ],
        "category": [
          {
            "coding": [
              {
                "system": "http://terminology.hl7.org/CodeSystem/observation-category",
                "code": "laboratory"
              }
            ]
          }
        ],
        "code": {
          "coding": [
            {
              "code": "1742-6",
              "system": "http://loinc.org",
              "display": "Alanine aminotransferase [Enzymatic activity/volume] in Serum or Plasma"
            }
          ],
          "text": "Alanine aminotransferase [Enzymatic activity/volume] in Serum or Plasma"
        },
        "valueQuantity": {
          "system": "http://unitsofmeasure.org",
          "value": 41.2,
          "unit": "U/L",
          "code": "U/L"
        },
        "referenceRange": [
          {
            "low": {
              "value": 7,
              "code": "U/L",
              "system": "http://unitsofmeasure.org"
            }
          },
          {
            "high": {
              "value": 60,
              "code": "U/L",
              "system": "http://unitsofmeasure.org"
            }
          }
        ],
        "text": {
          "status": "generated",
          "div": "<div xmlns=\"http://www.w3.org/1999/xhtml\"><table class=\"hl7__eu__lab__report\"><tr><th>Test</th><th>18-Mar-2018</th><th>Reference&#xA0;Range</th><th>Unit</th></tr><tr><td>Alanine aminotransferase [Enzymatic activity/volume] in Serum or Plasma</td><td>41.2</td><td>7 - 60</td><td></td><td>U/L</td></tr></table></div>"
        },
        "status": "final",
        "subject": {
          "reference": "urn:uuid:8928d3d2-9831-4ca3-ae09-e2280912f8aa",
          "display": "Marlene Gerlach"
        },
        "effectiveDateTime": "2018-03-18T19:24:33Z",
        "specimen": {
          "reference": "urn:uuid:ac431790-501f-4029-8dd4-3652c9e211a0"
        }
      }
    },
    {
      "fullUrl": "urn:uuid:8f3e3c2b-0472-46a0-9728-a15959344c63",
      "resource": {
        "resourceType": "Observation",
        "id": "8f3e3c2b-0472-46a0-9728-a15959344c63",
        "meta": {
          "profile": [
            "http://hl7.eu/fhir/laboratory/StructureDefinition/Observation-resultslab-eu-lab"
          ]
        },
        "performer": [
          {
            "display": "The Central European Lab"
          }
        ],
        "category": [
          {
            "coding": [
              {
                "system": "http://terminology.hl7.org/CodeSystem/observation-category",
                "code": "laboratory"
              }
            ]
          }
        ],
        "code": {
          "coding": [
            {
              "code": "1920-8",
              "system": "http://loinc.org",
              "display": "Aspartate aminotransferase [Enzymatic activity/volume] in Serum or Plasma"
            }
          ],
          "text": "Aspartate aminotransferase [Enzymatic activity/volume] in Serum or Plasma"
        },
        "valueQuantity": {
          "system": "http://unitsofmeasure.org",
          "value": 10.6,
          "unit": "U/L",
          "code": "U/L"
        },
        "referenceRange": [
          {
            "low": {
              "value": 10,
              "code": "U/L",
              "system": "http://unitsofmeasure.org"
            }
          },
          {
            "high": {
              "value": 40,
              "code": "U/L",
              "system": "http://unitsofmeasure.org"
            }
          }
        ],
        "text": {
          "status": "generated",
          "div": "<div xmlns=\"http://www.w3.org/1999/xhtml\"><table class=\"hl7__eu__lab__report\"><tr><th>Test</th><th>18-Mar-2018</th><th>Reference&#xA0;Range</th><th>Unit</th></tr><tr><td>Aspartate aminotransferase [Enzymatic activity/volume] in Serum or Plasma</td><td>10.6</td><td>10 - 40</td><td></td><td>U/L</td></tr></table></div>"
        },
        "status": "final",
        "subject": {
          "reference": "urn:uuid:8928d3d2-9831-4ca3-ae09-e2280912f8aa",
          "display": "Marlene Gerlach"
        },
        "effectiveDateTime": "2018-03-18T19:24:33Z",
        "specimen": {
          "reference": "urn:uuid:ac431790-501f-4029-8dd4-3652c9e211a0"
        }
      }
    },
    {
      "fullUrl": "urn:uuid:031430c6-4baf-4b99-b9cb-7b92c7165f14",
      "resource": {
        "resourceType": "Observation",
        "id": "031430c6-4baf-4b99-b9cb-7b92c7165f14",
        "meta": {
          "profile": [
            "http://hl7.eu/fhir/laboratory/StructureDefinition/Observation-resultslab-eu-lab"
          ]
        },
        "performer": [
          {
            "display": "The Central European Lab"
          }
        ],
        "category": [
          {
            "coding": [
              {
                "system": "http://terminology.hl7.org/CodeSystem/observation-category",
                "code": "laboratory"
              }
            ]
          }
        ],
        "code": {
          "coding": [
            {
              "code": "2093-3",
              "system": "http://loinc.org",
              "display": "Cholesterol [Mass/volume] in Serum or Plasma"
            }
          ],
          "text": "Cholesterol [Mass/volume] in Serum or Plasma"
        },
        "valueQuantity": {
          "system": "http://unitsofmeasure.org",
          "value": 202.9,
          "unit": "mg/dL",
          "code": "mg/dL"
        },
        "referenceRange": [
          {
            "low": {
              "value": 0,
              "code": "mg/dL",
              "system": "http://unitsofmeasure.org"
            }
          },
          {
            "high": {
              "value": 200,
              "code": "mg/dL",
              "system": "http://unitsofmeasure.org"
            }
          }
        ],
        "interpretation": [
          {
            "coding": [
              {
                "code": "H",
                "system": "http://terminology.hl7.org/CodeSystem/v3-ObservationInterpretation",
                "display": "High"
              }
            ]
          }
        ],
        "text": {
          "status": "generated",
          "div": "<div xmlns=\"http://www.w3.org/1999/xhtml\"><table class=\"hl7__eu__lab__report\"><tr><th>Test</th><th>18-Mar-2018</th><th>Reference&#xA0;Range</th><th>Unit</th></tr><tr><td>Cholesterol [Mass/volume] in Serum or Plasma</td><td>202.9</td><td>0 - 200</td><td>H</td><td>mg/dL</td></tr></table></div>"
        },
        "status": "final",
        "subject": {
          "reference": "urn:uuid:8928d3d2-9831-4ca3-ae09-e2280912f8aa",
          "display": "Marlene Gerlach"
        },
        "effectiveDateTime": "2018-03-18T19:24:33Z",
        "specimen": {
          "reference": "urn:uuid:ac431790-501f-4029-8dd4-3652c9e211a0"
        }
      }
    },
    {
      "fullUrl": "urn:uuid:b9930474-7b3e-49cd-9cc8-0fbe0d2d8010",
      "resource": {
        "resourceType": "Observation",
        "id": "b9930474-7b3e-49cd-9cc8-0fbe0d2d8010",
        "meta": {
          "profile": [
            "http://hl7.eu/fhir/laboratory/StructureDefinition/Observation-resultslab-eu-lab"
          ]
        },
        "performer": [
          {
            "display": "The Central European Lab"
          }
        ],
        "category": [
          {
            "coding": [
              {
                "system": "http://terminology.hl7.org/CodeSystem/observation-category",
                "code": "laboratory"
              }
            ]
          }
        ],
        "code": {
          "coding": [
            {
              "code": "2571-8",
              "system": "http://loinc.org",
              "display": "Triglyceride [Mass/volume] in Serum or Plasma"
            }
          ],
          "text": "Triglyceride [Mass/volume] in Serum or Plasma"
        },
        "valueQuantity": {
          "system": "http://unitsofmeasure.org",
          "value": 129.2,
          "unit": "mg/dL",
          "code": "mg/dL"
        },
        "referenceRange": [
          {
            "low": {
              "value": 0,
              "code": "mg/dL",
              "system": "http://unitsofmeasure.org"
            }
          },
          {
            "high": {
              "value": 199,
              "code": "mg/dL",
              "system": "http://unitsofmeasure.org"
            }
          }
        ],
        "text": {
          "status": "generated",
          "div": "<div xmlns=\"http://www.w3.org/1999/xhtml\"><table class=\"hl7__eu__lab__report\"><tr><th>Test</th><th>18-Mar-2018</th><th>Reference&#xA0;Range</th><th>Unit</th></tr><tr><td>Triglyceride [Mass/volume] in Serum or Plasma</td><td>129.2</td><td>0 - 199</td><td></td><td>mg/dL</td></tr></table></div>"
        },
        "status": "final",
        "subject": {
          "reference": "urn:uuid:8928d3d2-9831-4ca3-ae09-e2280912f8aa",
          "display": "Marlene Gerlach"
        },
        "effectiveDateTime": "2018-03-18T19:24:33Z",
        "specimen": {
          "reference": "urn:uuid:ac431790-501f-4029-8dd4-3652c9e211a0"
        }
      }
    },
    {
      "fullUrl": "urn:uuid:d6e7cac4-6db0-4bf6-8b62-0757a1e615d4",
      "resource": {
        "resourceType": "Observation",
        "id": "d6e7cac4-6db0-4bf6-8b62-0757a1e615d4",
        "meta": {
          "profile": [
            "http://hl7.eu/fhir/laboratory/StructureDefinition/Observation-resultslab-eu-lab"
          ]
        },
        "performer": [
          {
            "display": "The Central European Lab"
          }
        ],
        "category": [
          {
            "coding": [
              {
                "system": "http://terminology.hl7.org/CodeSystem/observation-category",
                "code": "laboratory"
              }
            ]
          }
        ],
        "code": {
          "coding": [
            {
              "code": "18262-6",
              "system": "http://loinc.org",
              "display": "Cholesterol in LDL [Mass/volume] in Serum or Plasma by Direct assay"
            }
          ],
          "text": "Cholesterol in LDL [Mass/volume] in Serum or Plasma by Direct assay"
        },
        "valueQuantity": {
          "system": "http://unitsofmeasure.org",
          "value": 93.5,
          "unit": "mg/dL",
          "code": "mg/dL"
        },
        "referenceRange": [
          {
            "low": {
              "value": 0,
              "code": "mg/dL",
              "system": "http://unitsofmeasure.org"
            }
          },
          {
            "high": {
              "value": 130,
              "code": "mg/dL",
              "system": "http://unitsofmeasure.org"
            }
          }
        ],
        "text": {
          "status": "generated",
          "div": "<div xmlns=\"http://www.w3.org/1999/xhtml\"><table class=\"hl7__eu__lab__report\"><tr><th>Test</th><th>18-Mar-2018</th><th>Reference&#xA0;Range</th><th>Unit</th></tr><tr><td>Cholesterol in LDL [Mass/volume] in Serum or Plasma by Direct assay</td><td>93.5</td><td>0 - 130</td><td></td><td>mg/dL</td></tr></table></div>"
        },
        "status": "final",
        "subject": {
          "reference": "urn:uuid:8928d3d2-9831-4ca3-ae09-e2280912f8aa",
          "display": "Marlene Gerlach"
        },
        "effectiveDateTime": "2018-03-18T19:24:33Z",
        "specimen": {
          "reference": "urn:uuid:ac431790-501f-4029-8dd4-3652c9e211a0"
        }
      }
    },
    {
      "fullUrl": "urn:uuid:7558d444-5a11-4f4c-958f-c27f3b1ed78a",
      "resource": {
        "resourceType": "Observation",
        "id": "7558d444-5a11-4f4c-958f-c27f3b1ed78a",
        "meta": {
          "profile": [
            "http://hl7.eu/fhir/laboratory/StructureDefinition/Observation-resultslab-eu-lab"
          ]
        },
        "performer": [
          {
            "display": "The Central European Lab"
          }
        ],
        "category": [
          {
            "coding": [
              {
                "system": "http://terminology.hl7.org/CodeSystem/observation-category",
                "code": "laboratory"
              }
            ]
          }
        ],
        "code": {
          "coding": [
            {
              "code": "2085-9",
              "system": "http://loinc.org",
              "display": "Cholesterol in HDL [Mass/volume] in Serum or Plasma"
            }
          ],
          "text": "Cholesterol in HDL [Mass/volume] in Serum or Plasma"
        },
        "valueQuantity": {
          "system": "http://unitsofmeasure.org",
          "value": 45.8,
          "unit": "mg/dL",
          "code": "mg/dL"
        },
        "referenceRange": [
          {
            "low": {
              "value": 46,
              "code": "mg/dL",
              "system": "http://unitsofmeasure.org"
            }
          },
          {
            "high": {
              "value": 77,
              "code": "mg/dL",
              "system": "http://unitsofmeasure.org"
            }
          }
        ],
        "interpretation": [
          {
            "coding": [
              {
                "code": "L",
                "system": "http://terminology.hl7.org/CodeSystem/v3-ObservationInterpretation",
                "display": "Low"
              }
            ]
          }
        ],
        "text": {
          "status": "generated",
          "div": "<div xmlns=\"http://www.w3.org/1999/xhtml\"><table class=\"hl7__eu__lab__report\"><tr><th>Test</th><th>18-Mar-2018</th><th>Reference&#xA0;Range</th><th>Unit</th></tr><tr><td>Cholesterol in HDL [Mass/volume] in Serum or Plasma</td><td>45.8</td><td>46 - 77</td><td>L</td><td>mg/dL</td></tr></table></div>"
        },
        "status": "final",
        "subject": {
          "reference": "urn:uuid:8928d3d2-9831-4ca3-ae09-e2280912f8aa",
          "display": "Marlene Gerlach"
        },
        "effectiveDateTime": "2018-03-18T19:24:33Z",
        "specimen": {
          "reference": "urn:uuid:ac431790-501f-4029-8dd4-3652c9e211a0"
        }
      }
    },
    {
      "fullUrl": "urn:uuid:44dc172a-819c-4a85-8d23-98d4ac591e3f",
      "resource": {
        "resourceType": "Device",
        "id": "44dc172a-819c-4a85-8d23-98d4ac591e3f",
        "deviceName": [
          {
            "name": "SYNDERAI Synthetic Generator",
            "type": "manufacturer-name"
          }
        ],
        "version": [
          {
            "value": "5.0"
          }
        ],
        "text": {
          "status": "generated",
          "div": "<div xmlns=\"http://www.w3.org/1999/xhtml\">SYNDERAI Synthetic Generator v5.0</div>"
        },
        "status": "active\"",
        "distinctIdentifier": "synderai-generator-50",
        "manufacturer": "SYNDERAI Project"
      }
    },
    {
      "fullUrl": "urn:uuid:80f174df-b95c-468e-b068-c367334435d7",
      "resource": {
        "resourceType": "Provenance",
        "id": "80f174df-b95c-468e-b068-c367334435d7",
        "target": [
          {
            "reference": "Patient/8928d3d2-9831-4ca3-ae09-e2280912f8aa"
          },
          {
            "reference": "Bundle/080e318c-efff-414b-8d50-c79219f496ac"
          },
          {
            "reference": "Composition/5e5f7d91-8d02-4d1c-ac39-f9c2826b522c"
          },
          {
            "reference": "PractitionerRole/b3fc092e-abed-488a-868a-4c603011885c"
          },
          {
            "reference": "Practitioner/4b9f792e-37fe-466d-87cc-a4156c957b3a"
          },
          {
            "reference": "PractitionerRole/d8371cef-017b-4920-8f29-b941a7803c73"
          },
          {
            "reference": "Organization/bb3246ff-ada2-424a-a587-e2cbfd6806d9"
          }
        ],
        "activity": {
          "text": "Synthetic Example Data Generation"
        },
        "policy": [
          "https://synderai.net/synderai-synthetic-data-policy"
        ],
        "agent": [
          {
            "type": {
              "text": "author"
            },
            "who": {
              "reference": "Device/44dc172a-819c-4a85-8d23-98d4ac591e3f"
            }
          }
        ],
        "reason": [
          {
            "text": "Interoperability Testing and Training (non-clinical use)"
          }
        ],
        "text": {
          "status": "generated",
          "div": "<div xmlns=\"http://www.w3.org/1999/xhtml\">Provenance for SYNDERAI Synthetic Example Data Resource</div>"
        },
        "recorded": "2018-03-18T20:24:33Z"
      }
    },
    {
      "fullUrl": "urn:uuid:b3fc092e-abed-488a-868a-4c603011885c",
      "resource": {
        "resourceType": "PractitionerRole",
        "id": "b3fc092e-abed-488a-868a-4c603011885c",
        "meta": {
          "profile": [
            "http://hl7.eu/fhir/base/StructureDefinition/practitionerRole-eu"
          ]
        },
        "text": {
          "status": "generated",
          "div": "<div xmlns=\"http://www.w3.org/1999/xhtml\">Laboratory Role Id: b3fc092e-abed-488a-868a-4c603011885c</div>"
        },
        "practitioner": {
          "reference": "urn:uuid:4b9f792e-37fe-466d-87cc-a4156c957b3a"
        }
      }
    },
    {
      "fullUrl": "urn:uuid:4b9f792e-37fe-466d-87cc-a4156c957b3a",
      "resource": {
        "resourceType": "Practitioner",
        "id": "4b9f792e-37fe-466d-87cc-a4156c957b3a",
        "meta": {
          "profile": [
            "http://hl7.eu/fhir/base/StructureDefinition/practitioner-eu"
          ]
        },
        "identifier": [
          {
            "assigner": {
              "display": "HL7 Europe"
            },
            "system": "urn:oid:2.16.840.1.113883.2.51.999",
            "value": "5be61523-d820-4422-9a6b-762089730540"
          }
        ],
        "name": [
          {
            "prefix": [
              "dr"
            ],
            "given": [
              "Ex"
            ],
            "family": "Ample"
          }
        ],
        "address": [
          {
            "line": [
              "Laboratoire Central Européenne",
              "Boulevard du Jardin Botanique 32"
            ],
            "postalCode": "1000",
            "city": "Brussels",
            "country": "Belgium"
          }
        ],
        "text": {
          "status": "generated",
          "div": "<div xmlns=\"http://www.w3.org/1999/xhtml\">Laboratory: Laboratoire Central Européenne, 1000 Brussels, Belgium</div>"
        }
      }
    }
  ],
  "type": "document",
  "timestamp": "2018-03-18T20:24:33Z"
}
