<Bundle xmlns="http://hl7.org/fhir">
   <id value="cf6e8cff-46d2-4b2f-a7ee-8e3a55bb5bbf"/>
   <meta>
      <profile value="http://hl7.eu/fhir/laboratory/StructureDefinition/Bundle-eu-lab"/>
   </meta>
   <identifier>
      <system value="urn:oid:2.16.840.1.113883.2.51.999"/>
      <value value="56f1596e-3f80-4dc1-a94d-9062c088a5f4"/>
      <assigner>
         <display value="HL7 Europe"/>
      </assigner>
   </identifier>
   <type value="document"/>
   <timestamp value="2017-05-25T09:28:22Z"/>
   <entry>
      <fullUrl value="urn:uuid:536cc3a0-f832-4ee6-bad4-7cc66b234089"/>
      <resource>
         <Composition>
            <id value="536cc3a0-f832-4ee6-bad4-7cc66b234089"/>
            <meta>
               <profile value="http://hl7.eu/fhir/laboratory/StructureDefinition/Composition-eu-lab"/>
            </meta>
            <identifier>
               <system value="urn:oid:2.16.840.1.113883.2.51.999"/>
               <value value="7d0920e9-6a95-44ab-929a-541b55ba89ee"/>
               <assigner>
                  <display value="HL7 Europe"/>
               </assigner>
            </identifier>
            <status value="final"/>
            <type>
               <coding>
                  <system value="http://loinc.org"/>
                  <code value="11502-2"/>
                  <display value="Laboratory report"/>
               </coding>
               <text value="Laboratory Report"/>
            </type>
            <category>
               <coding>
                  <system value="http://loinc.org"/>
                  <code value="26436-6"/>
                  <display value="Laboratory studies (set)"/>
               </coding>
            </category>
            <subject>
               <reference value="urn:uuid:cca6411c-f997-423a-8a51-6075c0a6b202"/>
               <display value="Aniela Prażmo"/>
            </subject>
            <date value="2017-05-25T09:28:22Z"/>
            <author>
               <reference value="urn:uuid:f9eaa9ac-1ce8-4015-a156-195a09c2411c"/>
            </author>
            <title value="Laboratory Report"/>
            <confidentiality value="N"/>
            <section>
               <title value="Laboratory Report"/>
               <code>
                  <coding>
                     <system value="http://loinc.org"/>
                     <code value="26436-6"/>
                     <display value="Laboratory studies (set)"/>
                  </coding>
                  <text value="Laboratory studies"/>
               </code>
               <section>
                  <title value="Hematology"/>
                  <code>
                     <coding>
                        <system value="http://loinc.org"/>
                        <code value="$18723-7"/>
                        <display value="Hematology studies (set)"/>
                     </coding>
                     <text value="Hematology"/>
                  </code>
                  <text>
                     <status value="generated"/>
                     <div xmlns="http://www.w3.org/1999/xhtml">
                        <h3>Hematology</h3>
                        <table class="hl7__eu__lab__report">
                           <thead>
                              <tr>
                                 <th>Test</th>
                                 <th>25-MAY-2017</th>
                                 <th>Reference Range</th>
                                 <th>Unit</th>
                              </tr>
                           </thead>
                           <tbody>
                              <tr>
                                 <td>Leukocytes [#/volume] in Blood by Automated count</td>
                                 <td>9.2</td>
                                 <td>4 - 11</td>
                                 <td>10*3/uL</td>
                              </tr>
                              <tr>
                                 <td>Erythrocytes [#/volume] in Blood by Automated count</td>
                                 <td>
                                    <strong>5.8 H</strong>
                                 </td>
                                 <td>3.8 - 5.7</td>
                                 <td>10*6/uL</td>
                              </tr>
                              <tr>
                                 <td>Hemoglobin [Mass/volume] in Blood</td>
                                 <td>13.4</td>
                                 <td>12 - 16</td>
                                 <td>g/dL</td>
                              </tr>
                              <tr>
                                 <td>Hematocrit [Volume Fraction] of Blood by Automated count</td>
                                 <td>47.6</td>
                                 <td>38 - 56</td>
                                 <td>%</td>
                              </tr>
                              <tr>
                                 <td>MCV [Entitic volume] by Automated count</td>
                                 <td>90.6</td>
                                 <td>78 - 98</td>
                                 <td>fL</td>
                              </tr>
                              <tr>
                                 <td>MCH [Entitic mass] by Automated count</td>
                                 <td>30.8</td>
                                 <td>27 - 34</td>
                                 <td>pg</td>
                              </tr>
                              <tr>
                                 <td>MCHC [Mass/volume] by Automated count</td>
                                 <td>33.4</td>
                                 <td>32 - 35</td>
                                 <td>g/dL</td>
                              </tr>
                              <tr>
                                 <td>Erythrocyte distribution width [Ratio] by Automated count</td>
                                 <td>13.6</td>
                                 <td>11.6 - 16.5</td>
                                 <td>%</td>
                              </tr>
                              <tr>
                                 <td>Platelets [#/volume] in Blood by Automated count</td>
                                 <td>376.0</td>
                                 <td>157 - 415</td>
                                 <td>10*3/uL</td>
                              </tr>
                           </tbody>
                        </table>
                     </div>
                  </text>
                  <entry>
                     <reference value="urn:uuid:d02e70e1-1abd-4ef8-81e9-61f36e411222"/>
                  </entry>
                  <entry>
                     <reference value="urn:uuid:5d745cbe-184c-4c61-8702-c8247b57c41c"/>
                  </entry>
                  <entry>
                     <reference value="urn:uuid:85cf931a-78ff-477a-bbce-63d364b33f8f"/>
                  </entry>
                  <entry>
                     <reference value="urn:uuid:c37ed196-37b2-48f9-820d-6e374a632b4e"/>
                  </entry>
                  <entry>
                     <reference value="urn:uuid:64e58966-7e6a-4b51-8822-f7b08ff6212a"/>
                  </entry>
                  <entry>
                     <reference value="urn:uuid:8fe6c0fd-958e-4272-baaf-e66b8901573e"/>
                  </entry>
                  <entry>
                     <reference value="urn:uuid:de838a91-ce09-4ded-89a1-95ac1292f76d"/>
                  </entry>
                  <entry>
                     <reference value="urn:uuid:6f245abd-df12-4e5a-9d00-964f8e6e3b94"/>
                  </entry>
                  <entry>
                     <reference value="urn:uuid:c1736629-5621-4e33-a243-745ea80c258c"/>
                  </entry>
               </section>
               <section>
                  <title value="Chemistry"/>
                  <code>
                     <coding>
                        <system value="http://loinc.org"/>
                        <code value="$18719-5"/>
                        <display value="Chemistry studies (set)"/>
                     </coding>
                     <text value="Chemistry"/>
                  </code>
                  <text>
                     <status value="generated"/>
                     <div xmlns="http://www.w3.org/1999/xhtml">
                        <h3>Chemistry</h3>
                        <table class="hl7__eu__lab__report">
                           <thead>
                              <tr>
                                 <th>Test</th>
                                 <th>25-MAY-2017</th>
                                 <th>Reference Range</th>
                                 <th>Unit</th>
                              </tr>
                           </thead>
                           <tbody>
                              <tr>
                                 <td>Glucose [Mass/volume] in Serum or Plasma</td>
                                 <td>71.5</td>
                                 <td>70 - 99</td>
                                 <td>mg/dL</td>
                              </tr>
                              <tr>
                                 <td>Urea nitrogen [Mass/volume] in Serum or Plasma</td>
                                 <td>7.8</td>
                                 <td>7 - 20</td>
                                 <td>mg/dL</td>
                              </tr>
                              <tr>
                                 <td>Creatinine [Mass/volume] in Serum or Plasma</td>
                                 <td>
                                    <strong>2.9 H</strong>
                                 </td>
                                 <td>0.6 - 1.3</td>
                                 <td>mg/dL</td>
                              </tr>
                              <tr>
                                 <td>Calcium [Mass/volume] in Serum or Plasma</td>
                                 <td>9.7</td>
                                 <td>8.5 - 10.4</td>
                                 <td>mg/dL</td>
                              </tr>
                              <tr>
                                 <td>Sodium [Moles/volume] in Serum or Plasma</td>
                                 <td>136.6</td>
                                 <td>135 - 145</td>
                                 <td>mmol/L</td>
                              </tr>
                              <tr>
                                 <td>Potassium [Moles/volume] in Serum or Plasma</td>
                                 <td>4.3</td>
                                 <td>3.5 - 5.1</td>
                                 <td>mmol/L</td>
                              </tr>
                              <tr>
                                 <td>Chloride [Moles/volume] in Serum or Plasma</td>
                                 <td>105.0</td>
                                 <td>98 - 108</td>
                                 <td>mmol/L</td>
                              </tr>
                              <tr>
                                 <td>Carbon dioxide, total [Moles/volume] in Serum or Plasma</td>
                                 <td>23.3</td>
                                 <td>22 - 32</td>
                                 <td>mmol/L</td>
                              </tr>
                              <tr>
                                 <td>Protein [Mass/volume] in Serum or Plasma</td>
                                 <td>7.8</td>
                                 <td>6 - 8.3</td>
                                 <td>g/dL</td>
                              </tr>
                              <tr>
                                 <td>Albumin [Mass/volume] in Serum or Plasma</td>
                                 <td>4.5</td>
                                 <td>3.5 - 5</td>
                                 <td>g/dL</td>
                              </tr>
                              <tr>
                                 <td>Bilirubin.total [Mass/volume] in Serum or Plasma</td>
                                 <td>
                                    <strong>11.8 H</strong>
                                 </td>
                                 <td>0.3 - 1.2</td>
                                 <td>mg/dL</td>
                              </tr>
                              <tr>
                                 <td>Alkaline phosphatase [Enzymatic activity/volume] in Serum or Plasma</td>
                                 <td>46.2</td>
                                 <td>32 - 150</td>
                                 <td>U/L</td>
                              </tr>
                              <tr>
                                 <td>Alanine aminotransferase [Enzymatic activity/volume] in Serum or Plasma</td>
                                 <td>22.8</td>
                                 <td>13 - 32</td>
                                 <td>U/L</td>
                              </tr>
                              <tr>
                                 <td>Aspartate aminotransferase [Enzymatic activity/volume] in Serum or Plasma</td>
                                 <td>16.4</td>
                                 <td>10 - 40</td>
                                 <td>U/L</td>
                              </tr>
                              <tr>
                                 <td>Magnesium [Mass/volume] in Serum or Plasma</td>
                                 <td>2.0</td>
                                 <td>1.7 - 2.6</td>
                                 <td>mg/dL</td>
                              </tr>
                              <tr>
                                 <td>Phosphate [Mass/volume] in Serum or Plasma</td>
                                 <td>3.2</td>
                                 <td>2.5 - 4.5</td>
                                 <td>mg/dL</td>
                              </tr>
                              <tr>
                                 <td>pH of Arterial blood</td>
                                 <td>
                                    <strong>7.1 L</strong>
                                 </td>
                                 <td>7.35 - 7.45</td>
                                 <td>[pH]</td>
                              </tr>
                              <tr>
                                 <td>Carbon dioxide [Partial pressure] in Arterial blood</td>
                                 <td>
                                    <strong>35.0 L</strong>
                                 </td>
                                 <td>38 - 48</td>
                                 <td>mm[Hg]</td>
                              </tr>
                              <tr>
                                 <td>Oxygen [Partial pressure] in Arterial blood</td>
                                 <td>94.3</td>
                                 <td>75 - 100</td>
                                 <td>mm[Hg]</td>
                              </tr>
                              <tr>
                                 <td>Bicarbonate [Moles/volume] in Arterial blood</td>
                                 <td>25.6</td>
                                 <td>22 - 31</td>
                                 <td>mmol/L</td>
                              </tr>
                              <tr>
                                 <td>Oxygen saturation in Arterial blood</td>
                                 <td>
                                    <strong>94.0 L</strong>
                                 </td>
                                 <td>95 - 100</td>
                                 <td>%</td>
                              </tr>
                              <tr>
                                 <td>Cholesterol [Mass/volume] in Serum or Plasma</td>
                                 <td>
                                    <strong>299.5 H</strong>
                                 </td>
                                 <td>130 - 200</td>
                                 <td>mg/dL</td>
                              </tr>
                              <tr>
                                 <td>Triglyceride [Mass/volume] in Serum or Plasma</td>
                                 <td>140.8</td>
                                 <td>0 - 199</td>
                                 <td>mg/dL</td>
                              </tr>
                              <tr>
                                 <td>Cholesterol in LDL [Mass/volume] in Serum or Plasma by Direct assay</td>
                                 <td>
                                    <strong>210.5 H</strong>
                                 </td>
                                 <td>0 - 130</td>
                                 <td>mg/dL</td>
                              </tr>
                              <tr>
                                 <td>Cholesterol in HDL [Mass/volume] in Serum or Plasma</td>
                                 <td>60.9</td>
                                 <td>50 - 100</td>
                                 <td>mg/dL</td>
                              </tr>
                           </tbody>
                        </table>
                     </div>
                  </text>
                  <entry>
                     <reference value="urn:uuid:3bf0f046-096f-4b91-ac8b-2315917be26a"/>
                  </entry>
                  <entry>
                     <reference value="urn:uuid:bb3d7ab7-bf18-4f4e-b688-7aea110b9a5d"/>
                  </entry>
                  <entry>
                     <reference value="urn:uuid:fe62423d-4d27-439b-97d6-0bf0052f3b51"/>
                  </entry>
                  <entry>
                     <reference value="urn:uuid:6a71a0bd-f056-4c70-9958-e12104d09b6f"/>
                  </entry>
                  <entry>
                     <reference value="urn:uuid:c00b39bc-b1d0-4d1d-a9ca-510c4abd33dd"/>
                  </entry>
                  <entry>
                     <reference value="urn:uuid:2f99ae95-9f8b-4409-8c21-f1fde72d5f85"/>
                  </entry>
                  <entry>
                     <reference value="urn:uuid:ad354df8-28b7-4445-bf8e-cfe69edd4eae"/>
                  </entry>
                  <entry>
                     <reference value="urn:uuid:9c70b208-ce15-4f5c-b63e-0fadd94ed16a"/>
                  </entry>
                  <entry>
                     <reference value="urn:uuid:1bf2f05a-3346-4dd2-8c25-764e6ea03734"/>
                  </entry>
                  <entry>
                     <reference value="urn:uuid:e1c54bc2-2497-4e17-b55e-81304182dc35"/>
                  </entry>
                  <entry>
                     <reference value="urn:uuid:abe24b77-0102-4bf5-a92f-1ee1dfbfe0f2"/>
                  </entry>
                  <entry>
                     <reference value="urn:uuid:8da5b67e-0ab3-4e0e-bf2f-a627d36bb120"/>
                  </entry>
                  <entry>
                     <reference value="urn:uuid:7ce0b9fc-7153-4b7a-86ce-818241f8dd25"/>
                  </entry>
                  <entry>
                     <reference value="urn:uuid:429113dd-f9f2-466a-b308-721e757141da"/>
                  </entry>
                  <entry>
                     <reference value="urn:uuid:32ac26f6-2e0b-4289-98ff-3d19bbcb9461"/>
                  </entry>
                  <entry>
                     <reference value="urn:uuid:6709625d-8f6c-4e47-a9c6-461bcdea135b"/>
                  </entry>
                  <entry>
                     <reference value="urn:uuid:ef10c111-1264-444e-8047-e7ff5a47e4f9"/>
                  </entry>
                  <entry>
                     <reference value="urn:uuid:59da3205-28b1-433e-b1ea-61ed96a02322"/>
                  </entry>
                  <entry>
                     <reference value="urn:uuid:60012420-b8b4-47f8-bd40-d14261dde7a4"/>
                  </entry>
                  <entry>
                     <reference value="urn:uuid:dc34c711-8eb6-4404-aed2-c93e0135a5a3"/>
                  </entry>
                  <entry>
                     <reference value="urn:uuid:5c915a65-996e-4db3-98b7-fe3f8c1d1ba9"/>
                  </entry>
                  <entry>
                     <reference value="urn:uuid:3f30b7e2-8aa6-418d-a1e7-8c77bfc7ec42"/>
                  </entry>
                  <entry>
                     <reference value="urn:uuid:0ce6b871-512b-4938-a4db-2665bc35c0db"/>
                  </entry>
                  <entry>
                     <reference value="urn:uuid:7d09600e-1718-4edb-b2c0-d80169da6d3c"/>
                  </entry>
                  <entry>
                     <reference value="urn:uuid:0176dde9-8259-4db6-b9e8-c991e854bee4"/>
                  </entry>
               </section>
               <section>
                  <title value="Coagulation"/>
                  <code>
                     <coding>
                        <system value="http://loinc.org"/>
                        <code value="$18720-3"/>
                        <display value="Coagulation studies (set)"/>
                     </coding>
                     <text value="Coagulation"/>
                  </code>
                  <text>
                     <status value="generated"/>
                     <div xmlns="http://www.w3.org/1999/xhtml">
                        <h3>Coagulation</h3>
                        <table class="hl7__eu__lab__report">
                           <thead>
                              <tr>
                                 <th>Test</th>
                                 <th>25-MAY-2017</th>
                                 <th>Reference Range</th>
                                 <th>Unit</th>
                              </tr>
                           </thead>
                           <tbody>
                              <tr>
                                 <td>Prothrombin time (PT)</td>
                                 <td>
                                    <strong>9.9 L</strong>
                                 </td>
                                 <td>11 - 15</td>
                                 <td>s</td>
                              </tr>
                              <tr>
                                 <td>INR in Platelet poor plasma by Coagulation assay</td>
                                 <td>
                                    <strong>2.4 H</strong>
                                 </td>
                                 <td>0.9 - 1.1</td>
                                 <td>{INR}</td>
                              </tr>
                              <tr>
                                 <td>aPTT in Blood by Coagulation assay</td>
                                 <td>34.1</td>
                                 <td>25 - 35</td>
                                 <td>s</td>
                              </tr>
                           </tbody>
                        </table>
                     </div>
                  </text>
                  <entry>
                     <reference value="urn:uuid:36581a1d-3b0f-4241-8b7c-f88997a5a494"/>
                  </entry>
                  <entry>
                     <reference value="urn:uuid:6c4d1490-bc75-45d6-af8c-1ebf9c5f65f9"/>
                  </entry>
                  <entry>
                     <reference value="urn:uuid:1c3bfb61-c125-42c9-bf39-6522facea04d"/>
                  </entry>
               </section>
            </section>
            <section>
               <title value="Annotation comment"/>
               <code>
                  <coding>
                     <system value="http://loinc.org"/>
                     <code value="48767-8"/>
                     <display value="Annotation comment"/>
                  </coding>
               </code>
               <text>
                  <status value="generated"/>
                  <div xmlns="http://www.w3.org/1999/xhtml">
                     <h3>Annotation</h3>
                     <table class="hl7__eu__lab__report">
                        <tr>
                           <th>Conclusion and Recommendations based on this report and previous findings known to us</th>
                        </tr>
                        <tr>
                           <td>The patient shows elevated creatinine, indicating impaired renal function, and markedly increased total bilirubin, suggesting possible liver dysfunction or hemolysis. INR is elevated with a low PT, which may reflect anticoagulation therapy or lab artifact. Arterial blood gas reveals acidemia (pH 7.1) with low pCO₂ and mild hypoxemia. Lipid profile shows significant hypercholesterolemia and high LDL. Erythrocyte count is slightly elevated. Overall, findings suggest renal impairment, metabolic acidosis, hyperlipidemia, and possible hepatic or hematologic pathology; clinical correlation and further evaluation are recommended.</td>
                        </tr>
                     </table>
                  </div>
               </text>
            </section>
         </Composition>
      </resource>
   </entry>
   <entry>
      <fullUrl value="urn:uuid:748ec89f-642f-441b-a6a1-e4d2ddc7f2fe"/>
      <resource>
         <DiagnosticReport>
            <id value="748ec89f-642f-441b-a6a1-e4d2ddc7f2fe"/>
            <meta>
               <profile value="http://hl7.eu/fhir/laboratory/StructureDefinition/DiagnosticReport-eu-lab"/>
            </meta>
            <extension url="http://hl7.org/fhir/5.0/StructureDefinition/extension-DiagnosticReport.composition">
               <valueReference>
                  <reference value="urn:uuid:7d0920e9-6a95-44ab-929a-541b55ba89ee"/>
               </valueReference>
            </extension>
            <identifier>
               <system value="urn:oid:2.16.840.1.113883.2.51.999"/>
               <value value="7a7320c8-deb1-4c35-8906-b0a31725e33e"/>
               <assigner>
                  <display value="HL7 Europe"/>
               </assigner>
            </identifier>
            <status value="registered"/>
            <category>
               <coding>
                  <system value="http://loinc.org"/>
                  <code value="26436-6"/>
                  <display value="Laboratory studies (set)"/>
               </coding>
            </category>
            <code>
               <coding>
                  <system value="http://loinc.org"/>
                  <code value="11502-2"/>
                  <display value="Laboratory report"/>
               </coding>
            </code>
            <subject>
               <reference value="urn:uuid:cca6411c-f997-423a-8a51-6075c0a6b202"/>
               <display value="Aniela Prażmo"/>
            </subject>
            <specimen>
               <reference value="urn:uuid:1fae746e-9a70-4d12-b252-6782acefafc7"/>
            </specimen>
            <specimen>
               <reference value="urn:uuid:1fae746e-9a70-4d12-b252-6782acefafc7"/>
            </specimen>
            <specimen>
               <reference value="urn:uuid:ed78484e-7e80-42dc-83a5-5965e95d169b"/>
            </specimen>
            <specimen>
               <reference value="urn:uuid:6105b88e-b253-4056-aacf-03ddfe600bb5"/>
            </specimen>
            <specimen>
               <reference value="urn:uuid:f2c3d678-db45-4c92-a6b7-3418d3e81239"/>
            </specimen>
            <result>
               <reference value="urn:uuid:d02e70e1-1abd-4ef8-81e9-61f36e411222"/>
            </result>
            <result>
               <reference value="urn:uuid:5d745cbe-184c-4c61-8702-c8247b57c41c"/>
            </result>
            <result>
               <reference value="urn:uuid:85cf931a-78ff-477a-bbce-63d364b33f8f"/>
            </result>
            <result>
               <reference value="urn:uuid:c37ed196-37b2-48f9-820d-6e374a632b4e"/>
            </result>
            <result>
               <reference value="urn:uuid:64e58966-7e6a-4b51-8822-f7b08ff6212a"/>
            </result>
            <result>
               <reference value="urn:uuid:8fe6c0fd-958e-4272-baaf-e66b8901573e"/>
            </result>
            <result>
               <reference value="urn:uuid:de838a91-ce09-4ded-89a1-95ac1292f76d"/>
            </result>
            <result>
               <reference value="urn:uuid:6f245abd-df12-4e5a-9d00-964f8e6e3b94"/>
            </result>
            <result>
               <reference value="urn:uuid:c1736629-5621-4e33-a243-745ea80c258c"/>
            </result>
            <result>
               <reference value="urn:uuid:3bf0f046-096f-4b91-ac8b-2315917be26a"/>
            </result>
            <result>
               <reference value="urn:uuid:bb3d7ab7-bf18-4f4e-b688-7aea110b9a5d"/>
            </result>
            <result>
               <reference value="urn:uuid:fe62423d-4d27-439b-97d6-0bf0052f3b51"/>
            </result>
            <result>
               <reference value="urn:uuid:6a71a0bd-f056-4c70-9958-e12104d09b6f"/>
            </result>
            <result>
               <reference value="urn:uuid:c00b39bc-b1d0-4d1d-a9ca-510c4abd33dd"/>
            </result>
            <result>
               <reference value="urn:uuid:2f99ae95-9f8b-4409-8c21-f1fde72d5f85"/>
            </result>
            <result>
               <reference value="urn:uuid:ad354df8-28b7-4445-bf8e-cfe69edd4eae"/>
            </result>
            <result>
               <reference value="urn:uuid:9c70b208-ce15-4f5c-b63e-0fadd94ed16a"/>
            </result>
            <result>
               <reference value="urn:uuid:1bf2f05a-3346-4dd2-8c25-764e6ea03734"/>
            </result>
            <result>
               <reference value="urn:uuid:e1c54bc2-2497-4e17-b55e-81304182dc35"/>
            </result>
            <result>
               <reference value="urn:uuid:abe24b77-0102-4bf5-a92f-1ee1dfbfe0f2"/>
            </result>
            <result>
               <reference value="urn:uuid:8da5b67e-0ab3-4e0e-bf2f-a627d36bb120"/>
            </result>
            <result>
               <reference value="urn:uuid:7ce0b9fc-7153-4b7a-86ce-818241f8dd25"/>
            </result>
            <result>
               <reference value="urn:uuid:429113dd-f9f2-466a-b308-721e757141da"/>
            </result>
            <result>
               <reference value="urn:uuid:32ac26f6-2e0b-4289-98ff-3d19bbcb9461"/>
            </result>
            <result>
               <reference value="urn:uuid:6709625d-8f6c-4e47-a9c6-461bcdea135b"/>
            </result>
            <result>
               <reference value="urn:uuid:36581a1d-3b0f-4241-8b7c-f88997a5a494"/>
            </result>
            <result>
               <reference value="urn:uuid:6c4d1490-bc75-45d6-af8c-1ebf9c5f65f9"/>
            </result>
            <result>
               <reference value="urn:uuid:1c3bfb61-c125-42c9-bf39-6522facea04d"/>
            </result>
            <result>
               <reference value="urn:uuid:ef10c111-1264-444e-8047-e7ff5a47e4f9"/>
            </result>
            <result>
               <reference value="urn:uuid:59da3205-28b1-433e-b1ea-61ed96a02322"/>
            </result>
            <result>
               <reference value="urn:uuid:60012420-b8b4-47f8-bd40-d14261dde7a4"/>
            </result>
            <result>
               <reference value="urn:uuid:dc34c711-8eb6-4404-aed2-c93e0135a5a3"/>
            </result>
            <result>
               <reference value="urn:uuid:5c915a65-996e-4db3-98b7-fe3f8c1d1ba9"/>
            </result>
            <result>
               <reference value="urn:uuid:3f30b7e2-8aa6-418d-a1e7-8c77bfc7ec42"/>
            </result>
            <result>
               <reference value="urn:uuid:0ce6b871-512b-4938-a4db-2665bc35c0db"/>
            </result>
            <result>
               <reference value="urn:uuid:7d09600e-1718-4edb-b2c0-d80169da6d3c"/>
            </result>
            <result>
               <reference value="urn:uuid:0176dde9-8259-4db6-b9e8-c991e854bee4"/>
            </result>
         </DiagnosticReport>
      </resource>
   </entry>
   <entry>
      <fullUrl value="urn:uuid:cca6411c-f997-423a-8a51-6075c0a6b202"/>
      <resource>
         <Patient>
            <id value="cca6411c-f997-423a-8a51-6075c0a6b202"/>
            <meta>
               <profile value="http://hl7.eu/fhir/base/StructureDefinition/patient-eu-core"/>
               <security>
                  <system value="http://terminology.hl7.org/CodeSystem/v3-ActReason"/>
                  <code value="HTEST"/>
               </security>
               <security>
                  <system value="http://terminology.hl7.org/CodeSystem/v3-ActReason"/>
                  <code value="TRAIN"/>
               </security>
               <tag>
                  <system value="https://synderai.net/fhir/CodeSystem/tags"/>
                  <code value="synthetic"/>
                  <display value="SYNDERAI Synthetic data"/>
               </tag>
            </meta>
            <text>
               <status value="generated"/>
               <div xmlns="http://www.w3.org/1999/xhtml">
                  <table class="hl7__ips">
                     <tr>
                        <td>Aniela Prażmo</td>
                        <td>female</td>
                        <td>08-Feb-1941</td>
                     </tr>
                  </table>
               </div>
            </text>
            <extension url="http://hl7.org/fhir/StructureDefinition/patient-nationality">
               <valueCodeableConcept>
                  <coding>
                     <system value="http://hl7.org/fhir/ValueSet/country"/>
                     <code value="PL"/>
                  </coding>
               </valueCodeableConcept>
            </extension>
            <identifier>
               <type>
                  <coding>
                     <system value="http://terminology.hl7.org/CodeSystem/v2-0203"/>
                     <code value="PT"/>
                  </coding>
               </type>
               <system value="http://ec.europa.eu/identifier/eci"/>
               <value value="9657-869171-7"/>
            </identifier>
            <identifier>
               <type>
                  <coding>
                     <system value="http://terminology.hl7.org/CodeSystem/v2-0203"/>
                     <code value="MR"/>
                  </coding>
               </type>
               <system value="http://local.setting.eu/identifier"/>
               <value value="ab00158c-e2d0-01e4-6cf5-730949937551"/>
            </identifier>
            <name>
               <family value="Prażmo"/>
            </name>
            <name>
               <given value="Aniela"/>
            </name>
            <name>
               <text value="Aniela Prażmo"/>
            </name>
            <telecom>
               <system value="phone"/>
               <value value="+48 782 809 233"/>
            </telecom>
            <gender value="female"/>
            <birthDate value="1941-02-08"/>
            <address>
               <use value="home"/>
               <type value="physical"/>
               <line value="pl. Kołłątaja 62/43"/>
               <city value="Tomaszów Mazowiecki"/>
               <postalCode value="97-200"/>
               <country value="Poland"/>
            </address>
         </Patient>
      </resource>
   </entry>
   <entry>
      <fullUrl value="urn:uuid:8bb08566-fdba-48ca-8751-419a279c7e4b"/>
      <resource>
         <ServiceRequest>
            <id value="8bb08566-fdba-48ca-8751-419a279c7e4b"/>
            <meta>
               <profile value="http://hl7.eu/fhir/laboratory/StructureDefinition/ServiceRequest-eu-lab"/>
            </meta>
            <identifier>
               <system value="http://example.org"/>
               <value value="0d423274-5f5c-4e57-b6d5-5f316fb3be30"/>
            </identifier>
            <status value="active"/>
            <intent value="order"/>
            <code>
               <coding>
                  <system value="http://snomed.info/sct"/>
                  <code value="108252007"/>
                  <display value="Laboratory procedure"/>
               </coding>
            </code>
            <subject>
               <reference value="urn:uuid:cca6411c-f997-423a-8a51-6075c0a6b202"/>
               <display value="Aniela Prażmo"/>
            </subject>
            <requester>
               <reference value="urn:uuid:9d1389b6-8932-4718-b3bf-093b163733cb"/>
            </requester>
            <reasonCode>
               <coding>
                  <system value="http://snomed.info/sct"/>
                  <code value="64859006"/>
                  <display value="Osteoporosis"/>
               </coding>
            </reasonCode>
            <reasonCode>
               <coding>
                  <system value="http://snomed.info/sct"/>
                  <code value="55822004"/>
                  <display value="Hyperlipidemia"/>
               </coding>
            </reasonCode>
            <reasonCode>
               <coding>
                  <system value="http://snomed.info/sct"/>
                  <code value="414545008"/>
                  <display value="Ischemic heart disease"/>
               </coding>
            </reasonCode>
            <reasonCode>
               <coding>
                  <system value="http://snomed.info/sct"/>
                  <code value="59621000"/>
                  <display value="Essential hypertension"/>
               </coding>
            </reasonCode>
            <reasonCode>
               <coding>
                  <system value="http://snomed.info/sct"/>
                  <code value="40055000"/>
                  <display value="Chronic sinusitis"/>
               </coding>
            </reasonCode>
            <specimen>
               <reference value="urn:uuid:1fae746e-9a70-4d12-b252-6782acefafc7"/>
            </specimen>
            <specimen>
               <reference value="urn:uuid:ed78484e-7e80-42dc-83a5-5965e95d169b"/>
            </specimen>
            <specimen>
               <reference value="urn:uuid:6105b88e-b253-4056-aacf-03ddfe600bb5"/>
            </specimen>
            <specimen>
               <reference value="urn:uuid:f2c3d678-db45-4c92-a6b7-3418d3e81239"/>
            </specimen>
         </ServiceRequest>
      </resource>
   </entry>
   <entry>
      <fullUrl value="urn:uuid:9d1389b6-8932-4718-b3bf-093b163733cb"/>
      <resource>
         <PractitionerRole>
            <id value="9d1389b6-8932-4718-b3bf-093b163733cb"/>
            <meta>
               <profile value="http://hl7.eu/fhir/base/StructureDefinition/practitionerRole-eu"/>
            </meta>
            <text>
               <status value="generated"/>
               <div xmlns="http://www.w3.org/1999/xhtml">Provider Role Id: 9d1389b6-8932-4718-b3bf-093b163733cb</div>
            </text>
            <organization>
               <reference value="urn:uuid:df35b2b1-a56e-4080-9a44-4ba9e5b90813"/>
            </organization>
         </PractitionerRole>
      </resource>
   </entry>
   <entry>
      <fullUrl value="urn:uuid:df35b2b1-a56e-4080-9a44-4ba9e5b90813"/>
      <resource>
         <Organization>
            <id value="df35b2b1-a56e-4080-9a44-4ba9e5b90813"/>
            <meta>
               <profile value="http://hl7.eu/fhir/base/StructureDefinition/organization-eu"/>
            </meta>
            <text>
               <status value="generated"/>
               <div xmlns="http://www.w3.org/1999/xhtml">Provider Organization: Poradnia rehabilitacyjna</div>
            </text>
            <identifier>
               <system value="urn:oid:2.16.840.1.113883.2.51.999"/>
               <value value="bd630857-6868-43af-9313-e907d51a8f9d"/>
               <assigner>
                  <display value="HL7 Europe"/>
               </assigner>
            </identifier>
            <name value="Poradnia rehabilitacyjna"/>
            <address>
               <city value="Tomaszów Mazowiecki"/>
               <postalCode value="97-200"/>
               <country value="Poland"/>
            </address>
         </Organization>
      </resource>
   </entry>
   <entry>
      <fullUrl value="urn:uuid:1fae746e-9a70-4d12-b252-6782acefafc7"/>
      <resource>
         <Specimen>
            <id value="1fae746e-9a70-4d12-b252-6782acefafc7"/>
            <meta>
               <profile value="http://hl7.eu/fhir/laboratory/StructureDefinition/Specimen-eu-lab"/>
            </meta>
            <text>
               <status value="generated"/>
               <div xmlns="http://www.w3.org/1999/xhtml">
                  <table class="hl7__eu__lab__report">
                     <tr>
                        <th>Specimen</th>
                        <th>Collection Date</th>
                     </tr>
                     <tr>
                        <td>Whole blood specimen (specimen)</td>
                        <td>
                           <span class="nb">25-May-2017</span>
                        </td>
                     </tr>
                  </table>
               </div>
            </text>
            <type>
               <coding>
                  <system value="http://snomed.info/sct"/>
                  <code value="258580003"/>
                  <display value="Whole blood specimen (specimen)"/>
               </coding>
            </type>
            <collection>
               <collectedDateTime value="2017-05-25"/>
            </collection>
         </Specimen>
      </resource>
   </entry>
   <entry>
      <fullUrl value="urn:uuid:1fae746e-9a70-4d12-b252-6782acefafc7"/>
      <resource>
         <Specimen>
            <id value="1fae746e-9a70-4d12-b252-6782acefafc7"/>
            <meta>
               <profile value="http://hl7.eu/fhir/laboratory/StructureDefinition/Specimen-eu-lab"/>
            </meta>
            <text>
               <status value="generated"/>
               <div xmlns="http://www.w3.org/1999/xhtml">
                  <table class="hl7__eu__lab__report">
                     <tr>
                        <th>Specimen</th>
                        <th>Collection Date</th>
                     </tr>
                     <tr>
                        <td>Whole blood specimen (specimen)</td>
                        <td>
                           <span class="nb">25-May-2017</span>
                        </td>
                     </tr>
                  </table>
               </div>
            </text>
            <type>
               <coding>
                  <system value="http://snomed.info/sct"/>
                  <code value="258580003"/>
                  <display value="Whole blood specimen (specimen)"/>
               </coding>
            </type>
            <collection>
               <collectedDateTime value="2017-05-25"/>
            </collection>
         </Specimen>
      </resource>
   </entry>
   <entry>
      <fullUrl value="urn:uuid:ed78484e-7e80-42dc-83a5-5965e95d169b"/>
      <resource>
         <Specimen>
            <id value="ed78484e-7e80-42dc-83a5-5965e95d169b"/>
            <meta>
               <profile value="http://hl7.eu/fhir/laboratory/StructureDefinition/Specimen-eu-lab"/>
            </meta>
            <text>
               <status value="generated"/>
               <div xmlns="http://www.w3.org/1999/xhtml">
                  <table class="hl7__eu__lab__report">
                     <tr>
                        <th>Specimen</th>
                        <th>Collection Date</th>
                     </tr>
                     <tr>
                        <td>Acellular blood (serum or plasma) specimen</td>
                        <td>
                           <span class="nb">25-May-2017</span>
                        </td>
                     </tr>
                  </table>
               </div>
            </text>
            <type>
               <coding>
                  <system value="http://snomed.info/sct"/>
                  <code value="122592007"/>
                  <display value="Acellular blood (serum or plasma) specimen"/>
               </coding>
            </type>
            <collection>
               <collectedDateTime value="2017-05-25"/>
            </collection>
         </Specimen>
      </resource>
   </entry>
   <entry>
      <fullUrl value="urn:uuid:6105b88e-b253-4056-aacf-03ddfe600bb5"/>
      <resource>
         <Specimen>
            <id value="6105b88e-b253-4056-aacf-03ddfe600bb5"/>
            <meta>
               <profile value="http://hl7.eu/fhir/laboratory/StructureDefinition/Specimen-eu-lab"/>
            </meta>
            <text>
               <status value="generated"/>
               <div xmlns="http://www.w3.org/1999/xhtml">
                  <table class="hl7__eu__lab__report">
                     <tr>
                        <th>Specimen</th>
                        <th>Collection Date</th>
                     </tr>
                     <tr>
                        <td>Platelet poor plasma specimen</td>
                        <td>
                           <span class="nb">25-May-2017</span>
                        </td>
                     </tr>
                  </table>
               </div>
            </text>
            <type>
               <coding>
                  <system value="http://snomed.info/sct"/>
                  <code value="119362004"/>
                  <display value="Platelet poor plasma specimen"/>
               </coding>
            </type>
            <collection>
               <collectedDateTime value="2017-05-25"/>
            </collection>
         </Specimen>
      </resource>
   </entry>
   <entry>
      <fullUrl value="urn:uuid:f2c3d678-db45-4c92-a6b7-3418d3e81239"/>
      <resource>
         <Specimen>
            <id value="f2c3d678-db45-4c92-a6b7-3418d3e81239"/>
            <meta>
               <profile value="http://hl7.eu/fhir/laboratory/StructureDefinition/Specimen-eu-lab"/>
            </meta>
            <text>
               <status value="generated"/>
               <div xmlns="http://www.w3.org/1999/xhtml">
                  <table class="hl7__eu__lab__report">
                     <tr>
                        <th>Specimen</th>
                        <th>Collection Date</th>
                     </tr>
                     <tr>
                        <td>Arterial blood specimen</td>
                        <td>
                           <span class="nb">25-May-2017</span>
                        </td>
                     </tr>
                  </table>
               </div>
            </text>
            <type>
               <coding>
                  <system value="http://snomed.info/sct"/>
                  <code value="122552005"/>
                  <display value="Arterial blood specimen"/>
               </coding>
            </type>
            <collection>
               <collectedDateTime value="2017-05-25"/>
            </collection>
         </Specimen>
      </resource>
   </entry>
   <entry>
      <fullUrl value="urn:uuid:d02e70e1-1abd-4ef8-81e9-61f36e411222"/>
      <resource>
         <Observation>
            <id value="d02e70e1-1abd-4ef8-81e9-61f36e411222"/>
            <meta>
               <profile value="http://hl7.eu/fhir/laboratory/StructureDefinition/Observation-resultslab-eu-lab"/>
            </meta>
            <text>
               <status value="generated"/>
               <div xmlns="http://www.w3.org/1999/xhtml">
                  <table class="hl7__eu__lab__report">
                     <tr>
                        <th>Test</th>
                        <th>25-May-2017</th>
                        <th>Reference Range</th>
                        <th>Unit</th>
                     </tr>
                     <tr>
                        <td>Leukocytes [#/volume] in Blood by Automated count</td>
                        <td>9.2</td>
                        <td>4 - 11</td>
                        <td/>
                        <td>10*3/uL</td>
                     </tr>
                  </table>
               </div>
            </text>
            <status value="final"/>
            <category>
               <coding>
                  <system value="http://terminology.hl7.org/CodeSystem/observation-category"/>
                  <code value="laboratory"/>
               </coding>
            </category>
            <code>
               <coding>
                  <system value="http://loinc.org"/>
                  <code value="6690-2"/>
                  <display value="Leukocytes [#/volume] in Blood by Automated count"/>
               </coding>
               <text value="Leukocytes [#/volume] in Blood by Automated count"/>
            </code>
            <subject>
               <reference value="urn:uuid:cca6411c-f997-423a-8a51-6075c0a6b202"/>
               <display value="Aniela Prażmo"/>
            </subject>
            <effectiveDateTime value="2017-05-25T07:28:22Z"/>
            <performer>
               <display value="The Central European Lab"/>
            </performer>
            <valueQuantity>
               <value value="9.2"/>
               <unit value="10*3/uL"/>
               <system value="http://unitsofmeasure.org"/>
               <code value="10*3/uL"/>
            </valueQuantity>
            <specimen>
               <reference value="urn:uuid:1fae746e-9a70-4d12-b252-6782acefafc7"/>
            </specimen>
            <referenceRange>
               <low>
                  <value value="4"/>
                  <system value="http://unitsofmeasure.org"/>
                  <code value="10*3/uL"/>
               </low>
            </referenceRange>
            <referenceRange>
               <high>
                  <value value="11"/>
                  <system value="http://unitsofmeasure.org"/>
                  <code value="10*3/uL"/>
               </high>
            </referenceRange>
         </Observation>
      </resource>
   </entry>
   <entry>
      <fullUrl value="urn:uuid:5d745cbe-184c-4c61-8702-c8247b57c41c"/>
      <resource>
         <Observation>
            <id value="5d745cbe-184c-4c61-8702-c8247b57c41c"/>
            <meta>
               <profile value="http://hl7.eu/fhir/laboratory/StructureDefinition/Observation-resultslab-eu-lab"/>
            </meta>
            <text>
               <status value="generated"/>
               <div xmlns="http://www.w3.org/1999/xhtml">
                  <table class="hl7__eu__lab__report">
                     <tr>
                        <th>Test</th>
                        <th>25-May-2017</th>
                        <th>Reference Range</th>
                        <th>Unit</th>
                     </tr>
                     <tr>
                        <td>Erythrocytes [#/volume] in Blood by Automated count</td>
                        <td>5.8</td>
                        <td>3.8 - 5.7</td>
                        <td>H</td>
                        <td>10*6/uL</td>
                     </tr>
                  </table>
               </div>
            </text>
            <status value="final"/>
            <category>
               <coding>
                  <system value="http://terminology.hl7.org/CodeSystem/observation-category"/>
                  <code value="laboratory"/>
               </coding>
            </category>
            <code>
               <coding>
                  <system value="http://loinc.org"/>
                  <code value="789-8"/>
                  <display value="Erythrocytes [#/volume] in Blood by Automated count"/>
               </coding>
               <text value="Erythrocytes [#/volume] in Blood by Automated count"/>
            </code>
            <subject>
               <reference value="urn:uuid:cca6411c-f997-423a-8a51-6075c0a6b202"/>
               <display value="Aniela Prażmo"/>
            </subject>
            <effectiveDateTime value="2017-05-25T07:28:22Z"/>
            <performer>
               <display value="The Central European Lab"/>
            </performer>
            <valueQuantity>
               <value value="5.8"/>
               <unit value="10*6/uL"/>
               <system value="http://unitsofmeasure.org"/>
               <code value="10*6/uL"/>
            </valueQuantity>
            <interpretation>
               <coding>
                  <system value="http://terminology.hl7.org/CodeSystem/v3-ObservationInterpretation"/>
                  <code value="H"/>
                  <display value="High"/>
               </coding>
            </interpretation>
            <specimen>
               <reference value="urn:uuid:1fae746e-9a70-4d12-b252-6782acefafc7"/>
            </specimen>
            <referenceRange>
               <low>
                  <value value="3.8"/>
                  <system value="http://unitsofmeasure.org"/>
                  <code value="10*6/uL"/>
               </low>
            </referenceRange>
            <referenceRange>
               <high>
                  <value value="5.7"/>
                  <system value="http://unitsofmeasure.org"/>
                  <code value="10*6/uL"/>
               </high>
            </referenceRange>
         </Observation>
      </resource>
   </entry>
   <entry>
      <fullUrl value="urn:uuid:85cf931a-78ff-477a-bbce-63d364b33f8f"/>
      <resource>
         <Observation>
            <id value="85cf931a-78ff-477a-bbce-63d364b33f8f"/>
            <meta>
               <profile value="http://hl7.eu/fhir/laboratory/StructureDefinition/Observation-resultslab-eu-lab"/>
            </meta>
            <text>
               <status value="generated"/>
               <div xmlns="http://www.w3.org/1999/xhtml">
                  <table class="hl7__eu__lab__report">
                     <tr>
                        <th>Test</th>
                        <th>25-May-2017</th>
                        <th>Reference Range</th>
                        <th>Unit</th>
                     </tr>
                     <tr>
                        <td>Hemoglobin [Mass/volume] in Blood</td>
                        <td>13.4</td>
                        <td>12 - 16</td>
                        <td/>
                        <td>g/dL</td>
                     </tr>
                  </table>
               </div>
            </text>
            <status value="final"/>
            <category>
               <coding>
                  <system value="http://terminology.hl7.org/CodeSystem/observation-category"/>
                  <code value="laboratory"/>
               </coding>
            </category>
            <code>
               <coding>
                  <system value="http://loinc.org"/>
                  <code value="718-7"/>
                  <display value="Hemoglobin [Mass/volume] in Blood"/>
               </coding>
               <text value="Hemoglobin [Mass/volume] in Blood"/>
            </code>
            <subject>
               <reference value="urn:uuid:cca6411c-f997-423a-8a51-6075c0a6b202"/>
               <display value="Aniela Prażmo"/>
            </subject>
            <effectiveDateTime value="2017-05-25T07:28:22Z"/>
            <performer>
               <display value="The Central European Lab"/>
            </performer>
            <valueQuantity>
               <value value="13.4"/>
               <unit value="g/dL"/>
               <system value="http://unitsofmeasure.org"/>
               <code value="g/dL"/>
            </valueQuantity>
            <specimen>
               <reference value="urn:uuid:1fae746e-9a70-4d12-b252-6782acefafc7"/>
            </specimen>
            <referenceRange>
               <low>
                  <value value="12"/>
                  <system value="http://unitsofmeasure.org"/>
                  <code value="g/dL"/>
               </low>
            </referenceRange>
            <referenceRange>
               <high>
                  <value value="16"/>
                  <system value="http://unitsofmeasure.org"/>
                  <code value="g/dL"/>
               </high>
            </referenceRange>
         </Observation>
      </resource>
   </entry>
   <entry>
      <fullUrl value="urn:uuid:c37ed196-37b2-48f9-820d-6e374a632b4e"/>
      <resource>
         <Observation>
            <id value="c37ed196-37b2-48f9-820d-6e374a632b4e"/>
            <meta>
               <profile value="http://hl7.eu/fhir/laboratory/StructureDefinition/Observation-resultslab-eu-lab"/>
            </meta>
            <text>
               <status value="generated"/>
               <div xmlns="http://www.w3.org/1999/xhtml">
                  <table class="hl7__eu__lab__report">
                     <tr>
                        <th>Test</th>
                        <th>25-May-2017</th>
                        <th>Reference Range</th>
                        <th>Unit</th>
                     </tr>
                     <tr>
                        <td>Hematocrit [Volume Fraction] of Blood by Automated count</td>
                        <td>47.6</td>
                        <td>38 - 56</td>
                        <td/>
                        <td>%</td>
                     </tr>
                  </table>
               </div>
            </text>
            <status value="final"/>
            <category>
               <coding>
                  <system value="http://terminology.hl7.org/CodeSystem/observation-category"/>
                  <code value="laboratory"/>
               </coding>
            </category>
            <code>
               <coding>
                  <system value="http://loinc.org"/>
                  <code value="4544-3"/>
                  <display value="Hematocrit [Volume Fraction] of Blood by Automated count"/>
               </coding>
               <text value="Hematocrit [Volume Fraction] of Blood by Automated count"/>
            </code>
            <subject>
               <reference value="urn:uuid:cca6411c-f997-423a-8a51-6075c0a6b202"/>
               <display value="Aniela Prażmo"/>
            </subject>
            <effectiveDateTime value="2017-05-25T07:28:22Z"/>
            <performer>
               <display value="The Central European Lab"/>
            </performer>
            <valueQuantity>
               <value value="47.6"/>
               <unit value="%"/>
               <system value="http://unitsofmeasure.org"/>
               <code value="%"/>
            </valueQuantity>
            <specimen>
               <reference value="urn:uuid:1fae746e-9a70-4d12-b252-6782acefafc7"/>
            </specimen>
            <referenceRange>
               <low>
                  <value value="38"/>
                  <system value="http://unitsofmeasure.org"/>
                  <code value="%"/>
               </low>
            </referenceRange>
            <referenceRange>
               <high>
                  <value value="56"/>
                  <system value="http://unitsofmeasure.org"/>
                  <code value="%"/>
               </high>
            </referenceRange>
         </Observation>
      </resource>
   </entry>
   <entry>
      <fullUrl value="urn:uuid:64e58966-7e6a-4b51-8822-f7b08ff6212a"/>
      <resource>
         <Observation>
            <id value="64e58966-7e6a-4b51-8822-f7b08ff6212a"/>
            <meta>
               <profile value="http://hl7.eu/fhir/laboratory/StructureDefinition/Observation-resultslab-eu-lab"/>
            </meta>
            <text>
               <status value="generated"/>
               <div xmlns="http://www.w3.org/1999/xhtml">
                  <table class="hl7__eu__lab__report">
                     <tr>
                        <th>Test</th>
                        <th>25-May-2017</th>
                        <th>Reference Range</th>
                        <th>Unit</th>
                     </tr>
                     <tr>
                        <td>MCV [Entitic volume] by Automated count</td>
                        <td>90.6</td>
                        <td>78 - 98</td>
                        <td/>
                        <td>fL</td>
                     </tr>
                  </table>
               </div>
            </text>
            <status value="final"/>
            <category>
               <coding>
                  <system value="http://terminology.hl7.org/CodeSystem/observation-category"/>
                  <code value="laboratory"/>
               </coding>
            </category>
            <code>
               <coding>
                  <system value="http://loinc.org"/>
                  <code value="787-2"/>
                  <display value="MCV [Entitic volume] by Automated count"/>
               </coding>
               <text value="MCV [Entitic volume] by Automated count"/>
            </code>
            <subject>
               <reference value="urn:uuid:cca6411c-f997-423a-8a51-6075c0a6b202"/>
               <display value="Aniela Prażmo"/>
            </subject>
            <effectiveDateTime value="2017-05-25T07:28:22Z"/>
            <performer>
               <display value="The Central European Lab"/>
            </performer>
            <valueQuantity>
               <value value="90.6"/>
               <unit value="fL"/>
               <system value="http://unitsofmeasure.org"/>
               <code value="fL"/>
            </valueQuantity>
            <specimen>
               <reference value="urn:uuid:1fae746e-9a70-4d12-b252-6782acefafc7"/>
            </specimen>
            <referenceRange>
               <low>
                  <value value="78"/>
                  <system value="http://unitsofmeasure.org"/>
                  <code value="fL"/>
               </low>
            </referenceRange>
            <referenceRange>
               <high>
                  <value value="98"/>
                  <system value="http://unitsofmeasure.org"/>
                  <code value="fL"/>
               </high>
            </referenceRange>
         </Observation>
      </resource>
   </entry>
   <entry>
      <fullUrl value="urn:uuid:8fe6c0fd-958e-4272-baaf-e66b8901573e"/>
      <resource>
         <Observation>
            <id value="8fe6c0fd-958e-4272-baaf-e66b8901573e"/>
            <meta>
               <profile value="http://hl7.eu/fhir/laboratory/StructureDefinition/Observation-resultslab-eu-lab"/>
            </meta>
            <text>
               <status value="generated"/>
               <div xmlns="http://www.w3.org/1999/xhtml">
                  <table class="hl7__eu__lab__report">
                     <tr>
                        <th>Test</th>
                        <th>25-May-2017</th>
                        <th>Reference Range</th>
                        <th>Unit</th>
                     </tr>
                     <tr>
                        <td>MCH [Entitic mass] by Automated count</td>
                        <td>30.8</td>
                        <td>27 - 34</td>
                        <td/>
                        <td>pg</td>
                     </tr>
                  </table>
               </div>
            </text>
            <status value="final"/>
            <category>
               <coding>
                  <system value="http://terminology.hl7.org/CodeSystem/observation-category"/>
                  <code value="laboratory"/>
               </coding>
            </category>
            <code>
               <coding>
                  <system value="http://loinc.org"/>
                  <code value="785-6"/>
                  <display value="MCH [Entitic mass] by Automated count"/>
               </coding>
               <text value="MCH [Entitic mass] by Automated count"/>
            </code>
            <subject>
               <reference value="urn:uuid:cca6411c-f997-423a-8a51-6075c0a6b202"/>
               <display value="Aniela Prażmo"/>
            </subject>
            <effectiveDateTime value="2017-05-25T07:28:22Z"/>
            <performer>
               <display value="The Central European Lab"/>
            </performer>
            <valueQuantity>
               <value value="30.8"/>
               <unit value="pg"/>
               <system value="http://unitsofmeasure.org"/>
               <code value="pg"/>
            </valueQuantity>
            <specimen>
               <reference value="urn:uuid:1fae746e-9a70-4d12-b252-6782acefafc7"/>
            </specimen>
            <referenceRange>
               <low>
                  <value value="27"/>
                  <system value="http://unitsofmeasure.org"/>
                  <code value="pg"/>
               </low>
            </referenceRange>
            <referenceRange>
               <high>
                  <value value="34"/>
                  <system value="http://unitsofmeasure.org"/>
                  <code value="pg"/>
               </high>
            </referenceRange>
         </Observation>
      </resource>
   </entry>
   <entry>
      <fullUrl value="urn:uuid:de838a91-ce09-4ded-89a1-95ac1292f76d"/>
      <resource>
         <Observation>
            <id value="de838a91-ce09-4ded-89a1-95ac1292f76d"/>
            <meta>
               <profile value="http://hl7.eu/fhir/laboratory/StructureDefinition/Observation-resultslab-eu-lab"/>
            </meta>
            <text>
               <status value="generated"/>
               <div xmlns="http://www.w3.org/1999/xhtml">
                  <table class="hl7__eu__lab__report">
                     <tr>
                        <th>Test</th>
                        <th>25-May-2017</th>
                        <th>Reference Range</th>
                        <th>Unit</th>
                     </tr>
                     <tr>
                        <td>MCHC [Mass/volume] by Automated count</td>
                        <td>33.4</td>
                        <td>32 - 35</td>
                        <td/>
                        <td>g/dL</td>
                     </tr>
                  </table>
               </div>
            </text>
            <status value="final"/>
            <category>
               <coding>
                  <system value="http://terminology.hl7.org/CodeSystem/observation-category"/>
                  <code value="laboratory"/>
               </coding>
            </category>
            <code>
               <coding>
                  <system value="http://loinc.org"/>
                  <code value="786-4"/>
                  <display value="MCHC [Mass/volume] by Automated count"/>
               </coding>
               <text value="MCHC [Mass/volume] by Automated count"/>
            </code>
            <subject>
               <reference value="urn:uuid:cca6411c-f997-423a-8a51-6075c0a6b202"/>
               <display value="Aniela Prażmo"/>
            </subject>
            <effectiveDateTime value="2017-05-25T07:28:22Z"/>
            <performer>
               <display value="The Central European Lab"/>
            </performer>
            <valueQuantity>
               <value value="33.4"/>
               <unit value="g/dL"/>
               <system value="http://unitsofmeasure.org"/>
               <code value="g/dL"/>
            </valueQuantity>
            <specimen>
               <reference value="urn:uuid:1fae746e-9a70-4d12-b252-6782acefafc7"/>
            </specimen>
            <referenceRange>
               <low>
                  <value value="32"/>
                  <system value="http://unitsofmeasure.org"/>
                  <code value="g/dL"/>
               </low>
            </referenceRange>
            <referenceRange>
               <high>
                  <value value="35"/>
                  <system value="http://unitsofmeasure.org"/>
                  <code value="g/dL"/>
               </high>
            </referenceRange>
         </Observation>
      </resource>
   </entry>
   <entry>
      <fullUrl value="urn:uuid:6f245abd-df12-4e5a-9d00-964f8e6e3b94"/>
      <resource>
         <Observation>
            <id value="6f245abd-df12-4e5a-9d00-964f8e6e3b94"/>
            <meta>
               <profile value="http://hl7.eu/fhir/laboratory/StructureDefinition/Observation-resultslab-eu-lab"/>
            </meta>
            <text>
               <status value="generated"/>
               <div xmlns="http://www.w3.org/1999/xhtml">
                  <table class="hl7__eu__lab__report">
                     <tr>
                        <th>Test</th>
                        <th>25-May-2017</th>
                        <th>Reference Range</th>
                        <th>Unit</th>
                     </tr>
                     <tr>
                        <td>Erythrocyte distribution width [Ratio] by Automated count</td>
                        <td>13.6</td>
                        <td>11.6 - 16.5</td>
                        <td/>
                        <td>%</td>
                     </tr>
                  </table>
               </div>
            </text>
            <status value="final"/>
            <category>
               <coding>
                  <system value="http://terminology.hl7.org/CodeSystem/observation-category"/>
                  <code value="laboratory"/>
               </coding>
            </category>
            <code>
               <coding>
                  <system value="http://loinc.org"/>
                  <code value="788-0"/>
                  <display value="Erythrocyte distribution width [Ratio] by Automated count"/>
               </coding>
               <text value="Erythrocyte distribution width [Ratio] by Automated count"/>
            </code>
            <subject>
               <reference value="urn:uuid:cca6411c-f997-423a-8a51-6075c0a6b202"/>
               <display value="Aniela Prażmo"/>
            </subject>
            <effectiveDateTime value="2017-05-25T07:28:22Z"/>
            <performer>
               <display value="The Central European Lab"/>
            </performer>
            <valueQuantity>
               <value value="13.6"/>
               <unit value="%"/>
               <system value="http://unitsofmeasure.org"/>
               <code value="%"/>
            </valueQuantity>
            <specimen>
               <reference value="urn:uuid:1fae746e-9a70-4d12-b252-6782acefafc7"/>
            </specimen>
            <referenceRange>
               <low>
                  <value value="11.6"/>
                  <system value="http://unitsofmeasure.org"/>
                  <code value="%"/>
               </low>
            </referenceRange>
            <referenceRange>
               <high>
                  <value value="16.5"/>
                  <system value="http://unitsofmeasure.org"/>
                  <code value="%"/>
               </high>
            </referenceRange>
         </Observation>
      </resource>
   </entry>
   <entry>
      <fullUrl value="urn:uuid:c1736629-5621-4e33-a243-745ea80c258c"/>
      <resource>
         <Observation>
            <id value="c1736629-5621-4e33-a243-745ea80c258c"/>
            <meta>
               <profile value="http://hl7.eu/fhir/laboratory/StructureDefinition/Observation-resultslab-eu-lab"/>
            </meta>
            <text>
               <status value="generated"/>
               <div xmlns="http://www.w3.org/1999/xhtml">
                  <table class="hl7__eu__lab__report">
                     <tr>
                        <th>Test</th>
                        <th>25-May-2017</th>
                        <th>Reference Range</th>
                        <th>Unit</th>
                     </tr>
                     <tr>
                        <td>Platelets [#/volume] in Blood by Automated count</td>
                        <td>376.0</td>
                        <td>157 - 415</td>
                        <td/>
                        <td>10*3/uL</td>
                     </tr>
                  </table>
               </div>
            </text>
            <status value="final"/>
            <category>
               <coding>
                  <system value="http://terminology.hl7.org/CodeSystem/observation-category"/>
                  <code value="laboratory"/>
               </coding>
            </category>
            <code>
               <coding>
                  <system value="http://loinc.org"/>
                  <code value="777-3"/>
                  <display value="Platelets [#/volume] in Blood by Automated count"/>
               </coding>
               <text value="Platelets [#/volume] in Blood by Automated count"/>
            </code>
            <subject>
               <reference value="urn:uuid:cca6411c-f997-423a-8a51-6075c0a6b202"/>
               <display value="Aniela Prażmo"/>
            </subject>
            <effectiveDateTime value="2017-05-25T07:28:22Z"/>
            <performer>
               <display value="The Central European Lab"/>
            </performer>
            <valueQuantity>
               <value value="376"/>
               <unit value="10*3/uL"/>
               <system value="http://unitsofmeasure.org"/>
               <code value="10*3/uL"/>
            </valueQuantity>
            <specimen>
               <reference value="urn:uuid:1fae746e-9a70-4d12-b252-6782acefafc7"/>
            </specimen>
            <referenceRange>
               <low>
                  <value value="157"/>
                  <system value="http://unitsofmeasure.org"/>
                  <code value="10*3/uL"/>
               </low>
            </referenceRange>
            <referenceRange>
               <high>
                  <value value="415"/>
                  <system value="http://unitsofmeasure.org"/>
                  <code value="10*3/uL"/>
               </high>
            </referenceRange>
         </Observation>
      </resource>
   </entry>
   <entry>
      <fullUrl value="urn:uuid:3bf0f046-096f-4b91-ac8b-2315917be26a"/>
      <resource>
         <Observation>
            <id value="3bf0f046-096f-4b91-ac8b-2315917be26a"/>
            <meta>
               <profile value="http://hl7.eu/fhir/laboratory/StructureDefinition/Observation-resultslab-eu-lab"/>
            </meta>
            <text>
               <status value="generated"/>
               <div xmlns="http://www.w3.org/1999/xhtml">
                  <table class="hl7__eu__lab__report">
                     <tr>
                        <th>Test</th>
                        <th>25-May-2017</th>
                        <th>Reference Range</th>
                        <th>Unit</th>
                     </tr>
                     <tr>
                        <td>Glucose [Mass/volume] in Serum or Plasma</td>
                        <td>71.5</td>
                        <td>70 - 99</td>
                        <td/>
                        <td>mg/dL</td>
                     </tr>
                  </table>
               </div>
            </text>
            <status value="final"/>
            <category>
               <coding>
                  <system value="http://terminology.hl7.org/CodeSystem/observation-category"/>
                  <code value="laboratory"/>
               </coding>
            </category>
            <code>
               <coding>
                  <system value="http://loinc.org"/>
                  <code value="2345-7"/>
                  <display value="Glucose [Mass/volume] in Serum or Plasma"/>
               </coding>
               <text value="Glucose [Mass/volume] in Serum or Plasma"/>
            </code>
            <subject>
               <reference value="urn:uuid:cca6411c-f997-423a-8a51-6075c0a6b202"/>
               <display value="Aniela Prażmo"/>
            </subject>
            <effectiveDateTime value="2017-05-25T07:28:22Z"/>
            <performer>
               <display value="The Central European Lab"/>
            </performer>
            <valueQuantity>
               <value value="71.5"/>
               <unit value="mg/dL"/>
               <system value="http://unitsofmeasure.org"/>
               <code value="mg/dL"/>
            </valueQuantity>
            <specimen>
               <reference value="urn:uuid:ed78484e-7e80-42dc-83a5-5965e95d169b"/>
            </specimen>
            <referenceRange>
               <low>
                  <value value="70"/>
                  <system value="http://unitsofmeasure.org"/>
                  <code value="mg/dL"/>
               </low>
            </referenceRange>
            <referenceRange>
               <high>
                  <value value="99"/>
                  <system value="http://unitsofmeasure.org"/>
                  <code value="mg/dL"/>
               </high>
            </referenceRange>
         </Observation>
      </resource>
   </entry>
   <entry>
      <fullUrl value="urn:uuid:bb3d7ab7-bf18-4f4e-b688-7aea110b9a5d"/>
      <resource>
         <Observation>
            <id value="bb3d7ab7-bf18-4f4e-b688-7aea110b9a5d"/>
            <meta>
               <profile value="http://hl7.eu/fhir/laboratory/StructureDefinition/Observation-resultslab-eu-lab"/>
            </meta>
            <text>
               <status value="generated"/>
               <div xmlns="http://www.w3.org/1999/xhtml">
                  <table class="hl7__eu__lab__report">
                     <tr>
                        <th>Test</th>
                        <th>25-May-2017</th>
                        <th>Reference Range</th>
                        <th>Unit</th>
                     </tr>
                     <tr>
                        <td>Urea nitrogen [Mass/volume] in Serum or Plasma</td>
                        <td>7.8</td>
                        <td>7 - 20</td>
                        <td/>
                        <td>mg/dL</td>
                     </tr>
                  </table>
               </div>
            </text>
            <status value="final"/>
            <category>
               <coding>
                  <system value="http://terminology.hl7.org/CodeSystem/observation-category"/>
                  <code value="laboratory"/>
               </coding>
            </category>
            <code>
               <coding>
                  <system value="http://loinc.org"/>
                  <code value="3094-0"/>
                  <display value="Urea nitrogen [Mass/volume] in Serum or Plasma"/>
               </coding>
               <text value="Urea nitrogen [Mass/volume] in Serum or Plasma"/>
            </code>
            <subject>
               <reference value="urn:uuid:cca6411c-f997-423a-8a51-6075c0a6b202"/>
               <display value="Aniela Prażmo"/>
            </subject>
            <effectiveDateTime value="2017-05-25T07:28:22Z"/>
            <performer>
               <display value="The Central European Lab"/>
            </performer>
            <valueQuantity>
               <value value="7.8"/>
               <unit value="mg/dL"/>
               <system value="http://unitsofmeasure.org"/>
               <code value="mg/dL"/>
            </valueQuantity>
            <specimen>
               <reference value="urn:uuid:ed78484e-7e80-42dc-83a5-5965e95d169b"/>
            </specimen>
            <referenceRange>
               <low>
                  <value value="7"/>
                  <system value="http://unitsofmeasure.org"/>
                  <code value="mg/dL"/>
               </low>
            </referenceRange>
            <referenceRange>
               <high>
                  <value value="20"/>
                  <system value="http://unitsofmeasure.org"/>
                  <code value="mg/dL"/>
               </high>
            </referenceRange>
         </Observation>
      </resource>
   </entry>
   <entry>
      <fullUrl value="urn:uuid:fe62423d-4d27-439b-97d6-0bf0052f3b51"/>
      <resource>
         <Observation>
            <id value="fe62423d-4d27-439b-97d6-0bf0052f3b51"/>
            <meta>
               <profile value="http://hl7.eu/fhir/laboratory/StructureDefinition/Observation-resultslab-eu-lab"/>
            </meta>
            <text>
               <status value="generated"/>
               <div xmlns="http://www.w3.org/1999/xhtml">
                  <table class="hl7__eu__lab__report">
                     <tr>
                        <th>Test</th>
                        <th>25-May-2017</th>
                        <th>Reference Range</th>
                        <th>Unit</th>
                     </tr>
                     <tr>
                        <td>Creatinine [Mass/volume] in Serum or Plasma</td>
                        <td>2.9</td>
                        <td>0.6 - 1.3</td>
                        <td>H</td>
                        <td>mg/dL</td>
                     </tr>
                  </table>
               </div>
            </text>
            <status value="final"/>
            <category>
               <coding>
                  <system value="http://terminology.hl7.org/CodeSystem/observation-category"/>
                  <code value="laboratory"/>
               </coding>
            </category>
            <code>
               <coding>
                  <system value="http://loinc.org"/>
                  <code value="2160-0"/>
                  <display value="Creatinine [Mass/volume] in Serum or Plasma"/>
               </coding>
               <text value="Creatinine [Mass/volume] in Serum or Plasma"/>
            </code>
            <subject>
               <reference value="urn:uuid:cca6411c-f997-423a-8a51-6075c0a6b202"/>
               <display value="Aniela Prażmo"/>
            </subject>
            <effectiveDateTime value="2017-05-25T07:28:22Z"/>
            <performer>
               <display value="The Central European Lab"/>
            </performer>
            <valueQuantity>
               <value value="2.9"/>
               <unit value="mg/dL"/>
               <system value="http://unitsofmeasure.org"/>
               <code value="mg/dL"/>
            </valueQuantity>
            <interpretation>
               <coding>
                  <system value="http://terminology.hl7.org/CodeSystem/v3-ObservationInterpretation"/>
                  <code value="H"/>
                  <display value="High"/>
               </coding>
            </interpretation>
            <specimen>
               <reference value="urn:uuid:ed78484e-7e80-42dc-83a5-5965e95d169b"/>
            </specimen>
            <referenceRange>
               <low>
                  <value value="0.6"/>
                  <system value="http://unitsofmeasure.org"/>
                  <code value="mg/dL"/>
               </low>
            </referenceRange>
            <referenceRange>
               <high>
                  <value value="1.3"/>
                  <system value="http://unitsofmeasure.org"/>
                  <code value="mg/dL"/>
               </high>
            </referenceRange>
         </Observation>
      </resource>
   </entry>
   <entry>
      <fullUrl value="urn:uuid:6a71a0bd-f056-4c70-9958-e12104d09b6f"/>
      <resource>
         <Observation>
            <id value="6a71a0bd-f056-4c70-9958-e12104d09b6f"/>
            <meta>
               <profile value="http://hl7.eu/fhir/laboratory/StructureDefinition/Observation-resultslab-eu-lab"/>
            </meta>
            <text>
               <status value="generated"/>
               <div xmlns="http://www.w3.org/1999/xhtml">
                  <table class="hl7__eu__lab__report">
                     <tr>
                        <th>Test</th>
                        <th>25-May-2017</th>
                        <th>Reference Range</th>
                        <th>Unit</th>
                     </tr>
                     <tr>
                        <td>Calcium [Mass/volume] in Serum or Plasma</td>
                        <td>9.7</td>
                        <td>8.5 - 10.4</td>
                        <td/>
                        <td>mg/dL</td>
                     </tr>
                  </table>
               </div>
            </text>
            <status value="final"/>
            <category>
               <coding>
                  <system value="http://terminology.hl7.org/CodeSystem/observation-category"/>
                  <code value="laboratory"/>
               </coding>
            </category>
            <code>
               <coding>
                  <system value="http://loinc.org"/>
                  <code value="17861-6"/>
                  <display value="Calcium [Mass/volume] in Serum or Plasma"/>
               </coding>
               <text value="Calcium [Mass/volume] in Serum or Plasma"/>
            </code>
            <subject>
               <reference value="urn:uuid:cca6411c-f997-423a-8a51-6075c0a6b202"/>
               <display value="Aniela Prażmo"/>
            </subject>
            <effectiveDateTime value="2017-05-25T07:28:22Z"/>
            <performer>
               <display value="The Central European Lab"/>
            </performer>
            <valueQuantity>
               <value value="9.7"/>
               <unit value="mg/dL"/>
               <system value="http://unitsofmeasure.org"/>
               <code value="mg/dL"/>
            </valueQuantity>
            <specimen>
               <reference value="urn:uuid:ed78484e-7e80-42dc-83a5-5965e95d169b"/>
            </specimen>
            <referenceRange>
               <low>
                  <value value="8.5"/>
                  <system value="http://unitsofmeasure.org"/>
                  <code value="mg/dL"/>
               </low>
            </referenceRange>
            <referenceRange>
               <high>
                  <value value="10.4"/>
                  <system value="http://unitsofmeasure.org"/>
                  <code value="mg/dL"/>
               </high>
            </referenceRange>
         </Observation>
      </resource>
   </entry>
   <entry>
      <fullUrl value="urn:uuid:c00b39bc-b1d0-4d1d-a9ca-510c4abd33dd"/>
      <resource>
         <Observation>
            <id value="c00b39bc-b1d0-4d1d-a9ca-510c4abd33dd"/>
            <meta>
               <profile value="http://hl7.eu/fhir/laboratory/StructureDefinition/Observation-resultslab-eu-lab"/>
            </meta>
            <text>
               <status value="generated"/>
               <div xmlns="http://www.w3.org/1999/xhtml">
                  <table class="hl7__eu__lab__report">
                     <tr>
                        <th>Test</th>
                        <th>25-May-2017</th>
                        <th>Reference Range</th>
                        <th>Unit</th>
                     </tr>
                     <tr>
                        <td>Sodium [Moles/volume] in Serum or Plasma</td>
                        <td>136.6</td>
                        <td>135 - 145</td>
                        <td/>
                        <td>mmol/L</td>
                     </tr>
                  </table>
               </div>
            </text>
            <status value="final"/>
            <category>
               <coding>
                  <system value="http://terminology.hl7.org/CodeSystem/observation-category"/>
                  <code value="laboratory"/>
               </coding>
            </category>
            <code>
               <coding>
                  <system value="http://loinc.org"/>
                  <code value="2951-2"/>
                  <display value="Sodium [Moles/volume] in Serum or Plasma"/>
               </coding>
               <text value="Sodium [Moles/volume] in Serum or Plasma"/>
            </code>
            <subject>
               <reference value="urn:uuid:cca6411c-f997-423a-8a51-6075c0a6b202"/>
               <display value="Aniela Prażmo"/>
            </subject>
            <effectiveDateTime value="2017-05-25T07:28:22Z"/>
            <performer>
               <display value="The Central European Lab"/>
            </performer>
            <valueQuantity>
               <value value="136.6"/>
               <unit value="mmol/L"/>
               <system value="http://unitsofmeasure.org"/>
               <code value="mmol/L"/>
            </valueQuantity>
            <specimen>
               <reference value="urn:uuid:ed78484e-7e80-42dc-83a5-5965e95d169b"/>
            </specimen>
            <referenceRange>
               <low>
                  <value value="135"/>
                  <system value="http://unitsofmeasure.org"/>
                  <code value="mmol/L"/>
               </low>
            </referenceRange>
            <referenceRange>
               <high>
                  <value value="145"/>
                  <system value="http://unitsofmeasure.org"/>
                  <code value="mmol/L"/>
               </high>
            </referenceRange>
         </Observation>
      </resource>
   </entry>
   <entry>
      <fullUrl value="urn:uuid:2f99ae95-9f8b-4409-8c21-f1fde72d5f85"/>
      <resource>
         <Observation>
            <id value="2f99ae95-9f8b-4409-8c21-f1fde72d5f85"/>
            <meta>
               <profile value="http://hl7.eu/fhir/laboratory/StructureDefinition/Observation-resultslab-eu-lab"/>
            </meta>
            <text>
               <status value="generated"/>
               <div xmlns="http://www.w3.org/1999/xhtml">
                  <table class="hl7__eu__lab__report">
                     <tr>
                        <th>Test</th>
                        <th>25-May-2017</th>
                        <th>Reference Range</th>
                        <th>Unit</th>
                     </tr>
                     <tr>
                        <td>Potassium [Moles/volume] in Serum or Plasma</td>
                        <td>4.3</td>
                        <td>3.5 - 5.1</td>
                        <td/>
                        <td>mmol/L</td>
                     </tr>
                  </table>
               </div>
            </text>
            <status value="final"/>
            <category>
               <coding>
                  <system value="http://terminology.hl7.org/CodeSystem/observation-category"/>
                  <code value="laboratory"/>
               </coding>
            </category>
            <code>
               <coding>
                  <system value="http://loinc.org"/>
                  <code value="2823-3"/>
                  <display value="Potassium [Moles/volume] in Serum or Plasma"/>
               </coding>
               <text value="Potassium [Moles/volume] in Serum or Plasma"/>
            </code>
            <subject>
               <reference value="urn:uuid:cca6411c-f997-423a-8a51-6075c0a6b202"/>
               <display value="Aniela Prażmo"/>
            </subject>
            <effectiveDateTime value="2017-05-25T07:28:22Z"/>
            <performer>
               <display value="The Central European Lab"/>
            </performer>
            <valueQuantity>
               <value value="4.3"/>
               <unit value="mmol/L"/>
               <system value="http://unitsofmeasure.org"/>
               <code value="mmol/L"/>
            </valueQuantity>
            <specimen>
               <reference value="urn:uuid:ed78484e-7e80-42dc-83a5-5965e95d169b"/>
            </specimen>
            <referenceRange>
               <low>
                  <value value="3.5"/>
                  <system value="http://unitsofmeasure.org"/>
                  <code value="mmol/L"/>
               </low>
            </referenceRange>
            <referenceRange>
               <high>
                  <value value="5.1"/>
                  <system value="http://unitsofmeasure.org"/>
                  <code value="mmol/L"/>
               </high>
            </referenceRange>
         </Observation>
      </resource>
   </entry>
   <entry>
      <fullUrl value="urn:uuid:ad354df8-28b7-4445-bf8e-cfe69edd4eae"/>
      <resource>
         <Observation>
            <id value="ad354df8-28b7-4445-bf8e-cfe69edd4eae"/>
            <meta>
               <profile value="http://hl7.eu/fhir/laboratory/StructureDefinition/Observation-resultslab-eu-lab"/>
            </meta>
            <text>
               <status value="generated"/>
               <div xmlns="http://www.w3.org/1999/xhtml">
                  <table class="hl7__eu__lab__report">
                     <tr>
                        <th>Test</th>
                        <th>25-May-2017</th>
                        <th>Reference Range</th>
                        <th>Unit</th>
                     </tr>
                     <tr>
                        <td>Chloride [Moles/volume] in Serum or Plasma</td>
                        <td>105.0</td>
                        <td>98 - 108</td>
                        <td/>
                        <td>mmol/L</td>
                     </tr>
                  </table>
               </div>
            </text>
            <status value="final"/>
            <category>
               <coding>
                  <system value="http://terminology.hl7.org/CodeSystem/observation-category"/>
                  <code value="laboratory"/>
               </coding>
            </category>
            <code>
               <coding>
                  <system value="http://loinc.org"/>
                  <code value="2075-0"/>
                  <display value="Chloride [Moles/volume] in Serum or Plasma"/>
               </coding>
               <text value="Chloride [Moles/volume] in Serum or Plasma"/>
            </code>
            <subject>
               <reference value="urn:uuid:cca6411c-f997-423a-8a51-6075c0a6b202"/>
               <display value="Aniela Prażmo"/>
            </subject>
            <effectiveDateTime value="2017-05-25T07:28:22Z"/>
            <performer>
               <display value="The Central European Lab"/>
            </performer>
            <valueQuantity>
               <value value="105"/>
               <unit value="mmol/L"/>
               <system value="http://unitsofmeasure.org"/>
               <code value="mmol/L"/>
            </valueQuantity>
            <specimen>
               <reference value="urn:uuid:ed78484e-7e80-42dc-83a5-5965e95d169b"/>
            </specimen>
            <referenceRange>
               <low>
                  <value value="98"/>
                  <system value="http://unitsofmeasure.org"/>
                  <code value="mmol/L"/>
               </low>
            </referenceRange>
            <referenceRange>
               <high>
                  <value value="108"/>
                  <system value="http://unitsofmeasure.org"/>
                  <code value="mmol/L"/>
               </high>
            </referenceRange>
         </Observation>
      </resource>
   </entry>
   <entry>
      <fullUrl value="urn:uuid:9c70b208-ce15-4f5c-b63e-0fadd94ed16a"/>
      <resource>
         <Observation>
            <id value="9c70b208-ce15-4f5c-b63e-0fadd94ed16a"/>
            <meta>
               <profile value="http://hl7.eu/fhir/laboratory/StructureDefinition/Observation-resultslab-eu-lab"/>
            </meta>
            <text>
               <status value="generated"/>
               <div xmlns="http://www.w3.org/1999/xhtml">
                  <table class="hl7__eu__lab__report">
                     <tr>
                        <th>Test</th>
                        <th>25-May-2017</th>
                        <th>Reference Range</th>
                        <th>Unit</th>
                     </tr>
                     <tr>
                        <td>Carbon dioxide, total [Moles/volume] in Serum or Plasma</td>
                        <td>23.3</td>
                        <td>22 - 32</td>
                        <td/>
                        <td>mmol/L</td>
                     </tr>
                  </table>
               </div>
            </text>
            <status value="final"/>
            <category>
               <coding>
                  <system value="http://terminology.hl7.org/CodeSystem/observation-category"/>
                  <code value="laboratory"/>
               </coding>
            </category>
            <code>
               <coding>
                  <system value="http://loinc.org"/>
                  <code value="2028-9"/>
                  <display value="Carbon dioxide, total [Moles/volume] in Serum or Plasma"/>
               </coding>
               <text value="Carbon dioxide, total [Moles/volume] in Serum or Plasma"/>
            </code>
            <subject>
               <reference value="urn:uuid:cca6411c-f997-423a-8a51-6075c0a6b202"/>
               <display value="Aniela Prażmo"/>
            </subject>
            <effectiveDateTime value="2017-05-25T07:28:22Z"/>
            <performer>
               <display value="The Central European Lab"/>
            </performer>
            <valueQuantity>
               <value value="23.3"/>
               <unit value="mmol/L"/>
               <system value="http://unitsofmeasure.org"/>
               <code value="mmol/L"/>
            </valueQuantity>
            <specimen>
               <reference value="urn:uuid:ed78484e-7e80-42dc-83a5-5965e95d169b"/>
            </specimen>
            <referenceRange>
               <low>
                  <value value="22"/>
                  <system value="http://unitsofmeasure.org"/>
                  <code value="mmol/L"/>
               </low>
            </referenceRange>
            <referenceRange>
               <high>
                  <value value="32"/>
                  <system value="http://unitsofmeasure.org"/>
                  <code value="mmol/L"/>
               </high>
            </referenceRange>
         </Observation>
      </resource>
   </entry>
   <entry>
      <fullUrl value="urn:uuid:1bf2f05a-3346-4dd2-8c25-764e6ea03734"/>
      <resource>
         <Observation>
            <id value="1bf2f05a-3346-4dd2-8c25-764e6ea03734"/>
            <meta>
               <profile value="http://hl7.eu/fhir/laboratory/StructureDefinition/Observation-resultslab-eu-lab"/>
            </meta>
            <text>
               <status value="generated"/>
               <div xmlns="http://www.w3.org/1999/xhtml">
                  <table class="hl7__eu__lab__report">
                     <tr>
                        <th>Test</th>
                        <th>25-May-2017</th>
                        <th>Reference Range</th>
                        <th>Unit</th>
                     </tr>
                     <tr>
                        <td>Protein [Mass/volume] in Serum or Plasma</td>
                        <td>7.8</td>
                        <td>6 - 8.3</td>
                        <td/>
                        <td>g/dL</td>
                     </tr>
                  </table>
               </div>
            </text>
            <status value="final"/>
            <category>
               <coding>
                  <system value="http://terminology.hl7.org/CodeSystem/observation-category"/>
                  <code value="laboratory"/>
               </coding>
            </category>
            <code>
               <coding>
                  <system value="http://loinc.org"/>
                  <code value="2885-2"/>
                  <display value="Protein [Mass/volume] in Serum or Plasma"/>
               </coding>
               <text value="Protein [Mass/volume] in Serum or Plasma"/>
            </code>
            <subject>
               <reference value="urn:uuid:cca6411c-f997-423a-8a51-6075c0a6b202"/>
               <display value="Aniela Prażmo"/>
            </subject>
            <effectiveDateTime value="2017-05-25T07:28:22Z"/>
            <performer>
               <display value="The Central European Lab"/>
            </performer>
            <valueQuantity>
               <value value="7.8"/>
               <unit value="g/dL"/>
               <system value="http://unitsofmeasure.org"/>
               <code value="g/dL"/>
            </valueQuantity>
            <specimen>
               <reference value="urn:uuid:ed78484e-7e80-42dc-83a5-5965e95d169b"/>
            </specimen>
            <referenceRange>
               <low>
                  <value value="6"/>
                  <system value="http://unitsofmeasure.org"/>
                  <code value="g/dL"/>
               </low>
            </referenceRange>
            <referenceRange>
               <high>
                  <value value="8.3"/>
                  <system value="http://unitsofmeasure.org"/>
                  <code value="g/dL"/>
               </high>
            </referenceRange>
         </Observation>
      </resource>
   </entry>
   <entry>
      <fullUrl value="urn:uuid:e1c54bc2-2497-4e17-b55e-81304182dc35"/>
      <resource>
         <Observation>
            <id value="e1c54bc2-2497-4e17-b55e-81304182dc35"/>
            <meta>
               <profile value="http://hl7.eu/fhir/laboratory/StructureDefinition/Observation-resultslab-eu-lab"/>
            </meta>
            <text>
               <status value="generated"/>
               <div xmlns="http://www.w3.org/1999/xhtml">
                  <table class="hl7__eu__lab__report">
                     <tr>
                        <th>Test</th>
                        <th>25-May-2017</th>
                        <th>Reference Range</th>
                        <th>Unit</th>
                     </tr>
                     <tr>
                        <td>Albumin [Mass/volume] in Serum or Plasma</td>
                        <td>4.5</td>
                        <td>3.5 - 5</td>
                        <td/>
                        <td>g/dL</td>
                     </tr>
                  </table>
               </div>
            </text>
            <status value="final"/>
            <category>
               <coding>
                  <system value="http://terminology.hl7.org/CodeSystem/observation-category"/>
                  <code value="laboratory"/>
               </coding>
            </category>
            <code>
               <coding>
                  <system value="http://loinc.org"/>
                  <code value="1751-7"/>
                  <display value="Albumin [Mass/volume] in Serum or Plasma"/>
               </coding>
               <text value="Albumin [Mass/volume] in Serum or Plasma"/>
            </code>
            <subject>
               <reference value="urn:uuid:cca6411c-f997-423a-8a51-6075c0a6b202"/>
               <display value="Aniela Prażmo"/>
            </subject>
            <effectiveDateTime value="2017-05-25T07:28:22Z"/>
            <performer>
               <display value="The Central European Lab"/>
            </performer>
            <valueQuantity>
               <value value="4.5"/>
               <unit value="g/dL"/>
               <system value="http://unitsofmeasure.org"/>
               <code value="g/dL"/>
            </valueQuantity>
            <specimen>
               <reference value="urn:uuid:ed78484e-7e80-42dc-83a5-5965e95d169b"/>
            </specimen>
            <referenceRange>
               <low>
                  <value value="3.5"/>
                  <system value="http://unitsofmeasure.org"/>
                  <code value="g/dL"/>
               </low>
            </referenceRange>
            <referenceRange>
               <high>
                  <value value="5"/>
                  <system value="http://unitsofmeasure.org"/>
                  <code value="g/dL"/>
               </high>
            </referenceRange>
         </Observation>
      </resource>
   </entry>
   <entry>
      <fullUrl value="urn:uuid:abe24b77-0102-4bf5-a92f-1ee1dfbfe0f2"/>
      <resource>
         <Observation>
            <id value="abe24b77-0102-4bf5-a92f-1ee1dfbfe0f2"/>
            <meta>
               <profile value="http://hl7.eu/fhir/laboratory/StructureDefinition/Observation-resultslab-eu-lab"/>
            </meta>
            <text>
               <status value="generated"/>
               <div xmlns="http://www.w3.org/1999/xhtml">
                  <table class="hl7__eu__lab__report">
                     <tr>
                        <th>Test</th>
                        <th>25-May-2017</th>
                        <th>Reference Range</th>
                        <th>Unit</th>
                     </tr>
                     <tr>
                        <td>Bilirubin.total [Mass/volume] in Serum or Plasma</td>
                        <td>11.8</td>
                        <td>0.3 - 1.2</td>
                        <td>H</td>
                        <td>mg/dL</td>
                     </tr>
                  </table>
               </div>
            </text>
            <status value="final"/>
            <category>
               <coding>
                  <system value="http://terminology.hl7.org/CodeSystem/observation-category"/>
                  <code value="laboratory"/>
               </coding>
            </category>
            <code>
               <coding>
                  <system value="http://loinc.org"/>
                  <code value="1975-2"/>
                  <display value="Bilirubin.total [Mass/volume] in Serum or Plasma"/>
               </coding>
               <text value="Bilirubin.total [Mass/volume] in Serum or Plasma"/>
            </code>
            <subject>
               <reference value="urn:uuid:cca6411c-f997-423a-8a51-6075c0a6b202"/>
               <display value="Aniela Prażmo"/>
            </subject>
            <effectiveDateTime value="2017-05-25T07:28:22Z"/>
            <performer>
               <display value="The Central European Lab"/>
            </performer>
            <valueQuantity>
               <value value="11.8"/>
               <unit value="mg/dL"/>
               <system value="http://unitsofmeasure.org"/>
               <code value="mg/dL"/>
            </valueQuantity>
            <interpretation>
               <coding>
                  <system value="http://terminology.hl7.org/CodeSystem/v3-ObservationInterpretation"/>
                  <code value="H"/>
                  <display value="High"/>
               </coding>
            </interpretation>
            <specimen>
               <reference value="urn:uuid:ed78484e-7e80-42dc-83a5-5965e95d169b"/>
            </specimen>
            <referenceRange>
               <low>
                  <value value="0.3"/>
                  <system value="http://unitsofmeasure.org"/>
                  <code value="mg/dL"/>
               </low>
            </referenceRange>
            <referenceRange>
               <high>
                  <value value="1.2"/>
                  <system value="http://unitsofmeasure.org"/>
                  <code value="mg/dL"/>
               </high>
            </referenceRange>
         </Observation>
      </resource>
   </entry>
   <entry>
      <fullUrl value="urn:uuid:8da5b67e-0ab3-4e0e-bf2f-a627d36bb120"/>
      <resource>
         <Observation>
            <id value="8da5b67e-0ab3-4e0e-bf2f-a627d36bb120"/>
            <meta>
               <profile value="http://hl7.eu/fhir/laboratory/StructureDefinition/Observation-resultslab-eu-lab"/>
            </meta>
            <text>
               <status value="generated"/>
               <div xmlns="http://www.w3.org/1999/xhtml">
                  <table class="hl7__eu__lab__report">
                     <tr>
                        <th>Test</th>
                        <th>25-May-2017</th>
                        <th>Reference Range</th>
                        <th>Unit</th>
                     </tr>
                     <tr>
                        <td>Alkaline phosphatase [Enzymatic activity/volume] in Serum or Plasma</td>
                        <td>46.2</td>
                        <td>32 - 150</td>
                        <td/>
                        <td>U/L</td>
                     </tr>
                  </table>
               </div>
            </text>
            <status value="final"/>
            <category>
               <coding>
                  <system value="http://terminology.hl7.org/CodeSystem/observation-category"/>
                  <code value="laboratory"/>
               </coding>
            </category>
            <code>
               <coding>
                  <system value="http://loinc.org"/>
                  <code value="6768-6"/>
                  <display value="Alkaline phosphatase [Enzymatic activity/volume] in Serum or Plasma"/>
               </coding>
               <text value="Alkaline phosphatase [Enzymatic activity/volume] in Serum or Plasma"/>
            </code>
            <subject>
               <reference value="urn:uuid:cca6411c-f997-423a-8a51-6075c0a6b202"/>
               <display value="Aniela Prażmo"/>
            </subject>
            <effectiveDateTime value="2017-05-25T07:28:22Z"/>
            <performer>
               <display value="The Central European Lab"/>
            </performer>
            <valueQuantity>
               <value value="46.2"/>
               <unit value="U/L"/>
               <system value="http://unitsofmeasure.org"/>
               <code value="U/L"/>
            </valueQuantity>
            <specimen>
               <reference value="urn:uuid:ed78484e-7e80-42dc-83a5-5965e95d169b"/>
            </specimen>
            <referenceRange>
               <low>
                  <value value="32"/>
                  <system value="http://unitsofmeasure.org"/>
                  <code value="U/L"/>
               </low>
            </referenceRange>
            <referenceRange>
               <high>
                  <value value="150"/>
                  <system value="http://unitsofmeasure.org"/>
                  <code value="U/L"/>
               </high>
            </referenceRange>
         </Observation>
      </resource>
   </entry>
   <entry>
      <fullUrl value="urn:uuid:7ce0b9fc-7153-4b7a-86ce-818241f8dd25"/>
      <resource>
         <Observation>
            <id value="7ce0b9fc-7153-4b7a-86ce-818241f8dd25"/>
            <meta>
               <profile value="http://hl7.eu/fhir/laboratory/StructureDefinition/Observation-resultslab-eu-lab"/>
            </meta>
            <text>
               <status value="generated"/>
               <div xmlns="http://www.w3.org/1999/xhtml">
                  <table class="hl7__eu__lab__report">
                     <tr>
                        <th>Test</th>
                        <th>25-May-2017</th>
                        <th>Reference Range</th>
                        <th>Unit</th>
                     </tr>
                     <tr>
                        <td>Alanine aminotransferase [Enzymatic activity/volume] in Serum or Plasma</td>
                        <td>22.8</td>
                        <td>13 - 32</td>
                        <td/>
                        <td>U/L</td>
                     </tr>
                  </table>
               </div>
            </text>
            <status value="final"/>
            <category>
               <coding>
                  <system value="http://terminology.hl7.org/CodeSystem/observation-category"/>
                  <code value="laboratory"/>
               </coding>
            </category>
            <code>
               <coding>
                  <system value="http://loinc.org"/>
                  <code value="1742-6"/>
                  <display value="Alanine aminotransferase [Enzymatic activity/volume] in Serum or Plasma"/>
               </coding>
               <text value="Alanine aminotransferase [Enzymatic activity/volume] in Serum or Plasma"/>
            </code>
            <subject>
               <reference value="urn:uuid:cca6411c-f997-423a-8a51-6075c0a6b202"/>
               <display value="Aniela Prażmo"/>
            </subject>
            <effectiveDateTime value="2017-05-25T07:28:22Z"/>
            <performer>
               <display value="The Central European Lab"/>
            </performer>
            <valueQuantity>
               <value value="22.8"/>
               <unit value="U/L"/>
               <system value="http://unitsofmeasure.org"/>
               <code value="U/L"/>
            </valueQuantity>
            <specimen>
               <reference value="urn:uuid:ed78484e-7e80-42dc-83a5-5965e95d169b"/>
            </specimen>
            <referenceRange>
               <low>
                  <value value="13"/>
                  <system value="http://unitsofmeasure.org"/>
                  <code value="U/L"/>
               </low>
            </referenceRange>
            <referenceRange>
               <high>
                  <value value="32"/>
                  <system value="http://unitsofmeasure.org"/>
                  <code value="U/L"/>
               </high>
            </referenceRange>
         </Observation>
      </resource>
   </entry>
   <entry>
      <fullUrl value="urn:uuid:429113dd-f9f2-466a-b308-721e757141da"/>
      <resource>
         <Observation>
            <id value="429113dd-f9f2-466a-b308-721e757141da"/>
            <meta>
               <profile value="http://hl7.eu/fhir/laboratory/StructureDefinition/Observation-resultslab-eu-lab"/>
            </meta>
            <text>
               <status value="generated"/>
               <div xmlns="http://www.w3.org/1999/xhtml">
                  <table class="hl7__eu__lab__report">
                     <tr>
                        <th>Test</th>
                        <th>25-May-2017</th>
                        <th>Reference Range</th>
                        <th>Unit</th>
                     </tr>
                     <tr>
                        <td>Aspartate aminotransferase [Enzymatic activity/volume] in Serum or Plasma</td>
                        <td>16.4</td>
                        <td>10 - 40</td>
                        <td/>
                        <td>U/L</td>
                     </tr>
                  </table>
               </div>
            </text>
            <status value="final"/>
            <category>
               <coding>
                  <system value="http://terminology.hl7.org/CodeSystem/observation-category"/>
                  <code value="laboratory"/>
               </coding>
            </category>
            <code>
               <coding>
                  <system value="http://loinc.org"/>
                  <code value="1920-8"/>
                  <display value="Aspartate aminotransferase [Enzymatic activity/volume] in Serum or Plasma"/>
               </coding>
               <text value="Aspartate aminotransferase [Enzymatic activity/volume] in Serum or Plasma"/>
            </code>
            <subject>
               <reference value="urn:uuid:cca6411c-f997-423a-8a51-6075c0a6b202"/>
               <display value="Aniela Prażmo"/>
            </subject>
            <effectiveDateTime value="2017-05-25T07:28:22Z"/>
            <performer>
               <display value="The Central European Lab"/>
            </performer>
            <valueQuantity>
               <value value="16.4"/>
               <unit value="U/L"/>
               <system value="http://unitsofmeasure.org"/>
               <code value="U/L"/>
            </valueQuantity>
            <specimen>
               <reference value="urn:uuid:ed78484e-7e80-42dc-83a5-5965e95d169b"/>
            </specimen>
            <referenceRange>
               <low>
                  <value value="10"/>
                  <system value="http://unitsofmeasure.org"/>
                  <code value="U/L"/>
               </low>
            </referenceRange>
            <referenceRange>
               <high>
                  <value value="40"/>
                  <system value="http://unitsofmeasure.org"/>
                  <code value="U/L"/>
               </high>
            </referenceRange>
         </Observation>
      </resource>
   </entry>
   <entry>
      <fullUrl value="urn:uuid:32ac26f6-2e0b-4289-98ff-3d19bbcb9461"/>
      <resource>
         <Observation>
            <id value="32ac26f6-2e0b-4289-98ff-3d19bbcb9461"/>
            <meta>
               <profile value="http://hl7.eu/fhir/laboratory/StructureDefinition/Observation-resultslab-eu-lab"/>
            </meta>
            <text>
               <status value="generated"/>
               <div xmlns="http://www.w3.org/1999/xhtml">
                  <table class="hl7__eu__lab__report">
                     <tr>
                        <th>Test</th>
                        <th>25-May-2017</th>
                        <th>Reference Range</th>
                        <th>Unit</th>
                     </tr>
                     <tr>
                        <td>Magnesium [Mass/volume] in Serum or Plasma</td>
                        <td>2.0</td>
                        <td>1.7 - 2.6</td>
                        <td/>
                        <td>mg/dL</td>
                     </tr>
                  </table>
               </div>
            </text>
            <status value="final"/>
            <category>
               <coding>
                  <system value="http://terminology.hl7.org/CodeSystem/observation-category"/>
                  <code value="laboratory"/>
               </coding>
            </category>
            <code>
               <coding>
                  <system value="http://loinc.org"/>
                  <code value="19123-9"/>
                  <display value="Magnesium [Mass/volume] in Serum or Plasma"/>
               </coding>
               <text value="Magnesium [Mass/volume] in Serum or Plasma"/>
            </code>
            <subject>
               <reference value="urn:uuid:cca6411c-f997-423a-8a51-6075c0a6b202"/>
               <display value="Aniela Prażmo"/>
            </subject>
            <effectiveDateTime value="2017-05-25T07:28:22Z"/>
            <performer>
               <display value="The Central European Lab"/>
            </performer>
            <valueQuantity>
               <value value="2"/>
               <unit value="mg/dL"/>
               <system value="http://unitsofmeasure.org"/>
               <code value="mg/dL"/>
            </valueQuantity>
            <specimen>
               <reference value="urn:uuid:ed78484e-7e80-42dc-83a5-5965e95d169b"/>
            </specimen>
            <referenceRange>
               <low>
                  <value value="1.7"/>
                  <system value="http://unitsofmeasure.org"/>
                  <code value="mg/dL"/>
               </low>
            </referenceRange>
            <referenceRange>
               <high>
                  <value value="2.6"/>
                  <system value="http://unitsofmeasure.org"/>
                  <code value="mg/dL"/>
               </high>
            </referenceRange>
         </Observation>
      </resource>
   </entry>
   <entry>
      <fullUrl value="urn:uuid:6709625d-8f6c-4e47-a9c6-461bcdea135b"/>
      <resource>
         <Observation>
            <id value="6709625d-8f6c-4e47-a9c6-461bcdea135b"/>
            <meta>
               <profile value="http://hl7.eu/fhir/laboratory/StructureDefinition/Observation-resultslab-eu-lab"/>
            </meta>
            <text>
               <status value="generated"/>
               <div xmlns="http://www.w3.org/1999/xhtml">
                  <table class="hl7__eu__lab__report">
                     <tr>
                        <th>Test</th>
                        <th>25-May-2017</th>
                        <th>Reference Range</th>
                        <th>Unit</th>
                     </tr>
                     <tr>
                        <td>Phosphate [Mass/volume] in Serum or Plasma</td>
                        <td>3.2</td>
                        <td>2.5 - 4.5</td>
                        <td/>
                        <td>mg/dL</td>
                     </tr>
                  </table>
               </div>
            </text>
            <status value="final"/>
            <category>
               <coding>
                  <system value="http://terminology.hl7.org/CodeSystem/observation-category"/>
                  <code value="laboratory"/>
               </coding>
            </category>
            <code>
               <coding>
                  <system value="http://loinc.org"/>
                  <code value="2777-1"/>
                  <display value="Phosphate [Mass/volume] in Serum or Plasma"/>
               </coding>
               <text value="Phosphate [Mass/volume] in Serum or Plasma"/>
            </code>
            <subject>
               <reference value="urn:uuid:cca6411c-f997-423a-8a51-6075c0a6b202"/>
               <display value="Aniela Prażmo"/>
            </subject>
            <effectiveDateTime value="2017-05-25T07:28:22Z"/>
            <performer>
               <display value="The Central European Lab"/>
            </performer>
            <valueQuantity>
               <value value="3.2"/>
               <unit value="mg/dL"/>
               <system value="http://unitsofmeasure.org"/>
               <code value="mg/dL"/>
            </valueQuantity>
            <specimen>
               <reference value="urn:uuid:ed78484e-7e80-42dc-83a5-5965e95d169b"/>
            </specimen>
            <referenceRange>
               <low>
                  <value value="2.5"/>
                  <system value="http://unitsofmeasure.org"/>
                  <code value="mg/dL"/>
               </low>
            </referenceRange>
            <referenceRange>
               <high>
                  <value value="4.5"/>
                  <system value="http://unitsofmeasure.org"/>
                  <code value="mg/dL"/>
               </high>
            </referenceRange>
         </Observation>
      </resource>
   </entry>
   <entry>
      <fullUrl value="urn:uuid:36581a1d-3b0f-4241-8b7c-f88997a5a494"/>
      <resource>
         <Observation>
            <id value="36581a1d-3b0f-4241-8b7c-f88997a5a494"/>
            <meta>
               <profile value="http://hl7.eu/fhir/laboratory/StructureDefinition/Observation-resultslab-eu-lab"/>
            </meta>
            <text>
               <status value="generated"/>
               <div xmlns="http://www.w3.org/1999/xhtml">
                  <table class="hl7__eu__lab__report">
                     <tr>
                        <th>Test</th>
                        <th>25-May-2017</th>
                        <th>Reference Range</th>
                        <th>Unit</th>
                     </tr>
                     <tr>
                        <td>Prothrombin time (PT)</td>
                        <td>9.9</td>
                        <td>11 - 15</td>
                        <td>L</td>
                        <td>s</td>
                     </tr>
                  </table>
               </div>
            </text>
            <status value="final"/>
            <category>
               <coding>
                  <system value="http://terminology.hl7.org/CodeSystem/observation-category"/>
                  <code value="laboratory"/>
               </coding>
            </category>
            <code>
               <coding>
                  <system value="http://loinc.org"/>
                  <code value="5902-2"/>
                  <display value="Prothrombin time (PT)"/>
               </coding>
               <text value="Prothrombin time (PT)"/>
            </code>
            <subject>
               <reference value="urn:uuid:cca6411c-f997-423a-8a51-6075c0a6b202"/>
               <display value="Aniela Prażmo"/>
            </subject>
            <effectiveDateTime value="2017-05-25T07:28:22Z"/>
            <performer>
               <display value="The Central European Lab"/>
            </performer>
            <valueQuantity>
               <value value="9.9"/>
               <unit value="s"/>
               <system value="http://unitsofmeasure.org"/>
               <code value="s"/>
            </valueQuantity>
            <interpretation>
               <coding>
                  <system value="http://terminology.hl7.org/CodeSystem/v3-ObservationInterpretation"/>
                  <code value="L"/>
                  <display value="Low"/>
               </coding>
            </interpretation>
            <specimen>
               <reference value="urn:uuid:6105b88e-b253-4056-aacf-03ddfe600bb5"/>
            </specimen>
            <referenceRange>
               <low>
                  <value value="11"/>
                  <system value="http://unitsofmeasure.org"/>
                  <code value="s"/>
               </low>
            </referenceRange>
            <referenceRange>
               <high>
                  <value value="15"/>
                  <system value="http://unitsofmeasure.org"/>
                  <code value="s"/>
               </high>
            </referenceRange>
         </Observation>
      </resource>
   </entry>
   <entry>
      <fullUrl value="urn:uuid:6c4d1490-bc75-45d6-af8c-1ebf9c5f65f9"/>
      <resource>
         <Observation>
            <id value="6c4d1490-bc75-45d6-af8c-1ebf9c5f65f9"/>
            <meta>
               <profile value="http://hl7.eu/fhir/laboratory/StructureDefinition/Observation-resultslab-eu-lab"/>
            </meta>
            <text>
               <status value="generated"/>
               <div xmlns="http://www.w3.org/1999/xhtml">
                  <table class="hl7__eu__lab__report">
                     <tr>
                        <th>Test</th>
                        <th>25-May-2017</th>
                        <th>Reference Range</th>
                        <th>Unit</th>
                     </tr>
                     <tr>
                        <td>INR in Platelet poor plasma by Coagulation assay</td>
                        <td>2.4</td>
                        <td>0.9 - 1.1</td>
                        <td>H</td>
                        <td>{INR}</td>
                     </tr>
                  </table>
               </div>
            </text>
            <status value="final"/>
            <category>
               <coding>
                  <system value="http://terminology.hl7.org/CodeSystem/observation-category"/>
                  <code value="laboratory"/>
               </coding>
            </category>
            <code>
               <coding>
                  <system value="http://loinc.org"/>
                  <code value="6301-6"/>
                  <display value="INR in Platelet poor plasma by Coagulation assay"/>
               </coding>
               <text value="INR in Platelet poor plasma by Coagulation assay"/>
            </code>
            <subject>
               <reference value="urn:uuid:cca6411c-f997-423a-8a51-6075c0a6b202"/>
               <display value="Aniela Prażmo"/>
            </subject>
            <effectiveDateTime value="2017-05-25T07:28:22Z"/>
            <performer>
               <display value="The Central European Lab"/>
            </performer>
            <valueQuantity>
               <value value="2.4"/>
               <unit value="{INR}"/>
               <system value="http://unitsofmeasure.org"/>
               <code value="{INR}"/>
            </valueQuantity>
            <interpretation>
               <coding>
                  <system value="http://terminology.hl7.org/CodeSystem/v3-ObservationInterpretation"/>
                  <code value="H"/>
                  <display value="High"/>
               </coding>
            </interpretation>
            <specimen>
               <reference value="urn:uuid:6105b88e-b253-4056-aacf-03ddfe600bb5"/>
            </specimen>
            <referenceRange>
               <low>
                  <value value="0.9"/>
                  <system value="http://unitsofmeasure.org"/>
                  <code value="INR"/>
               </low>
            </referenceRange>
            <referenceRange>
               <high>
                  <value value="1.1"/>
                  <system value="http://unitsofmeasure.org"/>
                  <code value="INR"/>
               </high>
            </referenceRange>
         </Observation>
      </resource>
   </entry>
   <entry>
      <fullUrl value="urn:uuid:1c3bfb61-c125-42c9-bf39-6522facea04d"/>
      <resource>
         <Observation>
            <id value="1c3bfb61-c125-42c9-bf39-6522facea04d"/>
            <meta>
               <profile value="http://hl7.eu/fhir/laboratory/StructureDefinition/Observation-resultslab-eu-lab"/>
            </meta>
            <text>
               <status value="generated"/>
               <div xmlns="http://www.w3.org/1999/xhtml">
                  <table class="hl7__eu__lab__report">
                     <tr>
                        <th>Test</th>
                        <th>25-May-2017</th>
                        <th>Reference Range</th>
                        <th>Unit</th>
                     </tr>
                     <tr>
                        <td>aPTT in Blood by Coagulation assay</td>
                        <td>34.1</td>
                        <td>25 - 35</td>
                        <td/>
                        <td>s</td>
                     </tr>
                  </table>
               </div>
            </text>
            <status value="final"/>
            <category>
               <coding>
                  <system value="http://terminology.hl7.org/CodeSystem/observation-category"/>
                  <code value="laboratory"/>
               </coding>
            </category>
            <code>
               <coding>
                  <system value="http://loinc.org"/>
                  <code value="3173-2"/>
                  <display value="aPTT in Blood by Coagulation assay"/>
               </coding>
               <text value="aPTT in Blood by Coagulation assay"/>
            </code>
            <subject>
               <reference value="urn:uuid:cca6411c-f997-423a-8a51-6075c0a6b202"/>
               <display value="Aniela Prażmo"/>
            </subject>
            <effectiveDateTime value="2017-05-25T07:28:22Z"/>
            <performer>
               <display value="The Central European Lab"/>
            </performer>
            <valueQuantity>
               <value value="34.1"/>
               <unit value="s"/>
               <system value="http://unitsofmeasure.org"/>
               <code value="s"/>
            </valueQuantity>
            <specimen>
               <reference value="urn:uuid:1fae746e-9a70-4d12-b252-6782acefafc7"/>
            </specimen>
            <referenceRange>
               <low>
                  <value value="25"/>
                  <system value="http://unitsofmeasure.org"/>
                  <code value="seconds"/>
               </low>
            </referenceRange>
            <referenceRange>
               <high>
                  <value value="35"/>
                  <system value="http://unitsofmeasure.org"/>
                  <code value="seconds"/>
               </high>
            </referenceRange>
         </Observation>
      </resource>
   </entry>
   <entry>
      <fullUrl value="urn:uuid:ef10c111-1264-444e-8047-e7ff5a47e4f9"/>
      <resource>
         <Observation>
            <id value="ef10c111-1264-444e-8047-e7ff5a47e4f9"/>
            <meta>
               <profile value="http://hl7.eu/fhir/laboratory/StructureDefinition/Observation-resultslab-eu-lab"/>
            </meta>
            <text>
               <status value="generated"/>
               <div xmlns="http://www.w3.org/1999/xhtml">
                  <table class="hl7__eu__lab__report">
                     <tr>
                        <th>Test</th>
                        <th>25-May-2017</th>
                        <th>Reference Range</th>
                        <th>Unit</th>
                     </tr>
                     <tr>
                        <td>pH of Arterial blood</td>
                        <td>7.1</td>
                        <td>7.35 - 7.45</td>
                        <td>L</td>
                        <td>[pH]</td>
                     </tr>
                  </table>
               </div>
            </text>
            <status value="final"/>
            <category>
               <coding>
                  <system value="http://terminology.hl7.org/CodeSystem/observation-category"/>
                  <code value="laboratory"/>
               </coding>
            </category>
            <code>
               <coding>
                  <system value="http://loinc.org"/>
                  <code value="2744-1"/>
                  <display value="pH of Arterial blood"/>
               </coding>
               <text value="pH of Arterial blood"/>
            </code>
            <subject>
               <reference value="urn:uuid:cca6411c-f997-423a-8a51-6075c0a6b202"/>
               <display value="Aniela Prażmo"/>
            </subject>
            <effectiveDateTime value="2017-05-25T07:28:22Z"/>
            <performer>
               <display value="The Central European Lab"/>
            </performer>
            <valueQuantity>
               <value value="7.1"/>
               <unit value="[pH]"/>
               <system value="http://unitsofmeasure.org"/>
               <code value="[pH]"/>
            </valueQuantity>
            <interpretation>
               <coding>
                  <system value="http://terminology.hl7.org/CodeSystem/v3-ObservationInterpretation"/>
                  <code value="L"/>
                  <display value="Low"/>
               </coding>
            </interpretation>
            <specimen>
               <reference value="urn:uuid:f2c3d678-db45-4c92-a6b7-3418d3e81239"/>
            </specimen>
            <referenceRange>
               <low>
                  <value value="7.35"/>
                  <system value="http://unitsofmeasure.org"/>
                  <code value="pH"/>
               </low>
            </referenceRange>
            <referenceRange>
               <high>
                  <value value="7.45"/>
                  <system value="http://unitsofmeasure.org"/>
                  <code value="pH"/>
               </high>
            </referenceRange>
         </Observation>
      </resource>
   </entry>
   <entry>
      <fullUrl value="urn:uuid:59da3205-28b1-433e-b1ea-61ed96a02322"/>
      <resource>
         <Observation>
            <id value="59da3205-28b1-433e-b1ea-61ed96a02322"/>
            <meta>
               <profile value="http://hl7.eu/fhir/laboratory/StructureDefinition/Observation-resultslab-eu-lab"/>
            </meta>
            <text>
               <status value="generated"/>
               <div xmlns="http://www.w3.org/1999/xhtml">
                  <table class="hl7__eu__lab__report">
                     <tr>
                        <th>Test</th>
                        <th>25-May-2017</th>
                        <th>Reference Range</th>
                        <th>Unit</th>
                     </tr>
                     <tr>
                        <td>Carbon dioxide [Partial pressure] in Arterial blood</td>
                        <td>35.0</td>
                        <td>38 - 48</td>
                        <td>L</td>
                        <td>mm[Hg]</td>
                     </tr>
                  </table>
               </div>
            </text>
            <status value="final"/>
            <category>
               <coding>
                  <system value="http://terminology.hl7.org/CodeSystem/observation-category"/>
                  <code value="laboratory"/>
               </coding>
            </category>
            <code>
               <coding>
                  <system value="http://loinc.org"/>
                  <code value="2019-8"/>
                  <display value="Carbon dioxide [Partial pressure] in Arterial blood"/>
               </coding>
               <text value="Carbon dioxide [Partial pressure] in Arterial blood"/>
            </code>
            <subject>
               <reference value="urn:uuid:cca6411c-f997-423a-8a51-6075c0a6b202"/>
               <display value="Aniela Prażmo"/>
            </subject>
            <effectiveDateTime value="2017-05-25T07:28:22Z"/>
            <performer>
               <display value="The Central European Lab"/>
            </performer>
            <valueQuantity>
               <value value="35"/>
               <unit value="mm[Hg]"/>
               <system value="http://unitsofmeasure.org"/>
               <code value="mm[Hg]"/>
            </valueQuantity>
            <interpretation>
               <coding>
                  <system value="http://terminology.hl7.org/CodeSystem/v3-ObservationInterpretation"/>
                  <code value="L"/>
                  <display value="Low"/>
               </coding>
            </interpretation>
            <specimen>
               <reference value="urn:uuid:f2c3d678-db45-4c92-a6b7-3418d3e81239"/>
            </specimen>
            <referenceRange>
               <low>
                  <value value="38"/>
                  <system value="http://unitsofmeasure.org"/>
                  <code value="mm[Hg]"/>
               </low>
            </referenceRange>
            <referenceRange>
               <high>
                  <value value="48"/>
                  <system value="http://unitsofmeasure.org"/>
                  <code value="mm[Hg]"/>
               </high>
            </referenceRange>
         </Observation>
      </resource>
   </entry>
   <entry>
      <fullUrl value="urn:uuid:60012420-b8b4-47f8-bd40-d14261dde7a4"/>
      <resource>
         <Observation>
            <id value="60012420-b8b4-47f8-bd40-d14261dde7a4"/>
            <meta>
               <profile value="http://hl7.eu/fhir/laboratory/StructureDefinition/Observation-resultslab-eu-lab"/>
            </meta>
            <text>
               <status value="generated"/>
               <div xmlns="http://www.w3.org/1999/xhtml">
                  <table class="hl7__eu__lab__report">
                     <tr>
                        <th>Test</th>
                        <th>25-May-2017</th>
                        <th>Reference Range</th>
                        <th>Unit</th>
                     </tr>
                     <tr>
                        <td>Oxygen [Partial pressure] in Arterial blood</td>
                        <td>94.3</td>
                        <td>75 - 100</td>
                        <td/>
                        <td>mm[Hg]</td>
                     </tr>
                  </table>
               </div>
            </text>
            <status value="final"/>
            <category>
               <coding>
                  <system value="http://terminology.hl7.org/CodeSystem/observation-category"/>
                  <code value="laboratory"/>
               </coding>
            </category>
            <code>
               <coding>
                  <system value="http://loinc.org"/>
                  <code value="2703-7"/>
                  <display value="Oxygen [Partial pressure] in Arterial blood"/>
               </coding>
               <text value="Oxygen [Partial pressure] in Arterial blood"/>
            </code>
            <subject>
               <reference value="urn:uuid:cca6411c-f997-423a-8a51-6075c0a6b202"/>
               <display value="Aniela Prażmo"/>
            </subject>
            <effectiveDateTime value="2017-05-25T07:28:22Z"/>
            <performer>
               <display value="The Central European Lab"/>
            </performer>
            <valueQuantity>
               <value value="94.3"/>
               <unit value="mm[Hg]"/>
               <system value="http://unitsofmeasure.org"/>
               <code value="mm[Hg]"/>
            </valueQuantity>
            <specimen>
               <reference value="urn:uuid:f2c3d678-db45-4c92-a6b7-3418d3e81239"/>
            </specimen>
            <referenceRange>
               <low>
                  <value value="75"/>
                  <system value="http://unitsofmeasure.org"/>
                  <code value="mm[Hg]"/>
               </low>
            </referenceRange>
            <referenceRange>
               <high>
                  <value value="100"/>
                  <system value="http://unitsofmeasure.org"/>
                  <code value="mm[Hg]"/>
               </high>
            </referenceRange>
         </Observation>
      </resource>
   </entry>
   <entry>
      <fullUrl value="urn:uuid:dc34c711-8eb6-4404-aed2-c93e0135a5a3"/>
      <resource>
         <Observation>
            <id value="dc34c711-8eb6-4404-aed2-c93e0135a5a3"/>
            <meta>
               <profile value="http://hl7.eu/fhir/laboratory/StructureDefinition/Observation-resultslab-eu-lab"/>
            </meta>
            <text>
               <status value="generated"/>
               <div xmlns="http://www.w3.org/1999/xhtml">
                  <table class="hl7__eu__lab__report">
                     <tr>
                        <th>Test</th>
                        <th>25-May-2017</th>
                        <th>Reference Range</th>
                        <th>Unit</th>
                     </tr>
                     <tr>
                        <td>Bicarbonate [Moles/volume] in Arterial blood</td>
                        <td>25.6</td>
                        <td>22 - 31</td>
                        <td/>
                        <td>mmol/L</td>
                     </tr>
                  </table>
               </div>
            </text>
            <status value="final"/>
            <category>
               <coding>
                  <system value="http://terminology.hl7.org/CodeSystem/observation-category"/>
                  <code value="laboratory"/>
               </coding>
            </category>
            <code>
               <coding>
                  <system value="http://loinc.org"/>
                  <code value="1960-4"/>
                  <display value="Bicarbonate [Moles/volume] in Arterial blood"/>
               </coding>
               <text value="Bicarbonate [Moles/volume] in Arterial blood"/>
            </code>
            <subject>
               <reference value="urn:uuid:cca6411c-f997-423a-8a51-6075c0a6b202"/>
               <display value="Aniela Prażmo"/>
            </subject>
            <effectiveDateTime value="2017-05-25T07:28:22Z"/>
            <performer>
               <display value="The Central European Lab"/>
            </performer>
            <valueQuantity>
               <value value="25.6"/>
               <unit value="mmol/L"/>
               <system value="http://unitsofmeasure.org"/>
               <code value="mmol/L"/>
            </valueQuantity>
            <specimen>
               <reference value="urn:uuid:f2c3d678-db45-4c92-a6b7-3418d3e81239"/>
            </specimen>
            <referenceRange>
               <low>
                  <value value="22"/>
                  <system value="http://unitsofmeasure.org"/>
                  <code value="mmol/L"/>
               </low>
            </referenceRange>
            <referenceRange>
               <high>
                  <value value="31"/>
                  <system value="http://unitsofmeasure.org"/>
                  <code value="mmol/L"/>
               </high>
            </referenceRange>
         </Observation>
      </resource>
   </entry>
   <entry>
      <fullUrl value="urn:uuid:5c915a65-996e-4db3-98b7-fe3f8c1d1ba9"/>
      <resource>
         <Observation>
            <id value="5c915a65-996e-4db3-98b7-fe3f8c1d1ba9"/>
            <meta>
               <profile value="http://hl7.eu/fhir/laboratory/StructureDefinition/Observation-resultslab-eu-lab"/>
            </meta>
            <text>
               <status value="generated"/>
               <div xmlns="http://www.w3.org/1999/xhtml">
                  <table class="hl7__eu__lab__report">
                     <tr>
                        <th>Test</th>
                        <th>25-May-2017</th>
                        <th>Reference Range</th>
                        <th>Unit</th>
                     </tr>
                     <tr>
                        <td>Oxygen saturation in Arterial blood</td>
                        <td>94.0</td>
                        <td>95 - 100</td>
                        <td>L</td>
                        <td>%</td>
                     </tr>
                  </table>
               </div>
            </text>
            <status value="final"/>
            <category>
               <coding>
                  <system value="http://terminology.hl7.org/CodeSystem/observation-category"/>
                  <code value="laboratory"/>
               </coding>
            </category>
            <code>
               <coding>
                  <system value="http://loinc.org"/>
                  <code value="2708-6"/>
                  <display value="Oxygen saturation in Arterial blood"/>
               </coding>
               <text value="Oxygen saturation in Arterial blood"/>
            </code>
            <subject>
               <reference value="urn:uuid:cca6411c-f997-423a-8a51-6075c0a6b202"/>
               <display value="Aniela Prażmo"/>
            </subject>
            <effectiveDateTime value="2017-05-25T07:28:22Z"/>
            <performer>
               <display value="The Central European Lab"/>
            </performer>
            <valueQuantity>
               <value value="94"/>
               <unit value="%"/>
               <system value="http://unitsofmeasure.org"/>
               <code value="%"/>
            </valueQuantity>
            <interpretation>
               <coding>
                  <system value="http://terminology.hl7.org/CodeSystem/v3-ObservationInterpretation"/>
                  <code value="L"/>
                  <display value="Low"/>
               </coding>
            </interpretation>
            <specimen>
               <reference value="urn:uuid:f2c3d678-db45-4c92-a6b7-3418d3e81239"/>
            </specimen>
            <referenceRange>
               <low>
                  <value value="95"/>
                  <system value="http://unitsofmeasure.org"/>
                  <code value="%"/>
               </low>
            </referenceRange>
            <referenceRange>
               <high>
                  <value value="100"/>
                  <system value="http://unitsofmeasure.org"/>
                  <code value="%"/>
               </high>
            </referenceRange>
         </Observation>
      </resource>
   </entry>
   <entry>
      <fullUrl value="urn:uuid:3f30b7e2-8aa6-418d-a1e7-8c77bfc7ec42"/>
      <resource>
         <Observation>
            <id value="3f30b7e2-8aa6-418d-a1e7-8c77bfc7ec42"/>
            <meta>
               <profile value="http://hl7.eu/fhir/laboratory/StructureDefinition/Observation-resultslab-eu-lab"/>
            </meta>
            <text>
               <status value="generated"/>
               <div xmlns="http://www.w3.org/1999/xhtml">
                  <table class="hl7__eu__lab__report">
                     <tr>
                        <th>Test</th>
                        <th>25-May-2017</th>
                        <th>Reference Range</th>
                        <th>Unit</th>
                     </tr>
                     <tr>
                        <td>Cholesterol [Mass/volume] in Serum or Plasma</td>
                        <td>299.5</td>
                        <td>130 - 200</td>
                        <td>H</td>
                        <td>mg/dL</td>
                     </tr>
                  </table>
               </div>
            </text>
            <status value="final"/>
            <category>
               <coding>
                  <system value="http://terminology.hl7.org/CodeSystem/observation-category"/>
                  <code value="laboratory"/>
               </coding>
            </category>
            <code>
               <coding>
                  <system value="http://loinc.org"/>
                  <code value="2093-3"/>
                  <display value="Cholesterol [Mass/volume] in Serum or Plasma"/>
               </coding>
               <text value="Cholesterol [Mass/volume] in Serum or Plasma"/>
            </code>
            <subject>
               <reference value="urn:uuid:cca6411c-f997-423a-8a51-6075c0a6b202"/>
               <display value="Aniela Prażmo"/>
            </subject>
            <effectiveDateTime value="2017-05-25T07:28:22Z"/>
            <performer>
               <display value="The Central European Lab"/>
            </performer>
            <valueQuantity>
               <value value="299.5"/>
               <unit value="mg/dL"/>
               <system value="http://unitsofmeasure.org"/>
               <code value="mg/dL"/>
            </valueQuantity>
            <interpretation>
               <coding>
                  <system value="http://terminology.hl7.org/CodeSystem/v3-ObservationInterpretation"/>
                  <code value="H"/>
                  <display value="High"/>
               </coding>
            </interpretation>
            <specimen>
               <reference value="urn:uuid:ed78484e-7e80-42dc-83a5-5965e95d169b"/>
            </specimen>
            <referenceRange>
               <low>
                  <value value="130"/>
                  <system value="http://unitsofmeasure.org"/>
                  <code value="mg/dL"/>
               </low>
            </referenceRange>
            <referenceRange>
               <high>
                  <value value="200"/>
                  <system value="http://unitsofmeasure.org"/>
                  <code value="mg/dL"/>
               </high>
            </referenceRange>
         </Observation>
      </resource>
   </entry>
   <entry>
      <fullUrl value="urn:uuid:0ce6b871-512b-4938-a4db-2665bc35c0db"/>
      <resource>
         <Observation>
            <id value="0ce6b871-512b-4938-a4db-2665bc35c0db"/>
            <meta>
               <profile value="http://hl7.eu/fhir/laboratory/StructureDefinition/Observation-resultslab-eu-lab"/>
            </meta>
            <text>
               <status value="generated"/>
               <div xmlns="http://www.w3.org/1999/xhtml">
                  <table class="hl7__eu__lab__report">
                     <tr>
                        <th>Test</th>
                        <th>25-May-2017</th>
                        <th>Reference Range</th>
                        <th>Unit</th>
                     </tr>
                     <tr>
                        <td>Triglyceride [Mass/volume] in Serum or Plasma</td>
                        <td>140.8</td>
                        <td>0 - 199</td>
                        <td/>
                        <td>mg/dL</td>
                     </tr>
                  </table>
               </div>
            </text>
            <status value="final"/>
            <category>
               <coding>
                  <system value="http://terminology.hl7.org/CodeSystem/observation-category"/>
                  <code value="laboratory"/>
               </coding>
            </category>
            <code>
               <coding>
                  <system value="http://loinc.org"/>
                  <code value="2571-8"/>
                  <display value="Triglyceride [Mass/volume] in Serum or Plasma"/>
               </coding>
               <text value="Triglyceride [Mass/volume] in Serum or Plasma"/>
            </code>
            <subject>
               <reference value="urn:uuid:cca6411c-f997-423a-8a51-6075c0a6b202"/>
               <display value="Aniela Prażmo"/>
            </subject>
            <effectiveDateTime value="2017-05-25T07:28:22Z"/>
            <performer>
               <display value="The Central European Lab"/>
            </performer>
            <valueQuantity>
               <value value="140.8"/>
               <unit value="mg/dL"/>
               <system value="http://unitsofmeasure.org"/>
               <code value="mg/dL"/>
            </valueQuantity>
            <specimen>
               <reference value="urn:uuid:ed78484e-7e80-42dc-83a5-5965e95d169b"/>
            </specimen>
            <referenceRange>
               <low>
                  <value value="0"/>
                  <system value="http://unitsofmeasure.org"/>
                  <code value="mg/dL"/>
               </low>
            </referenceRange>
            <referenceRange>
               <high>
                  <value value="199"/>
                  <system value="http://unitsofmeasure.org"/>
                  <code value="mg/dL"/>
               </high>
            </referenceRange>
         </Observation>
      </resource>
   </entry>
   <entry>
      <fullUrl value="urn:uuid:7d09600e-1718-4edb-b2c0-d80169da6d3c"/>
      <resource>
         <Observation>
            <id value="7d09600e-1718-4edb-b2c0-d80169da6d3c"/>
            <meta>
               <profile value="http://hl7.eu/fhir/laboratory/StructureDefinition/Observation-resultslab-eu-lab"/>
            </meta>
            <text>
               <status value="generated"/>
               <div xmlns="http://www.w3.org/1999/xhtml">
                  <table class="hl7__eu__lab__report">
                     <tr>
                        <th>Test</th>
                        <th>25-May-2017</th>
                        <th>Reference Range</th>
                        <th>Unit</th>
                     </tr>
                     <tr>
                        <td>Cholesterol in LDL [Mass/volume] in Serum or Plasma by Direct assay</td>
                        <td>210.5</td>
                        <td>0 - 130</td>
                        <td>H</td>
                        <td>mg/dL</td>
                     </tr>
                  </table>
               </div>
            </text>
            <status value="final"/>
            <category>
               <coding>
                  <system value="http://terminology.hl7.org/CodeSystem/observation-category"/>
                  <code value="laboratory"/>
               </coding>
            </category>
            <code>
               <coding>
                  <system value="http://loinc.org"/>
                  <code value="18262-6"/>
                  <display value="Cholesterol in LDL [Mass/volume] in Serum or Plasma by Direct assay"/>
               </coding>
               <text value="Cholesterol in LDL [Mass/volume] in Serum or Plasma by Direct assay"/>
            </code>
            <subject>
               <reference value="urn:uuid:cca6411c-f997-423a-8a51-6075c0a6b202"/>
               <display value="Aniela Prażmo"/>
            </subject>
            <effectiveDateTime value="2017-05-25T07:28:22Z"/>
            <performer>
               <display value="The Central European Lab"/>
            </performer>
            <valueQuantity>
               <value value="210.5"/>
               <unit value="mg/dL"/>
               <system value="http://unitsofmeasure.org"/>
               <code value="mg/dL"/>
            </valueQuantity>
            <interpretation>
               <coding>
                  <system value="http://terminology.hl7.org/CodeSystem/v3-ObservationInterpretation"/>
                  <code value="H"/>
                  <display value="High"/>
               </coding>
            </interpretation>
            <specimen>
               <reference value="urn:uuid:ed78484e-7e80-42dc-83a5-5965e95d169b"/>
            </specimen>
            <referenceRange>
               <low>
                  <value value="0"/>
                  <system value="http://unitsofmeasure.org"/>
                  <code value="mg/dL"/>
               </low>
            </referenceRange>
            <referenceRange>
               <high>
                  <value value="130"/>
                  <system value="http://unitsofmeasure.org"/>
                  <code value="mg/dL"/>
               </high>
            </referenceRange>
         </Observation>
      </resource>
   </entry>
   <entry>
      <fullUrl value="urn:uuid:0176dde9-8259-4db6-b9e8-c991e854bee4"/>
      <resource>
         <Observation>
            <id value="0176dde9-8259-4db6-b9e8-c991e854bee4"/>
            <meta>
               <profile value="http://hl7.eu/fhir/laboratory/StructureDefinition/Observation-resultslab-eu-lab"/>
            </meta>
            <text>
               <status value="generated"/>
               <div xmlns="http://www.w3.org/1999/xhtml">
                  <table class="hl7__eu__lab__report">
                     <tr>
                        <th>Test</th>
                        <th>25-May-2017</th>
                        <th>Reference Range</th>
                        <th>Unit</th>
                     </tr>
                     <tr>
                        <td>Cholesterol in HDL [Mass/volume] in Serum or Plasma</td>
                        <td>60.9</td>
                        <td>50 - 100</td>
                        <td/>
                        <td>mg/dL</td>
                     </tr>
                  </table>
               </div>
            </text>
            <status value="final"/>
            <category>
               <coding>
                  <system value="http://terminology.hl7.org/CodeSystem/observation-category"/>
                  <code value="laboratory"/>
               </coding>
            </category>
            <code>
               <coding>
                  <system value="http://loinc.org"/>
                  <code value="2085-9"/>
                  <display value="Cholesterol in HDL [Mass/volume] in Serum or Plasma"/>
               </coding>
               <text value="Cholesterol in HDL [Mass/volume] in Serum or Plasma"/>
            </code>
            <subject>
               <reference value="urn:uuid:cca6411c-f997-423a-8a51-6075c0a6b202"/>
               <display value="Aniela Prażmo"/>
            </subject>
            <effectiveDateTime value="2017-05-25T07:28:22Z"/>
            <performer>
               <display value="The Central European Lab"/>
            </performer>
            <valueQuantity>
               <value value="60.9"/>
               <unit value="mg/dL"/>
               <system value="http://unitsofmeasure.org"/>
               <code value="mg/dL"/>
            </valueQuantity>
            <specimen>
               <reference value="urn:uuid:ed78484e-7e80-42dc-83a5-5965e95d169b"/>
            </specimen>
            <referenceRange>
               <low>
                  <value value="50"/>
                  <system value="http://unitsofmeasure.org"/>
                  <code value="mg/dL"/>
               </low>
            </referenceRange>
            <referenceRange>
               <high>
                  <value value="100"/>
                  <system value="http://unitsofmeasure.org"/>
                  <code value="mg/dL"/>
               </high>
            </referenceRange>
         </Observation>
      </resource>
   </entry>
   <entry>
      <fullUrl value="urn:uuid:ed85878f-230f-4202-bb7b-7bb4d763aa9c"/>
      <resource>
         <Device>
            <id value="ed85878f-230f-4202-bb7b-7bb4d763aa9c"/>
            <text>
               <status value="generated"/>
               <div xmlns="http://www.w3.org/1999/xhtml">SYNDERAI Synthetic Generator v5.0</div>
            </text>
            <status value="active&#34;"/>
            <distinctIdentifier value="synderai-generator-50"/>
            <manufacturer value="SYNDERAI Project"/>
            <deviceName>
               <name value="SYNDERAI Synthetic Generator"/>
               <type value="manufacturer-name"/>
            </deviceName>
            <version>
               <value value="5.0"/>
            </version>
         </Device>
      </resource>
   </entry>
   <entry>
      <fullUrl value="urn:uuid:7b777695-3543-425c-947d-4cad4ffae001"/>
      <resource>
         <Provenance>
            <id value="7b777695-3543-425c-947d-4cad4ffae001"/>
            <text>
               <status value="generated"/>
               <div xmlns="http://www.w3.org/1999/xhtml">Provenance for SYNDERAI Synthetic Example Data Resource</div>
            </text>
            <target>
               <reference value="Patient/cca6411c-f997-423a-8a51-6075c0a6b202"/>
            </target>
            <target>
               <reference value="Bundle/cf6e8cff-46d2-4b2f-a7ee-8e3a55bb5bbf"/>
            </target>
            <target>
               <reference value="Composition/536cc3a0-f832-4ee6-bad4-7cc66b234089"/>
            </target>
            <target>
               <reference value="PractitionerRole/f9eaa9ac-1ce8-4015-a156-195a09c2411c"/>
            </target>
            <target>
               <reference value="Practitioner/7ed5c9a4-aff9-4c9b-8273-fe20aec5ac63"/>
            </target>
            <target>
               <reference value="PractitionerRole/9d1389b6-8932-4718-b3bf-093b163733cb"/>
            </target>
            <target>
               <reference value="Organization/df35b2b1-a56e-4080-9a44-4ba9e5b90813"/>
            </target>
            <recorded value="2017-05-25T09:28:22Z"/>
            <policy value="https://synderai.net/synderai-synthetic-data-policy"/>
            <reason>
               <text value="Interoperability Testing and Training (non-clinical use)"/>
            </reason>
            <activity>
               <text value="Synthetic Example Data Generation"/>
            </activity>
            <agent>
               <type>
                  <text value="author"/>
               </type>
               <who>
                  <reference value="Device/ed85878f-230f-4202-bb7b-7bb4d763aa9c"/>
               </who>
            </agent>
         </Provenance>
      </resource>
   </entry>
   <entry>
      <fullUrl value="urn:uuid:f9eaa9ac-1ce8-4015-a156-195a09c2411c"/>
      <resource>
         <PractitionerRole>
            <id value="f9eaa9ac-1ce8-4015-a156-195a09c2411c"/>
            <meta>
               <profile value="http://hl7.eu/fhir/base/StructureDefinition/practitionerRole-eu"/>
            </meta>
            <text>
               <status value="generated"/>
               <div xmlns="http://www.w3.org/1999/xhtml">Laboratory Role Id: f9eaa9ac-1ce8-4015-a156-195a09c2411c</div>
            </text>
            <practitioner>
               <reference value="urn:uuid:7ed5c9a4-aff9-4c9b-8273-fe20aec5ac63"/>
            </practitioner>
         </PractitionerRole>
      </resource>
   </entry>
   <entry>
      <fullUrl value="urn:uuid:7ed5c9a4-aff9-4c9b-8273-fe20aec5ac63"/>
      <resource>
         <Practitioner>
            <id value="7ed5c9a4-aff9-4c9b-8273-fe20aec5ac63"/>
            <meta>
               <profile value="http://hl7.eu/fhir/base/StructureDefinition/practitioner-eu"/>
            </meta>
            <text>
               <status value="generated"/>
               <div xmlns="http://www.w3.org/1999/xhtml">Laboratory: Laboratoire Central Européenne, 1000 Brussels, Belgium</div>
            </text>
            <identifier>
               <system value="urn:oid:2.16.840.1.113883.2.51.999"/>
               <value value="c4ae34da-1ee1-408f-821c-a11349b1e35c"/>
               <assigner>
                  <display value="HL7 Europe"/>
               </assigner>
            </identifier>
            <name>
               <family value="Ample"/>
               <given value="Ex"/>
               <prefix value="dr"/>
            </name>
            <address>
               <line value="Laboratoire Central Européenne"/>
               <line value="Boulevard du Jardin Botanique 32"/>
               <city value="Brussels"/>
               <postalCode value="1000"/>
               <country value="Belgium"/>
            </address>
         </Practitioner>
      </resource>
   </entry>
</Bundle>