{
  "resourceType": "Bundle",
  "id": "61995365-63aa-4120-b850-2e52145ad948",
  "meta": {
    "profile": [
      "http://hl7.eu/fhir/laboratory/StructureDefinition/Bundle-eu-lab"
    ]
  },
  "identifier": {
    "assigner": {
      "display": "HL7 Europe"
    },
    "system": "urn:oid:2.16.840.1.113883.2.51.999",
    "value": "2d1eae3b-e229-4da4-903c-8739221bce47"
  },
  "entry": [
    {
      "fullUrl": "urn:uuid:f62a3c1c-984b-40e1-98ae-4cca49c31bea",
      "resource": {
        "resourceType": "Composition",
        "id": "f62a3c1c-984b-40e1-98ae-4cca49c31bea",
        "meta": {
          "profile": [
            "http://hl7.eu/fhir/laboratory/StructureDefinition/Composition-eu-lab"
          ]
        },
        "identifier": {
          "assigner": {
            "display": "HL7 Europe"
          },
          "system": "urn:oid:2.16.840.1.113883.2.51.999",
          "value": "8be2f9b3-0f51-496f-bd81-1ec92a046d2e"
        },
        "author": [
          {
            "reference": "urn:uuid:0ab705f4-e913-4d70-a48e-8a4eb731ed08"
          }
        ],
        "category": [
          {
            "coding": [
              {
                "code": "26436-6",
                "system": "http://loinc.org",
                "display": "Laboratory studies (set)"
              }
            ]
          }
        ],
        "type": {
          "coding": [
            {
              "code": "11502-2",
              "system": "http://loinc.org",
              "display": "Laboratory report"
            }
          ],
          "text": "Laboratory Report"
        },
        "section": [
          {
            "code": {
              "coding": [
                {
                  "code": "26436-6",
                  "system": "http://loinc.org",
                  "display": "Laboratory studies (set)"
                }
              ],
              "text": "Laboratory studies"
            },
            "section": [
              {
                "code": {
                  "coding": [
                    {
                      "code": "$18719-5",
                      "system": "http://loinc.org",
                      "display": "Chemistry studies (set)"
                    }
                  ],
                  "text": "Chemistry"
                },
                "entry": [
                  {
                    "reference": "urn:uuid:2e956fac-d5f4-4fd7-8de1-104e511a97e6"
                  },
                  {
                    "reference": "urn:uuid:545f3f81-887f-4734-b3c9-f95beed8cbff"
                  },
                  {
                    "reference": "urn:uuid:50549d8f-ec29-4bec-addc-604352a6c028"
                  },
                  {
                    "reference": "urn:uuid:9277d9b6-0c9d-4eeb-9c34-5a8d17af4723"
                  },
                  {
                    "reference": "urn:uuid:6f67d8f3-76ab-4e64-bf52-a1d0cc6c8b98"
                  },
                  {
                    "reference": "urn:uuid:682ce7ee-1945-4b56-8d69-35e3d0b9d47d"
                  },
                  {
                    "reference": "urn:uuid:b46b4bb1-52a2-40b1-aee0-09ee77eb2959"
                  },
                  {
                    "reference": "urn:uuid:df785536-bcd8-4f53-adfc-42a97298eaf6"
                  },
                  {
                    "reference": "urn:uuid:3d26f485-0f0b-47c8-8994-2d21666ecca1"
                  },
                  {
                    "reference": "urn:uuid:0ab8e9af-c696-460f-a887-41237192981a"
                  },
                  {
                    "reference": "urn:uuid:15365153-b65b-4980-8993-ceef17a2b952"
                  },
                  {
                    "reference": "urn:uuid:08cc1054-faab-4a9d-b6b9-6865d694450f"
                  },
                  {
                    "reference": "urn:uuid:56066f85-7f55-407e-957c-1396598aeeb7"
                  },
                  {
                    "reference": "urn:uuid:e14c0837-32f7-4018-ad1f-741e12061af6"
                  },
                  {
                    "reference": "urn:uuid:4c91ff4e-3df8-4e4f-97c6-0a2d29267a6a"
                  },
                  {
                    "reference": "urn:uuid:472948e9-c638-411f-90d4-6a0e149057ed"
                  },
                  {
                    "reference": "urn:uuid:ba710fef-8a5a-4cf8-9242-e69055fa4305"
                  },
                  {
                    "reference": "urn:uuid:a6f9ce32-a7b1-4f2b-a97b-5addb852a819"
                  }
                ],
                "text": {
                  "status": "generated",
                  "div": "<div xmlns=\"http://www.w3.org/1999/xhtml\"><h3>Chemistry</h3><table class=\"hl7__eu__lab__report\"><thead><tr><th>Test</th><th>17-JAN-2018</th><th>Reference&#xA0;Range</th><th>Unit</th></tr></thead><tbody><tr><td>Glucose [Mass/volume] in Serum or Plasma</td><td>72.5</td><td>70 - 140</td><td>mg/dL</td></tr><tr><td>Urea nitrogen [Mass/volume] in Serum or Plasma</td><td>14.6</td><td>7 - 20</td><td>mg/dL</td></tr><tr><td>Creatinine [Mass/volume] in Serum or Plasma</td><td><strong>2.5 H</strong></td><td>0.6 - 1.3</td><td>mg/dL</td></tr><tr><td>Calcium [Mass/volume] in Serum or Plasma</td><td>9.8</td><td>8.6 - 10.4</td><td>mg/dL</td></tr><tr><td>Sodium [Moles/volume] in Serum or Plasma</td><td>141.0</td><td>135 - 145</td><td>mmol/L</td></tr><tr><td>Potassium [Moles/volume] in Serum or Plasma</td><td>4.8</td><td>3.5 - 5.1</td><td>mmol/L</td></tr><tr><td>Chloride [Moles/volume] in Serum or Plasma</td><td><strong>108.8 H</strong></td><td>98 - 108</td><td>mmol/L</td></tr><tr><td>Carbon dioxide, total [Moles/volume] in Serum or Plasma</td><td>24.7</td><td>22 - 32</td><td>mmol/L</td></tr><tr><td>Ketones [Presence] in Urine by Test strip</td><td>Urine ketone test = +++</td><td></td><td></td></tr><tr><td>Hemoglobin A1c/Hemoglobin.total in Blood</td><td><strong>3.3 L</strong></td><td>4.5 - 6.4</td><td>%</td></tr><tr><td>Glucose [Mass/volume] in Blood</td><td>72.5</td><td>70 - 140</td><td>mg/dL</td></tr><tr><td>Urea nitrogen [Mass/volume] in Blood</td><td>14.6</td><td>7 - 30</td><td>mg/dL</td></tr><tr><td>Creatinine [Mass/volume] in Blood</td><td><strong>9.1 H</strong></td><td>0.5 - 1.3</td><td>mg/dL</td></tr><tr><td>Calcium [Mass/volume] in Blood</td><td>9.8</td><td>8.6 - 10.2</td><td>mg/dL</td></tr><tr><td>Sodium [Moles/volume] in Blood</td><td>141.0</td><td>135 - 145</td><td>mmol/L</td></tr><tr><td>Potassium [Moles/volume] in Blood</td><td>4.8</td><td>3.5 - 5.1</td><td>mmol/L</td></tr><tr><td>Chloride [Moles/volume] in Blood</td><td>108.8</td><td>98 - 114</td><td>mmol/L</td></tr><tr><td>Carbon dioxide, total [Moles/volume] in Blood</td><td>24.7</td><td>22 - 32</td><td>mmol/L</td></tr></tbody></table></div>"
                },
                "title": "Chemistry"
              },
              {
                "code": {
                  "coding": [
                    {
                      "code": "$18729-4",
                      "system": "http://loinc.org",
                      "display": "Urinalysis studies (set)"
                    }
                  ],
                  "text": "Urinalysis"
                },
                "entry": [
                  {
                    "reference": "urn:uuid:4d98856a-6bf2-4859-bb86-4e041fe283d1"
                  },
                  {
                    "reference": "urn:uuid:41072474-376a-4591-b35b-f5f2404bf856"
                  },
                  {
                    "reference": "urn:uuid:323a129d-8bee-4d66-b593-8d9adbfb52e4"
                  },
                  {
                    "reference": "urn:uuid:def2e8c1-e308-4545-8f25-e6ef8ed4af36"
                  },
                  {
                    "reference": "urn:uuid:59398ab0-dd06-4516-9b54-4a603afbf0ea"
                  },
                  {
                    "reference": "urn:uuid:ab023327-ebf8-4852-8b94-f8164d29e91e"
                  },
                  {
                    "reference": "urn:uuid:c090c8e9-1cac-45ff-ae3e-06dc49b815ea"
                  },
                  {
                    "reference": "urn:uuid:e89d5e5b-a146-4c01-a48b-14e08c66438c"
                  },
                  {
                    "reference": "urn:uuid:e379d095-2b5d-463a-a496-1789f9af198f"
                  },
                  {
                    "reference": "urn:uuid:3d00a1eb-29ec-49a2-9c8f-f793e0266746"
                  },
                  {
                    "reference": "urn:uuid:f597a5fa-50bc-47b3-836a-3364e0b8d907"
                  },
                  {
                    "reference": "urn:uuid:1076779e-7ee4-48c5-82ae-060ba66d0e2c"
                  }
                ],
                "text": {
                  "status": "generated",
                  "div": "<div xmlns=\"http://www.w3.org/1999/xhtml\"><h3>Urinalysis</h3><table class=\"hl7__eu__lab__report\"><thead><tr><th>Test</th><th>17-JAN-2018</th><th>Reference&#xA0;Range</th><th>Unit</th></tr></thead><tbody><tr><td>Glucose [Mass/volume] in Urine by Test strip</td><td><strong>0.6 L</strong></td><td>0.8 - 0</td><td>mg/dL</td></tr><tr><td>Glucose [Presence] in Urine by Test strip</td><td>++</td><td></td><td></td></tr><tr><td>Bilirubin.total [Mass/volume] in Urine by Test strip</td><td>1.5</td><td>0 - 1.5</td><td>mg/dL</td></tr><tr><td>Bilirubin.total [Presence] in Urine by Test strip</td><td>Finding of bilirubin in urine</td><td></td><td></td></tr><tr><td>Ketones [Mass/volume] in Urine by Test strip</td><td><strong>19.7 H</strong></td><td>0 - 8</td><td>mg/dL</td></tr><tr><td>Specific gravity of Urine by Test strip</td><td><strong>1.0 L</strong></td><td>1.01 - 1.03</td><td>{nominal}</td></tr><tr><td>pH of Urine by Test strip</td><td>6.0</td><td>4.6 - 7.5</td><td>pH</td></tr><tr><td>Protein [Mass/volume] in Urine by Test strip</td><td><strong>348.7 H</strong></td><td>0 - 14</td><td>mg/dL</td></tr><tr><td>Protein [Presence] in Urine by Test strip</td><td>Urine protein test = +++</td><td></td><td></td></tr><tr><td>Nitrite [Presence] in Urine by Test strip</td><td>Urine nitrite negative</td><td></td><td></td></tr><tr><td>Hemoglobin [Presence] in Urine by Test strip</td><td>Urine blood test = negative</td><td></td><td></td></tr><tr><td>Leukocyte esterase [Presence] in Urine by Test strip</td><td>Urine leukocyte test negative</td><td></td><td></td></tr></tbody></table></div>"
                },
                "title": "Urinalysis"
              },
              {
                "code": {
                  "coding": [
                    {
                      "code": "$LP7846-1",
                      "system": "http://loinc.org",
                      "display": "Specimen information"
                    }
                  ],
                  "text": "Specimen information"
                },
                "entry": [
                  {
                    "reference": "urn:uuid:d7cf6c0b-1727-4282-aa61-555cdf6135b1"
                  },
                  {
                    "reference": "urn:uuid:7f8e510d-db4a-44c1-ba6d-bd164896547d"
                  },
                  {
                    "reference": "urn:uuid:d8ffd4af-f539-4ed5-a376-e556701ab63c"
                  },
                  {
                    "reference": "urn:uuid:ec7dd67e-d54e-4c94-862c-a0ab3bffb434"
                  }
                ],
                "text": {
                  "status": "generated",
                  "div": "<div xmlns=\"http://www.w3.org/1999/xhtml\"><h3>Specimen information</h3><table class=\"hl7__eu__lab__report\"><thead><tr><th>Test</th><th>17-JAN-2018</th><th>Specimen</th><th></th></tr></thead><tbody><tr><td>Appearance of Urine</td><td>Cloudy urine</td><td>Urine</td><td></td></tr><tr><td>Odor of Urine</td><td>Urine smell ammoniacal</td><td>Urine</td><td></td></tr><tr><td>Clarity of Urine</td><td>Translucent</td><td>Urine</td><td></td></tr><tr><td>Color of Urine</td><td>Brown color</td><td>Urine</td><td></td></tr></tbody></table></div>"
                },
                "title": "Specimen information"
              }
            ],
            "title": "Laboratory Report"
          },
          {
            "text": {
              "status": "generated",
              "div": "<div xmlns=\"http://www.w3.org/1999/xhtml\"><h3>Annotation</h3><table class=\"hl7__eu__lab__report\"><tr><th>Conclusion and Recommendations based on this report and previous findings known to us</th></tr><tr><td>The patient shows markedly elevated creatinine, proteinuria, and ketonuria, with low urine specific gravity and abnormal urine appearance, suggesting significant renal impairment, likely acute or chronic kidney disease with possible nephrotic features. Blood glucose is low-normal with low HbA1c, and there is no evidence of urinary tract infection. Further nephrological evaluation and clinical correlation are strongly recommended.</td></tr></table></div>"
            },
            "code": {
              "coding": [
                {
                  "system": "http://loinc.org",
                  "code": "48767-8",
                  "display": "Annotation comment"
                }
              ]
            },
            "title": "Annotation comment"
          }
        ],
        "status": "final",
        "subject": {
          "reference": "urn:uuid:a9402d57-f063-43bd-9ffe-29e111a85584",
          "display": "Maria Nohlmans"
        },
        "date": "2018-01-17T12:02:39Z",
        "title": "Laboratory Report",
        "confidentiality": "N"
      }
    },
    {
      "fullUrl": "urn:uuid:ec10d6da-d8d7-47d6-b1f6-c7c9a5e8d504",
      "resource": {
        "resourceType": "DiagnosticReport",
        "id": "ec10d6da-d8d7-47d6-b1f6-c7c9a5e8d504",
        "meta": {
          "profile": [
            "http://hl7.eu/fhir/laboratory/StructureDefinition/DiagnosticReport-eu-lab"
          ]
        },
        "identifier": [
          {
            "assigner": {
              "display": "HL7 Europe"
            },
            "system": "urn:oid:2.16.840.1.113883.2.51.999",
            "value": "daa5f949-2a26-4dc9-af49-127af7c8c0e8"
          }
        ],
        "extension": [
          {
            "url": "http://hl7.org/fhir/5.0/StructureDefinition/extension-DiagnosticReport.composition",
            "valueReference": {
              "reference": "urn:uuid:8be2f9b3-0f51-496f-bd81-1ec92a046d2e"
            }
          }
        ],
        "category": [
          {
            "coding": [
              {
                "code": "26436-6",
                "system": "http://loinc.org",
                "display": "Laboratory studies (set)"
              }
            ]
          }
        ],
        "specimen": [
          {
            "reference": "urn:uuid:2c02ef0a-7638-44f2-94ab-38c749093512"
          },
          {
            "reference": "urn:uuid:ce807b41-bbcb-4923-9d16-83574fc41501"
          },
          {
            "reference": "urn:uuid:10694112-c764-4779-8988-d0b05493458d"
          }
        ],
        "result": [
          {
            "reference": "urn:uuid:2e956fac-d5f4-4fd7-8de1-104e511a97e6"
          },
          {
            "reference": "urn:uuid:545f3f81-887f-4734-b3c9-f95beed8cbff"
          },
          {
            "reference": "urn:uuid:50549d8f-ec29-4bec-addc-604352a6c028"
          },
          {
            "reference": "urn:uuid:9277d9b6-0c9d-4eeb-9c34-5a8d17af4723"
          },
          {
            "reference": "urn:uuid:6f67d8f3-76ab-4e64-bf52-a1d0cc6c8b98"
          },
          {
            "reference": "urn:uuid:682ce7ee-1945-4b56-8d69-35e3d0b9d47d"
          },
          {
            "reference": "urn:uuid:b46b4bb1-52a2-40b1-aee0-09ee77eb2959"
          },
          {
            "reference": "urn:uuid:df785536-bcd8-4f53-adfc-42a97298eaf6"
          },
          {
            "reference": "urn:uuid:d7cf6c0b-1727-4282-aa61-555cdf6135b1"
          },
          {
            "reference": "urn:uuid:7f8e510d-db4a-44c1-ba6d-bd164896547d"
          },
          {
            "reference": "urn:uuid:d8ffd4af-f539-4ed5-a376-e556701ab63c"
          },
          {
            "reference": "urn:uuid:ec7dd67e-d54e-4c94-862c-a0ab3bffb434"
          },
          {
            "reference": "urn:uuid:4d98856a-6bf2-4859-bb86-4e041fe283d1"
          },
          {
            "reference": "urn:uuid:41072474-376a-4591-b35b-f5f2404bf856"
          },
          {
            "reference": "urn:uuid:323a129d-8bee-4d66-b593-8d9adbfb52e4"
          },
          {
            "reference": "urn:uuid:def2e8c1-e308-4545-8f25-e6ef8ed4af36"
          },
          {
            "reference": "urn:uuid:59398ab0-dd06-4516-9b54-4a603afbf0ea"
          },
          {
            "reference": "urn:uuid:3d26f485-0f0b-47c8-8994-2d21666ecca1"
          },
          {
            "reference": "urn:uuid:ab023327-ebf8-4852-8b94-f8164d29e91e"
          },
          {
            "reference": "urn:uuid:c090c8e9-1cac-45ff-ae3e-06dc49b815ea"
          },
          {
            "reference": "urn:uuid:e89d5e5b-a146-4c01-a48b-14e08c66438c"
          },
          {
            "reference": "urn:uuid:e379d095-2b5d-463a-a496-1789f9af198f"
          },
          {
            "reference": "urn:uuid:3d00a1eb-29ec-49a2-9c8f-f793e0266746"
          },
          {
            "reference": "urn:uuid:f597a5fa-50bc-47b3-836a-3364e0b8d907"
          },
          {
            "reference": "urn:uuid:1076779e-7ee4-48c5-82ae-060ba66d0e2c"
          },
          {
            "reference": "urn:uuid:0ab8e9af-c696-460f-a887-41237192981a"
          },
          {
            "reference": "urn:uuid:15365153-b65b-4980-8993-ceef17a2b952"
          },
          {
            "reference": "urn:uuid:08cc1054-faab-4a9d-b6b9-6865d694450f"
          },
          {
            "reference": "urn:uuid:56066f85-7f55-407e-957c-1396598aeeb7"
          },
          {
            "reference": "urn:uuid:e14c0837-32f7-4018-ad1f-741e12061af6"
          },
          {
            "reference": "urn:uuid:4c91ff4e-3df8-4e4f-97c6-0a2d29267a6a"
          },
          {
            "reference": "urn:uuid:472948e9-c638-411f-90d4-6a0e149057ed"
          },
          {
            "reference": "urn:uuid:ba710fef-8a5a-4cf8-9242-e69055fa4305"
          },
          {
            "reference": "urn:uuid:a6f9ce32-a7b1-4f2b-a97b-5addb852a819"
          }
        ],
        "status": "registered",
        "code": {
          "coding": [
            {
              "code": "11502-2",
              "system": "http://loinc.org",
              "display": "Laboratory report"
            }
          ]
        },
        "subject": {
          "reference": "urn:uuid:a9402d57-f063-43bd-9ffe-29e111a85584",
          "display": "Maria Nohlmans"
        }
      }
    },
    {
      "fullUrl": "urn:uuid:a9402d57-f063-43bd-9ffe-29e111a85584",
      "resource": {
        "resourceType": "Patient",
        "id": "a9402d57-f063-43bd-9ffe-29e111a85584",
        "meta": {
          "security": [
            {
              "system": "http://terminology.hl7.org/CodeSystem/v3-ActReason",
              "code": "HTEST"
            },
            {
              "system": "http://terminology.hl7.org/CodeSystem/v3-ActReason",
              "code": "TRAIN"
            }
          ],
          "tag": [
            {
              "system": "https://synderai.net/fhir/CodeSystem/tags",
              "code": "synthetic",
              "display": "SYNDERAI Synthetic data"
            }
          ],
          "profile": [
            "http://hl7.eu/fhir/base/StructureDefinition/patient-eu-core"
          ]
        },
        "identifier": [
          {
            "type": {
              "coding": [
                {
                  "code": "PT",
                  "system": "http://terminology.hl7.org/CodeSystem/v2-0203"
                }
              ]
            },
            "system": "http://ec.europa.eu/identifier/eci",
            "value": "6886-506417-1"
          },
          {
            "type": {
              "coding": [
                {
                  "code": "MR",
                  "system": "http://terminology.hl7.org/CodeSystem/v2-0203"
                }
              ]
            },
            "system": "http://local.setting.eu/identifier",
            "value": "2cb21ed6-b617-b1f3-2290-589a710de5ee"
          }
        ],
        "name": [
          {
            "family": "Nohlmans"
          },
          {
            "given": [
              "Maria"
            ]
          },
          {
            "text": "Maria Nohlmans"
          }
        ],
        "address": [
          {
            "line": [
              "Alfons-Wulff-Weg 1"
            ],
            "use": "home",
            "type": "physical",
            "postalCode": "25813",
            "city": "Husum",
            "country": "Germany"
          }
        ],
        "telecom": [
          {
            "system": "phone",
            "value": "+49(0)1911 105501"
          }
        ],
        "extension": [
          {
            "url": "http://hl7.org/fhir/StructureDefinition/patient-nationality",
            "valueCodeableConcept": {
              "coding": [
                {
                  "code": "DE",
                  "system": "http://hl7.org/fhir/ValueSet/country"
                }
              ]
            }
          }
        ],
        "text": {
          "status": "generated",
          "div": "<div xmlns=\"http://www.w3.org/1999/xhtml\"><table class=\"hl7__ips\"><tr><td>Maria Nohlmans</td><td>female</td><td>11-Jun-1947</td></tr></table></div>"
        },
        "gender": "female",
        "birthDate": "1947-06-11"
      }
    },
    {
      "fullUrl": "urn:uuid:c471bfcf-2bd9-43bb-9b21-a5d4b8eb9aa7",
      "resource": {
        "resourceType": "ServiceRequest",
        "id": "c471bfcf-2bd9-43bb-9b21-a5d4b8eb9aa7",
        "meta": {
          "profile": [
            "http://hl7.eu/fhir/laboratory/StructureDefinition/ServiceRequest-eu-lab"
          ]
        },
        "identifier": [
          {
            "system": "http://example.org",
            "value": "37dde851-1fb8-45eb-9209-bfeab726015d"
          }
        ],
        "specimen": [
          {
            "reference": "urn:uuid:2c02ef0a-7638-44f2-94ab-38c749093512"
          },
          {
            "reference": "urn:uuid:ce807b41-bbcb-4923-9d16-83574fc41501"
          },
          {
            "reference": "urn:uuid:10694112-c764-4779-8988-d0b05493458d"
          }
        ],
        "reasonCode": [
          {
            "coding": [
              {
                "code": "401314000",
                "system": "http://snomed.info/sct",
                "display": "Acute non-ST segment elevation myocardial infarction"
              }
            ]
          },
          {
            "coding": [
              {
                "code": "157141000119108",
                "system": "http://snomed.info/sct",
                "display": "Proteinuria due to type 2 diabetes mellitus"
              }
            ]
          },
          {
            "coding": [
              {
                "code": "237602007",
                "system": "http://snomed.info/sct",
                "display": "Metabolic syndrome X"
              }
            ]
          },
          {
            "coding": [
              {
                "code": "90781000119102",
                "system": "http://snomed.info/sct",
                "display": "Microalbuminuria due to type 2 diabetes mellitus"
              }
            ]
          },
          {
            "coding": [
              {
                "code": "127013003",
                "system": "http://snomed.info/sct",
                "display": "Disorder of kidney due to diabetes mellitus"
              }
            ]
          },
          {
            "coding": [
              {
                "code": "59621000",
                "system": "http://snomed.info/sct",
                "display": "Essential hypertension"
              }
            ]
          },
          {
            "coding": [
              {
                "code": "271737000",
                "system": "http://snomed.info/sct",
                "display": "Anemia"
              }
            ]
          },
          {
            "coding": [
              {
                "code": "15777000",
                "system": "http://snomed.info/sct",
                "display": "Prediabetes"
              }
            ]
          }
        ],
        "status": "active",
        "intent": "order",
        "code": {
          "coding": [
            {
              "code": "108252007",
              "system": "http://snomed.info/sct",
              "display": "Laboratory procedure"
            }
          ]
        },
        "subject": {
          "reference": "urn:uuid:a9402d57-f063-43bd-9ffe-29e111a85584",
          "display": "Maria Nohlmans"
        },
        "requester": {
          "reference": "urn:uuid:912747b8-1cc3-4036-93e4-f17498f4b84d"
        }
      }
    },
    {
      "fullUrl": "urn:uuid:912747b8-1cc3-4036-93e4-f17498f4b84d",
      "resource": {
        "resourceType": "PractitionerRole",
        "id": "912747b8-1cc3-4036-93e4-f17498f4b84d",
        "meta": {
          "profile": [
            "http://hl7.eu/fhir/base/StructureDefinition/practitionerRole-eu"
          ]
        },
        "text": {
          "status": "generated",
          "div": "<div xmlns=\"http://www.w3.org/1999/xhtml\">Provider Role Id: 912747b8-1cc3-4036-93e4-f17498f4b84d</div>"
        },
        "organization": {
          "reference": "urn:uuid:adb69001-4e34-4129-a6f6-2b7626099367"
        }
      }
    },
    {
      "fullUrl": "urn:uuid:adb69001-4e34-4129-a6f6-2b7626099367",
      "resource": {
        "resourceType": "Organization",
        "id": "adb69001-4e34-4129-a6f6-2b7626099367",
        "meta": {
          "profile": [
            "http://hl7.eu/fhir/base/StructureDefinition/organization-eu"
          ]
        },
        "identifier": [
          {
            "assigner": {
              "display": "HL7 Europe"
            },
            "system": "urn:oid:2.16.840.1.113883.2.51.999",
            "value": "e806ce50-6da5-4c90-a4ea-336d494df8ee"
          }
        ],
        "address": [
          {
            "line": [
              "Brinckmannstraße 35"
            ],
            "city": "Husum",
            "postalCode": "25813",
            "country": "Germany"
          }
        ],
        "text": {
          "status": "generated",
          "div": "<div xmlns=\"http://www.w3.org/1999/xhtml\">Provider Organization: Dr. Wolfram Hussels Kieferorthopäde</div>"
        },
        "name": "Dr. Wolfram Hussels Kieferorthopäde"
      }
    },
    {
      "fullUrl": "urn:uuid:2c02ef0a-7638-44f2-94ab-38c749093512",
      "resource": {
        "resourceType": "Specimen",
        "id": "2c02ef0a-7638-44f2-94ab-38c749093512",
        "meta": {
          "profile": [
            "http://hl7.eu/fhir/laboratory/StructureDefinition/Specimen-eu-lab"
          ]
        },
        "collection": {
          "collectedDateTime": "2018-01-17"
        },
        "text": {
          "status": "generated",
          "div": "<div xmlns=\"http://www.w3.org/1999/xhtml\"><table class=\"hl7__eu__lab__report\"><tr><th>Specimen</th><th>Collection Date</th></tr><tr><td>Acellular blood (serum or plasma) specimen</td><td><span class=\"nb\">17-Jan-2018</span></td></tr></table></div>"
        },
        "type": {
          "coding": [
            {
              "code": "122592007",
              "system": "http://snomed.info/sct",
              "display": "Acellular blood (serum or plasma) specimen"
            }
          ]
        }
      }
    },
    {
      "fullUrl": "urn:uuid:ce807b41-bbcb-4923-9d16-83574fc41501",
      "resource": {
        "resourceType": "Specimen",
        "id": "ce807b41-bbcb-4923-9d16-83574fc41501",
        "meta": {
          "profile": [
            "http://hl7.eu/fhir/laboratory/StructureDefinition/Specimen-eu-lab"
          ]
        },
        "collection": {
          "collectedDateTime": "2018-01-17"
        },
        "text": {
          "status": "generated",
          "div": "<div xmlns=\"http://www.w3.org/1999/xhtml\"><table class=\"hl7__eu__lab__report\"><tr><th>Specimen</th><th>Collection Date</th></tr><tr><td>Urine specimen</td><td><span class=\"nb\">17-Jan-2018</span></td></tr></table></div>"
        },
        "type": {
          "coding": [
            {
              "code": "122575003",
              "system": "http://snomed.info/sct",
              "display": "Urine specimen"
            }
          ]
        }
      }
    },
    {
      "fullUrl": "urn:uuid:10694112-c764-4779-8988-d0b05493458d",
      "resource": {
        "resourceType": "Specimen",
        "id": "10694112-c764-4779-8988-d0b05493458d",
        "meta": {
          "profile": [
            "http://hl7.eu/fhir/laboratory/StructureDefinition/Specimen-eu-lab"
          ]
        },
        "collection": {
          "collectedDateTime": "2018-01-17"
        },
        "text": {
          "status": "generated",
          "div": "<div xmlns=\"http://www.w3.org/1999/xhtml\"><table class=\"hl7__eu__lab__report\"><tr><th>Specimen</th><th>Collection Date</th></tr><tr><td>Whole blood specimen (specimen)</td><td><span class=\"nb\">17-Jan-2018</span></td></tr></table></div>"
        },
        "type": {
          "coding": [
            {
              "code": "258580003",
              "system": "http://snomed.info/sct",
              "display": "Whole blood specimen (specimen)"
            }
          ]
        }
      }
    },
    {
      "fullUrl": "urn:uuid:2e956fac-d5f4-4fd7-8de1-104e511a97e6",
      "resource": {
        "resourceType": "Observation",
        "id": "2e956fac-d5f4-4fd7-8de1-104e511a97e6",
        "meta": {
          "profile": [
            "http://hl7.eu/fhir/laboratory/StructureDefinition/Observation-resultslab-eu-lab"
          ]
        },
        "performer": [
          {
            "display": "The Central European Lab"
          }
        ],
        "category": [
          {
            "coding": [
              {
                "system": "http://terminology.hl7.org/CodeSystem/observation-category",
                "code": "laboratory"
              }
            ]
          }
        ],
        "code": {
          "coding": [
            {
              "code": "2345-7",
              "system": "http://loinc.org",
              "display": "Glucose [Mass/volume] in Serum or Plasma"
            }
          ],
          "text": "Glucose [Mass/volume] in Serum or Plasma"
        },
        "valueQuantity": {
          "system": "http://unitsofmeasure.org",
          "value": 72.5,
          "unit": "mg/dL",
          "code": "mg/dL"
        },
        "referenceRange": [
          {
            "low": {
              "value": 70,
              "code": "mg/dL",
              "system": "http://unitsofmeasure.org"
            }
          },
          {
            "high": {
              "value": 140,
              "code": "mg/dL",
              "system": "http://unitsofmeasure.org"
            }
          }
        ],
        "text": {
          "status": "generated",
          "div": "<div xmlns=\"http://www.w3.org/1999/xhtml\"><table class=\"hl7__eu__lab__report\"><tr><th>Test</th><th>17-Jan-2018</th><th>Reference&#xA0;Range</th><th>Unit</th></tr><tr><td>Glucose [Mass/volume] in Serum or Plasma</td><td>72.5</td><td>70 - 140</td><td></td><td>mg/dL</td></tr></table></div>"
        },
        "status": "final",
        "subject": {
          "reference": "urn:uuid:a9402d57-f063-43bd-9ffe-29e111a85584",
          "display": "Maria Nohlmans"
        },
        "effectiveDateTime": "2018-01-17T11:02:39Z",
        "specimen": {
          "reference": "urn:uuid:2c02ef0a-7638-44f2-94ab-38c749093512"
        }
      }
    },
    {
      "fullUrl": "urn:uuid:545f3f81-887f-4734-b3c9-f95beed8cbff",
      "resource": {
        "resourceType": "Observation",
        "id": "545f3f81-887f-4734-b3c9-f95beed8cbff",
        "meta": {
          "profile": [
            "http://hl7.eu/fhir/laboratory/StructureDefinition/Observation-resultslab-eu-lab"
          ]
        },
        "performer": [
          {
            "display": "The Central European Lab"
          }
        ],
        "category": [
          {
            "coding": [
              {
                "system": "http://terminology.hl7.org/CodeSystem/observation-category",
                "code": "laboratory"
              }
            ]
          }
        ],
        "code": {
          "coding": [
            {
              "code": "3094-0",
              "system": "http://loinc.org",
              "display": "Urea nitrogen [Mass/volume] in Serum or Plasma"
            }
          ],
          "text": "Urea nitrogen [Mass/volume] in Serum or Plasma"
        },
        "valueQuantity": {
          "system": "http://unitsofmeasure.org",
          "value": 14.6,
          "unit": "mg/dL",
          "code": "mg/dL"
        },
        "referenceRange": [
          {
            "low": {
              "value": 7,
              "code": "mg/dL",
              "system": "http://unitsofmeasure.org"
            }
          },
          {
            "high": {
              "value": 20,
              "code": "mg/dL",
              "system": "http://unitsofmeasure.org"
            }
          }
        ],
        "text": {
          "status": "generated",
          "div": "<div xmlns=\"http://www.w3.org/1999/xhtml\"><table class=\"hl7__eu__lab__report\"><tr><th>Test</th><th>17-Jan-2018</th><th>Reference&#xA0;Range</th><th>Unit</th></tr><tr><td>Urea nitrogen [Mass/volume] in Serum or Plasma</td><td>14.6</td><td>7 - 20</td><td></td><td>mg/dL</td></tr></table></div>"
        },
        "status": "final",
        "subject": {
          "reference": "urn:uuid:a9402d57-f063-43bd-9ffe-29e111a85584",
          "display": "Maria Nohlmans"
        },
        "effectiveDateTime": "2018-01-17T11:02:39Z",
        "specimen": {
          "reference": "urn:uuid:2c02ef0a-7638-44f2-94ab-38c749093512"
        }
      }
    },
    {
      "fullUrl": "urn:uuid:50549d8f-ec29-4bec-addc-604352a6c028",
      "resource": {
        "resourceType": "Observation",
        "id": "50549d8f-ec29-4bec-addc-604352a6c028",
        "meta": {
          "profile": [
            "http://hl7.eu/fhir/laboratory/StructureDefinition/Observation-resultslab-eu-lab"
          ]
        },
        "performer": [
          {
            "display": "The Central European Lab"
          }
        ],
        "category": [
          {
            "coding": [
              {
                "system": "http://terminology.hl7.org/CodeSystem/observation-category",
                "code": "laboratory"
              }
            ]
          }
        ],
        "code": {
          "coding": [
            {
              "code": "2160-0",
              "system": "http://loinc.org",
              "display": "Creatinine [Mass/volume] in Serum or Plasma"
            }
          ],
          "text": "Creatinine [Mass/volume] in Serum or Plasma"
        },
        "valueQuantity": {
          "system": "http://unitsofmeasure.org",
          "value": 2.5,
          "unit": "mg/dL",
          "code": "mg/dL"
        },
        "referenceRange": [
          {
            "low": {
              "value": 0.6,
              "code": "mg/dL",
              "system": "http://unitsofmeasure.org"
            }
          },
          {
            "high": {
              "value": 1.3,
              "code": "mg/dL",
              "system": "http://unitsofmeasure.org"
            }
          }
        ],
        "interpretation": [
          {
            "coding": [
              {
                "code": "H",
                "system": "http://terminology.hl7.org/CodeSystem/v3-ObservationInterpretation",
                "display": "High"
              }
            ]
          }
        ],
        "text": {
          "status": "generated",
          "div": "<div xmlns=\"http://www.w3.org/1999/xhtml\"><table class=\"hl7__eu__lab__report\"><tr><th>Test</th><th>17-Jan-2018</th><th>Reference&#xA0;Range</th><th>Unit</th></tr><tr><td>Creatinine [Mass/volume] in Serum or Plasma</td><td>2.5</td><td>0.6 - 1.3</td><td>H</td><td>mg/dL</td></tr></table></div>"
        },
        "status": "final",
        "subject": {
          "reference": "urn:uuid:a9402d57-f063-43bd-9ffe-29e111a85584",
          "display": "Maria Nohlmans"
        },
        "effectiveDateTime": "2018-01-17T11:02:39Z",
        "specimen": {
          "reference": "urn:uuid:2c02ef0a-7638-44f2-94ab-38c749093512"
        }
      }
    },
    {
      "fullUrl": "urn:uuid:9277d9b6-0c9d-4eeb-9c34-5a8d17af4723",
      "resource": {
        "resourceType": "Observation",
        "id": "9277d9b6-0c9d-4eeb-9c34-5a8d17af4723",
        "meta": {
          "profile": [
            "http://hl7.eu/fhir/laboratory/StructureDefinition/Observation-resultslab-eu-lab"
          ]
        },
        "performer": [
          {
            "display": "The Central European Lab"
          }
        ],
        "category": [
          {
            "coding": [
              {
                "system": "http://terminology.hl7.org/CodeSystem/observation-category",
                "code": "laboratory"
              }
            ]
          }
        ],
        "code": {
          "coding": [
            {
              "code": "17861-6",
              "system": "http://loinc.org",
              "display": "Calcium [Mass/volume] in Serum or Plasma"
            }
          ],
          "text": "Calcium [Mass/volume] in Serum or Plasma"
        },
        "valueQuantity": {
          "system": "http://unitsofmeasure.org",
          "value": 9.8,
          "unit": "mg/dL",
          "code": "mg/dL"
        },
        "referenceRange": [
          {
            "low": {
              "value": 8.6,
              "code": "mg/dL",
              "system": "http://unitsofmeasure.org"
            }
          },
          {
            "high": {
              "value": 10.4,
              "code": "mg/dL",
              "system": "http://unitsofmeasure.org"
            }
          }
        ],
        "text": {
          "status": "generated",
          "div": "<div xmlns=\"http://www.w3.org/1999/xhtml\"><table class=\"hl7__eu__lab__report\"><tr><th>Test</th><th>17-Jan-2018</th><th>Reference&#xA0;Range</th><th>Unit</th></tr><tr><td>Calcium [Mass/volume] in Serum or Plasma</td><td>9.8</td><td>8.6 - 10.4</td><td></td><td>mg/dL</td></tr></table></div>"
        },
        "status": "final",
        "subject": {
          "reference": "urn:uuid:a9402d57-f063-43bd-9ffe-29e111a85584",
          "display": "Maria Nohlmans"
        },
        "effectiveDateTime": "2018-01-17T11:02:39Z",
        "specimen": {
          "reference": "urn:uuid:2c02ef0a-7638-44f2-94ab-38c749093512"
        }
      }
    },
    {
      "fullUrl": "urn:uuid:6f67d8f3-76ab-4e64-bf52-a1d0cc6c8b98",
      "resource": {
        "resourceType": "Observation",
        "id": "6f67d8f3-76ab-4e64-bf52-a1d0cc6c8b98",
        "meta": {
          "profile": [
            "http://hl7.eu/fhir/laboratory/StructureDefinition/Observation-resultslab-eu-lab"
          ]
        },
        "performer": [
          {
            "display": "The Central European Lab"
          }
        ],
        "category": [
          {
            "coding": [
              {
                "system": "http://terminology.hl7.org/CodeSystem/observation-category",
                "code": "laboratory"
              }
            ]
          }
        ],
        "code": {
          "coding": [
            {
              "code": "2951-2",
              "system": "http://loinc.org",
              "display": "Sodium [Moles/volume] in Serum or Plasma"
            }
          ],
          "text": "Sodium [Moles/volume] in Serum or Plasma"
        },
        "valueQuantity": {
          "system": "http://unitsofmeasure.org",
          "value": 141,
          "unit": "mmol/L",
          "code": "mmol/L"
        },
        "referenceRange": [
          {
            "low": {
              "value": 135,
              "code": "mmol/L",
              "system": "http://unitsofmeasure.org"
            }
          },
          {
            "high": {
              "value": 145,
              "code": "mmol/L",
              "system": "http://unitsofmeasure.org"
            }
          }
        ],
        "text": {
          "status": "generated",
          "div": "<div xmlns=\"http://www.w3.org/1999/xhtml\"><table class=\"hl7__eu__lab__report\"><tr><th>Test</th><th>17-Jan-2018</th><th>Reference&#xA0;Range</th><th>Unit</th></tr><tr><td>Sodium [Moles/volume] in Serum or Plasma</td><td>141.0</td><td>135 - 145</td><td></td><td>mmol/L</td></tr></table></div>"
        },
        "status": "final",
        "subject": {
          "reference": "urn:uuid:a9402d57-f063-43bd-9ffe-29e111a85584",
          "display": "Maria Nohlmans"
        },
        "effectiveDateTime": "2018-01-17T11:02:39Z",
        "specimen": {
          "reference": "urn:uuid:2c02ef0a-7638-44f2-94ab-38c749093512"
        }
      }
    },
    {
      "fullUrl": "urn:uuid:682ce7ee-1945-4b56-8d69-35e3d0b9d47d",
      "resource": {
        "resourceType": "Observation",
        "id": "682ce7ee-1945-4b56-8d69-35e3d0b9d47d",
        "meta": {
          "profile": [
            "http://hl7.eu/fhir/laboratory/StructureDefinition/Observation-resultslab-eu-lab"
          ]
        },
        "performer": [
          {
            "display": "The Central European Lab"
          }
        ],
        "category": [
          {
            "coding": [
              {
                "system": "http://terminology.hl7.org/CodeSystem/observation-category",
                "code": "laboratory"
              }
            ]
          }
        ],
        "code": {
          "coding": [
            {
              "code": "2823-3",
              "system": "http://loinc.org",
              "display": "Potassium [Moles/volume] in Serum or Plasma"
            }
          ],
          "text": "Potassium [Moles/volume] in Serum or Plasma"
        },
        "valueQuantity": {
          "system": "http://unitsofmeasure.org",
          "value": 4.8,
          "unit": "mmol/L",
          "code": "mmol/L"
        },
        "referenceRange": [
          {
            "low": {
              "value": 3.5,
              "code": "mmol/L",
              "system": "http://unitsofmeasure.org"
            }
          },
          {
            "high": {
              "value": 5.1,
              "code": "mmol/L",
              "system": "http://unitsofmeasure.org"
            }
          }
        ],
        "text": {
          "status": "generated",
          "div": "<div xmlns=\"http://www.w3.org/1999/xhtml\"><table class=\"hl7__eu__lab__report\"><tr><th>Test</th><th>17-Jan-2018</th><th>Reference&#xA0;Range</th><th>Unit</th></tr><tr><td>Potassium [Moles/volume] in Serum or Plasma</td><td>4.8</td><td>3.5 - 5.1</td><td></td><td>mmol/L</td></tr></table></div>"
        },
        "status": "final",
        "subject": {
          "reference": "urn:uuid:a9402d57-f063-43bd-9ffe-29e111a85584",
          "display": "Maria Nohlmans"
        },
        "effectiveDateTime": "2018-01-17T11:02:39Z",
        "specimen": {
          "reference": "urn:uuid:2c02ef0a-7638-44f2-94ab-38c749093512"
        }
      }
    },
    {
      "fullUrl": "urn:uuid:b46b4bb1-52a2-40b1-aee0-09ee77eb2959",
      "resource": {
        "resourceType": "Observation",
        "id": "b46b4bb1-52a2-40b1-aee0-09ee77eb2959",
        "meta": {
          "profile": [
            "http://hl7.eu/fhir/laboratory/StructureDefinition/Observation-resultslab-eu-lab"
          ]
        },
        "performer": [
          {
            "display": "The Central European Lab"
          }
        ],
        "category": [
          {
            "coding": [
              {
                "system": "http://terminology.hl7.org/CodeSystem/observation-category",
                "code": "laboratory"
              }
            ]
          }
        ],
        "code": {
          "coding": [
            {
              "code": "2075-0",
              "system": "http://loinc.org",
              "display": "Chloride [Moles/volume] in Serum or Plasma"
            }
          ],
          "text": "Chloride [Moles/volume] in Serum or Plasma"
        },
        "valueQuantity": {
          "system": "http://unitsofmeasure.org",
          "value": 108.8,
          "unit": "mmol/L",
          "code": "mmol/L"
        },
        "referenceRange": [
          {
            "low": {
              "value": 98,
              "code": "mmol/L",
              "system": "http://unitsofmeasure.org"
            }
          },
          {
            "high": {
              "value": 108,
              "code": "mmol/L",
              "system": "http://unitsofmeasure.org"
            }
          }
        ],
        "interpretation": [
          {
            "coding": [
              {
                "code": "H",
                "system": "http://terminology.hl7.org/CodeSystem/v3-ObservationInterpretation",
                "display": "High"
              }
            ]
          }
        ],
        "text": {
          "status": "generated",
          "div": "<div xmlns=\"http://www.w3.org/1999/xhtml\"><table class=\"hl7__eu__lab__report\"><tr><th>Test</th><th>17-Jan-2018</th><th>Reference&#xA0;Range</th><th>Unit</th></tr><tr><td>Chloride [Moles/volume] in Serum or Plasma</td><td>108.8</td><td>98 - 108</td><td>H</td><td>mmol/L</td></tr></table></div>"
        },
        "status": "final",
        "subject": {
          "reference": "urn:uuid:a9402d57-f063-43bd-9ffe-29e111a85584",
          "display": "Maria Nohlmans"
        },
        "effectiveDateTime": "2018-01-17T11:02:39Z",
        "specimen": {
          "reference": "urn:uuid:2c02ef0a-7638-44f2-94ab-38c749093512"
        }
      }
    },
    {
      "fullUrl": "urn:uuid:df785536-bcd8-4f53-adfc-42a97298eaf6",
      "resource": {
        "resourceType": "Observation",
        "id": "df785536-bcd8-4f53-adfc-42a97298eaf6",
        "meta": {
          "profile": [
            "http://hl7.eu/fhir/laboratory/StructureDefinition/Observation-resultslab-eu-lab"
          ]
        },
        "performer": [
          {
            "display": "The Central European Lab"
          }
        ],
        "category": [
          {
            "coding": [
              {
                "system": "http://terminology.hl7.org/CodeSystem/observation-category",
                "code": "laboratory"
              }
            ]
          }
        ],
        "code": {
          "coding": [
            {
              "code": "2028-9",
              "system": "http://loinc.org",
              "display": "Carbon dioxide, total [Moles/volume] in Serum or Plasma"
            }
          ],
          "text": "Carbon dioxide, total [Moles/volume] in Serum or Plasma"
        },
        "valueQuantity": {
          "system": "http://unitsofmeasure.org",
          "value": 24.7,
          "unit": "mmol/L",
          "code": "mmol/L"
        },
        "referenceRange": [
          {
            "low": {
              "value": 22,
              "code": "mmol/L",
              "system": "http://unitsofmeasure.org"
            }
          },
          {
            "high": {
              "value": 32,
              "code": "mmol/L",
              "system": "http://unitsofmeasure.org"
            }
          }
        ],
        "text": {
          "status": "generated",
          "div": "<div xmlns=\"http://www.w3.org/1999/xhtml\"><table class=\"hl7__eu__lab__report\"><tr><th>Test</th><th>17-Jan-2018</th><th>Reference&#xA0;Range</th><th>Unit</th></tr><tr><td>Carbon dioxide, total [Moles/volume] in Serum or Plasma</td><td>24.7</td><td>22 - 32</td><td></td><td>mmol/L</td></tr></table></div>"
        },
        "status": "final",
        "subject": {
          "reference": "urn:uuid:a9402d57-f063-43bd-9ffe-29e111a85584",
          "display": "Maria Nohlmans"
        },
        "effectiveDateTime": "2018-01-17T11:02:39Z",
        "specimen": {
          "reference": "urn:uuid:2c02ef0a-7638-44f2-94ab-38c749093512"
        }
      }
    },
    {
      "fullUrl": "urn:uuid:d7cf6c0b-1727-4282-aa61-555cdf6135b1",
      "resource": {
        "resourceType": "Observation",
        "id": "d7cf6c0b-1727-4282-aa61-555cdf6135b1",
        "meta": {
          "profile": [
            "http://hl7.eu/fhir/laboratory/StructureDefinition/Observation-resultslab-eu-lab"
          ]
        },
        "performer": [
          {
            "display": "The Central European Lab"
          }
        ],
        "category": [
          {
            "coding": [
              {
                "system": "http://terminology.hl7.org/CodeSystem/observation-category",
                "code": "laboratory"
              }
            ]
          }
        ],
        "code": {
          "coding": [
            {
              "code": "5767-9",
              "system": "http://loinc.org",
              "display": "Appearance of Urine"
            }
          ],
          "text": "Appearance of Urine"
        },
        "text": {
          "status": "generated",
          "div": "<div xmlns=\"http://www.w3.org/1999/xhtml\"><table class=\"hl7__eu__lab__report\"><tr><th>Test</th><th>17-Jan-2018</th><th>Reference&#xA0;Range</th><th>Unit</th></tr><tr><td>Appearance of Urine</td></tr></table></div>"
        },
        "status": "final",
        "subject": {
          "reference": "urn:uuid:a9402d57-f063-43bd-9ffe-29e111a85584",
          "display": "Maria Nohlmans"
        },
        "effectiveDateTime": "2018-01-17T11:02:39Z",
        "specimen": {
          "reference": "urn:uuid:ce807b41-bbcb-4923-9d16-83574fc41501"
        }
      }
    },
    {
      "fullUrl": "urn:uuid:7f8e510d-db4a-44c1-ba6d-bd164896547d",
      "resource": {
        "resourceType": "Observation",
        "id": "7f8e510d-db4a-44c1-ba6d-bd164896547d",
        "meta": {
          "profile": [
            "http://hl7.eu/fhir/laboratory/StructureDefinition/Observation-resultslab-eu-lab"
          ]
        },
        "performer": [
          {
            "display": "The Central European Lab"
          }
        ],
        "category": [
          {
            "coding": [
              {
                "system": "http://terminology.hl7.org/CodeSystem/observation-category",
                "code": "laboratory"
              }
            ]
          }
        ],
        "code": {
          "coding": [
            {
              "code": "34533-0",
              "system": "http://loinc.org",
              "display": "Odor of Urine"
            }
          ],
          "text": "Odor of Urine"
        },
        "text": {
          "status": "generated",
          "div": "<div xmlns=\"http://www.w3.org/1999/xhtml\"><table class=\"hl7__eu__lab__report\"><tr><th>Test</th><th>17-Jan-2018</th><th>Reference&#xA0;Range</th><th>Unit</th></tr><tr><td>Odor of Urine</td></tr></table></div>"
        },
        "status": "final",
        "subject": {
          "reference": "urn:uuid:a9402d57-f063-43bd-9ffe-29e111a85584",
          "display": "Maria Nohlmans"
        },
        "effectiveDateTime": "2018-01-17T11:02:39Z",
        "specimen": {
          "reference": "urn:uuid:ce807b41-bbcb-4923-9d16-83574fc41501"
        }
      }
    },
    {
      "fullUrl": "urn:uuid:d8ffd4af-f539-4ed5-a376-e556701ab63c",
      "resource": {
        "resourceType": "Observation",
        "id": "d8ffd4af-f539-4ed5-a376-e556701ab63c",
        "meta": {
          "profile": [
            "http://hl7.eu/fhir/laboratory/StructureDefinition/Observation-resultslab-eu-lab"
          ]
        },
        "performer": [
          {
            "display": "The Central European Lab"
          }
        ],
        "category": [
          {
            "coding": [
              {
                "system": "http://terminology.hl7.org/CodeSystem/observation-category",
                "code": "laboratory"
              }
            ]
          }
        ],
        "code": {
          "coding": [
            {
              "code": "32167-9",
              "system": "http://loinc.org",
              "display": "Clarity of Urine"
            }
          ],
          "text": "Clarity of Urine"
        },
        "text": {
          "status": "generated",
          "div": "<div xmlns=\"http://www.w3.org/1999/xhtml\"><table class=\"hl7__eu__lab__report\"><tr><th>Test</th><th>17-Jan-2018</th><th>Reference&#xA0;Range</th><th>Unit</th></tr><tr><td>Clarity of Urine</td></tr></table></div>"
        },
        "status": "final",
        "subject": {
          "reference": "urn:uuid:a9402d57-f063-43bd-9ffe-29e111a85584",
          "display": "Maria Nohlmans"
        },
        "effectiveDateTime": "2018-01-17T11:02:39Z",
        "specimen": {
          "reference": "urn:uuid:ce807b41-bbcb-4923-9d16-83574fc41501"
        }
      }
    },
    {
      "fullUrl": "urn:uuid:ec7dd67e-d54e-4c94-862c-a0ab3bffb434",
      "resource": {
        "resourceType": "Observation",
        "id": "ec7dd67e-d54e-4c94-862c-a0ab3bffb434",
        "meta": {
          "profile": [
            "http://hl7.eu/fhir/laboratory/StructureDefinition/Observation-resultslab-eu-lab"
          ]
        },
        "performer": [
          {
            "display": "The Central European Lab"
          }
        ],
        "category": [
          {
            "coding": [
              {
                "system": "http://terminology.hl7.org/CodeSystem/observation-category",
                "code": "laboratory"
              }
            ]
          }
        ],
        "code": {
          "coding": [
            {
              "code": "5778-6",
              "system": "http://loinc.org",
              "display": "Color of Urine"
            }
          ],
          "text": "Color of Urine"
        },
        "text": {
          "status": "generated",
          "div": "<div xmlns=\"http://www.w3.org/1999/xhtml\"><table class=\"hl7__eu__lab__report\"><tr><th>Test</th><th>17-Jan-2018</th><th>Reference&#xA0;Range</th><th>Unit</th></tr><tr><td>Color of Urine</td></tr></table></div>"
        },
        "status": "final",
        "subject": {
          "reference": "urn:uuid:a9402d57-f063-43bd-9ffe-29e111a85584",
          "display": "Maria Nohlmans"
        },
        "effectiveDateTime": "2018-01-17T11:02:39Z",
        "specimen": {
          "reference": "urn:uuid:ce807b41-bbcb-4923-9d16-83574fc41501"
        }
      }
    },
    {
      "fullUrl": "urn:uuid:4d98856a-6bf2-4859-bb86-4e041fe283d1",
      "resource": {
        "resourceType": "Observation",
        "id": "4d98856a-6bf2-4859-bb86-4e041fe283d1",
        "meta": {
          "profile": [
            "http://hl7.eu/fhir/laboratory/StructureDefinition/Observation-resultslab-eu-lab"
          ]
        },
        "performer": [
          {
            "display": "The Central European Lab"
          }
        ],
        "category": [
          {
            "coding": [
              {
                "system": "http://terminology.hl7.org/CodeSystem/observation-category",
                "code": "laboratory"
              }
            ]
          }
        ],
        "code": {
          "coding": [
            {
              "code": "5792-7",
              "system": "http://loinc.org",
              "display": "Glucose [Mass/volume] in Urine by Test strip"
            }
          ],
          "text": "Glucose [Mass/volume] in Urine by Test strip"
        },
        "valueQuantity": {
          "system": "http://unitsofmeasure.org",
          "value": 0.6,
          "unit": "mg/dL",
          "code": "mg/dL"
        },
        "referenceRange": [
          {
            "low": {
              "value": 0.8,
              "code": "mg/dL",
              "system": "http://unitsofmeasure.org"
            }
          },
          {
            "high": {
              "value": 0,
              "code": "mg/dL",
              "system": "http://unitsofmeasure.org"
            }
          }
        ],
        "interpretation": [
          {
            "coding": [
              {
                "code": "L",
                "system": "http://terminology.hl7.org/CodeSystem/v3-ObservationInterpretation",
                "display": "Low"
              }
            ]
          }
        ],
        "text": {
          "status": "generated",
          "div": "<div xmlns=\"http://www.w3.org/1999/xhtml\"><table class=\"hl7__eu__lab__report\"><tr><th>Test</th><th>17-Jan-2018</th><th>Reference&#xA0;Range</th><th>Unit</th></tr><tr><td>Glucose [Mass/volume] in Urine by Test strip</td><td>0.6</td><td>0.8 - 0</td><td>L</td><td>mg/dL</td></tr></table></div>"
        },
        "status": "final",
        "subject": {
          "reference": "urn:uuid:a9402d57-f063-43bd-9ffe-29e111a85584",
          "display": "Maria Nohlmans"
        },
        "effectiveDateTime": "2018-01-17T11:02:39Z",
        "specimen": {
          "reference": "urn:uuid:ce807b41-bbcb-4923-9d16-83574fc41501"
        }
      }
    },
    {
      "fullUrl": "urn:uuid:41072474-376a-4591-b35b-f5f2404bf856",
      "resource": {
        "resourceType": "Observation",
        "id": "41072474-376a-4591-b35b-f5f2404bf856",
        "meta": {
          "profile": [
            "http://hl7.eu/fhir/laboratory/StructureDefinition/Observation-resultslab-eu-lab"
          ]
        },
        "performer": [
          {
            "display": "The Central European Lab"
          }
        ],
        "category": [
          {
            "coding": [
              {
                "system": "http://terminology.hl7.org/CodeSystem/observation-category",
                "code": "laboratory"
              }
            ]
          }
        ],
        "code": {
          "coding": [
            {
              "code": "25428-4",
              "system": "http://loinc.org",
              "display": "Glucose [Presence] in Urine by Test strip"
            }
          ],
          "text": "Glucose [Presence] in Urine by Test strip"
        },
        "text": {
          "status": "generated",
          "div": "<div xmlns=\"http://www.w3.org/1999/xhtml\"><table class=\"hl7__eu__lab__report\"><tr><th>Test</th><th>17-Jan-2018</th><th>Reference&#xA0;Range</th><th>Unit</th></tr><tr><td>Glucose [Presence] in Urine by Test strip</td></tr></table></div>"
        },
        "status": "final",
        "subject": {
          "reference": "urn:uuid:a9402d57-f063-43bd-9ffe-29e111a85584",
          "display": "Maria Nohlmans"
        },
        "effectiveDateTime": "2018-01-17T11:02:39Z",
        "specimen": {
          "reference": "urn:uuid:ce807b41-bbcb-4923-9d16-83574fc41501"
        }
      }
    },
    {
      "fullUrl": "urn:uuid:323a129d-8bee-4d66-b593-8d9adbfb52e4",
      "resource": {
        "resourceType": "Observation",
        "id": "323a129d-8bee-4d66-b593-8d9adbfb52e4",
        "meta": {
          "profile": [
            "http://hl7.eu/fhir/laboratory/StructureDefinition/Observation-resultslab-eu-lab"
          ]
        },
        "performer": [
          {
            "display": "The Central European Lab"
          }
        ],
        "category": [
          {
            "coding": [
              {
                "system": "http://terminology.hl7.org/CodeSystem/observation-category",
                "code": "laboratory"
              }
            ]
          }
        ],
        "code": {
          "coding": [
            {
              "code": "20505-4",
              "system": "http://loinc.org",
              "display": "Bilirubin.total [Mass/volume] in Urine by Test strip"
            }
          ],
          "text": "Bilirubin.total [Mass/volume] in Urine by Test strip"
        },
        "valueQuantity": {
          "system": "http://unitsofmeasure.org",
          "value": 1.5,
          "unit": "mg/dL",
          "code": "mg/dL"
        },
        "referenceRange": [
          {
            "low": {
              "value": 0,
              "code": "mg/dL",
              "system": "http://unitsofmeasure.org"
            }
          },
          {
            "high": {
              "value": 1.5,
              "code": "mg/dL",
              "system": "http://unitsofmeasure.org"
            }
          }
        ],
        "text": {
          "status": "generated",
          "div": "<div xmlns=\"http://www.w3.org/1999/xhtml\"><table class=\"hl7__eu__lab__report\"><tr><th>Test</th><th>17-Jan-2018</th><th>Reference&#xA0;Range</th><th>Unit</th></tr><tr><td>Bilirubin.total [Mass/volume] in Urine by Test strip</td><td>1.5</td><td>0 - 1.5</td><td></td><td>mg/dL</td></tr></table></div>"
        },
        "status": "final",
        "subject": {
          "reference": "urn:uuid:a9402d57-f063-43bd-9ffe-29e111a85584",
          "display": "Maria Nohlmans"
        },
        "effectiveDateTime": "2018-01-17T11:02:39Z",
        "specimen": {
          "reference": "urn:uuid:ce807b41-bbcb-4923-9d16-83574fc41501"
        }
      }
    },
    {
      "fullUrl": "urn:uuid:def2e8c1-e308-4545-8f25-e6ef8ed4af36",
      "resource": {
        "resourceType": "Observation",
        "id": "def2e8c1-e308-4545-8f25-e6ef8ed4af36",
        "meta": {
          "profile": [
            "http://hl7.eu/fhir/laboratory/StructureDefinition/Observation-resultslab-eu-lab"
          ]
        },
        "performer": [
          {
            "display": "The Central European Lab"
          }
        ],
        "category": [
          {
            "coding": [
              {
                "system": "http://terminology.hl7.org/CodeSystem/observation-category",
                "code": "laboratory"
              }
            ]
          }
        ],
        "code": {
          "coding": [
            {
              "code": "5770-3",
              "system": "http://loinc.org",
              "display": "Bilirubin.total [Presence] in Urine by Test strip"
            }
          ],
          "text": "Bilirubin.total [Presence] in Urine by Test strip"
        },
        "text": {
          "status": "generated",
          "div": "<div xmlns=\"http://www.w3.org/1999/xhtml\"><table class=\"hl7__eu__lab__report\"><tr><th>Test</th><th>17-Jan-2018</th><th>Reference&#xA0;Range</th><th>Unit</th></tr><tr><td>Bilirubin.total [Presence] in Urine by Test strip</td></tr></table></div>"
        },
        "status": "final",
        "subject": {
          "reference": "urn:uuid:a9402d57-f063-43bd-9ffe-29e111a85584",
          "display": "Maria Nohlmans"
        },
        "effectiveDateTime": "2018-01-17T11:02:39Z",
        "specimen": {
          "reference": "urn:uuid:ce807b41-bbcb-4923-9d16-83574fc41501"
        }
      }
    },
    {
      "fullUrl": "urn:uuid:59398ab0-dd06-4516-9b54-4a603afbf0ea",
      "resource": {
        "resourceType": "Observation",
        "id": "59398ab0-dd06-4516-9b54-4a603afbf0ea",
        "meta": {
          "profile": [
            "http://hl7.eu/fhir/laboratory/StructureDefinition/Observation-resultslab-eu-lab"
          ]
        },
        "performer": [
          {
            "display": "The Central European Lab"
          }
        ],
        "category": [
          {
            "coding": [
              {
                "system": "http://terminology.hl7.org/CodeSystem/observation-category",
                "code": "laboratory"
              }
            ]
          }
        ],
        "code": {
          "coding": [
            {
              "code": "5797-6",
              "system": "http://loinc.org",
              "display": "Ketones [Mass/volume] in Urine by Test strip"
            }
          ],
          "text": "Ketones [Mass/volume] in Urine by Test strip"
        },
        "valueQuantity": {
          "system": "http://unitsofmeasure.org",
          "value": 19.7,
          "unit": "mg/dL",
          "code": "mg/dL"
        },
        "referenceRange": [
          {
            "low": {
              "value": 0,
              "code": "mg/dL",
              "system": "http://unitsofmeasure.org"
            }
          },
          {
            "high": {
              "value": 8,
              "code": "mg/dL",
              "system": "http://unitsofmeasure.org"
            }
          }
        ],
        "interpretation": [
          {
            "coding": [
              {
                "code": "H",
                "system": "http://terminology.hl7.org/CodeSystem/v3-ObservationInterpretation",
                "display": "High"
              }
            ]
          }
        ],
        "text": {
          "status": "generated",
          "div": "<div xmlns=\"http://www.w3.org/1999/xhtml\"><table class=\"hl7__eu__lab__report\"><tr><th>Test</th><th>17-Jan-2018</th><th>Reference&#xA0;Range</th><th>Unit</th></tr><tr><td>Ketones [Mass/volume] in Urine by Test strip</td><td>19.7</td><td>0 - 8</td><td>H</td><td>mg/dL</td></tr></table></div>"
        },
        "status": "final",
        "subject": {
          "reference": "urn:uuid:a9402d57-f063-43bd-9ffe-29e111a85584",
          "display": "Maria Nohlmans"
        },
        "effectiveDateTime": "2018-01-17T11:02:39Z",
        "specimen": {
          "reference": "urn:uuid:ce807b41-bbcb-4923-9d16-83574fc41501"
        }
      }
    },
    {
      "fullUrl": "urn:uuid:3d26f485-0f0b-47c8-8994-2d21666ecca1",
      "resource": {
        "resourceType": "Observation",
        "id": "3d26f485-0f0b-47c8-8994-2d21666ecca1",
        "meta": {
          "profile": [
            "http://hl7.eu/fhir/laboratory/StructureDefinition/Observation-resultslab-eu-lab"
          ]
        },
        "performer": [
          {
            "display": "The Central European Lab"
          }
        ],
        "category": [
          {
            "coding": [
              {
                "system": "http://terminology.hl7.org/CodeSystem/observation-category",
                "code": "laboratory"
              }
            ]
          }
        ],
        "code": {
          "coding": [
            {
              "code": "2514-8",
              "system": "http://loinc.org",
              "display": "Ketones [Presence] in Urine by Test strip"
            }
          ],
          "text": "Ketones [Presence] in Urine by Test strip"
        },
        "text": {
          "status": "generated",
          "div": "<div xmlns=\"http://www.w3.org/1999/xhtml\"><table class=\"hl7__eu__lab__report\"><tr><th>Test</th><th>17-Jan-2018</th><th>Reference&#xA0;Range</th><th>Unit</th></tr><tr><td>Ketones [Presence] in Urine by Test strip</td></tr></table></div>"
        },
        "status": "final",
        "subject": {
          "reference": "urn:uuid:a9402d57-f063-43bd-9ffe-29e111a85584",
          "display": "Maria Nohlmans"
        },
        "effectiveDateTime": "2018-01-17T11:02:39Z",
        "specimen": {
          "reference": "urn:uuid:ce807b41-bbcb-4923-9d16-83574fc41501"
        }
      }
    },
    {
      "fullUrl": "urn:uuid:ab023327-ebf8-4852-8b94-f8164d29e91e",
      "resource": {
        "resourceType": "Observation",
        "id": "ab023327-ebf8-4852-8b94-f8164d29e91e",
        "meta": {
          "profile": [
            "http://hl7.eu/fhir/laboratory/StructureDefinition/Observation-resultslab-eu-lab"
          ]
        },
        "performer": [
          {
            "display": "The Central European Lab"
          }
        ],
        "category": [
          {
            "coding": [
              {
                "system": "http://terminology.hl7.org/CodeSystem/observation-category",
                "code": "laboratory"
              }
            ]
          }
        ],
        "code": {
          "coding": [
            {
              "code": "5811-5",
              "system": "http://loinc.org",
              "display": "Specific gravity of Urine by Test strip"
            }
          ],
          "text": "Specific gravity of Urine by Test strip"
        },
        "valueQuantity": {
          "system": "http://unitsofmeasure.org",
          "value": 1,
          "unit": "{nominal}",
          "code": "{nominal}"
        },
        "referenceRange": [
          {
            "low": {
              "value": 1.01,
              "code": "g/mL",
              "system": "http://unitsofmeasure.org"
            }
          },
          {
            "high": {
              "value": 1.03,
              "code": "g/mL",
              "system": "http://unitsofmeasure.org"
            }
          }
        ],
        "interpretation": [
          {
            "coding": [
              {
                "code": "L",
                "system": "http://terminology.hl7.org/CodeSystem/v3-ObservationInterpretation",
                "display": "Low"
              }
            ]
          }
        ],
        "text": {
          "status": "generated",
          "div": "<div xmlns=\"http://www.w3.org/1999/xhtml\"><table class=\"hl7__eu__lab__report\"><tr><th>Test</th><th>17-Jan-2018</th><th>Reference&#xA0;Range</th><th>Unit</th></tr><tr><td>Specific gravity of Urine by Test strip</td><td>1.0</td><td>1.01 - 1.03</td><td>L</td><td>{nominal}</td></tr></table></div>"
        },
        "status": "final",
        "subject": {
          "reference": "urn:uuid:a9402d57-f063-43bd-9ffe-29e111a85584",
          "display": "Maria Nohlmans"
        },
        "effectiveDateTime": "2018-01-17T11:02:39Z",
        "specimen": {
          "reference": "urn:uuid:ce807b41-bbcb-4923-9d16-83574fc41501"
        }
      }
    },
    {
      "fullUrl": "urn:uuid:c090c8e9-1cac-45ff-ae3e-06dc49b815ea",
      "resource": {
        "resourceType": "Observation",
        "id": "c090c8e9-1cac-45ff-ae3e-06dc49b815ea",
        "meta": {
          "profile": [
            "http://hl7.eu/fhir/laboratory/StructureDefinition/Observation-resultslab-eu-lab"
          ]
        },
        "performer": [
          {
            "display": "The Central European Lab"
          }
        ],
        "category": [
          {
            "coding": [
              {
                "system": "http://terminology.hl7.org/CodeSystem/observation-category",
                "code": "laboratory"
              }
            ]
          }
        ],
        "code": {
          "coding": [
            {
              "code": "5803-2",
              "system": "http://loinc.org",
              "display": "pH of Urine by Test strip"
            }
          ],
          "text": "pH of Urine by Test strip"
        },
        "valueQuantity": {
          "system": "http://unitsofmeasure.org",
          "value": 6,
          "unit": "pH",
          "code": "pH"
        },
        "referenceRange": [
          {
            "low": {
              "value": 4.6,
              "code": "pH",
              "system": "http://unitsofmeasure.org"
            }
          },
          {
            "high": {
              "value": 7.5,
              "code": "pH",
              "system": "http://unitsofmeasure.org"
            }
          }
        ],
        "text": {
          "status": "generated",
          "div": "<div xmlns=\"http://www.w3.org/1999/xhtml\"><table class=\"hl7__eu__lab__report\"><tr><th>Test</th><th>17-Jan-2018</th><th>Reference&#xA0;Range</th><th>Unit</th></tr><tr><td>pH of Urine by Test strip</td><td>6.0</td><td>4.6 - 7.5</td><td></td><td>pH</td></tr></table></div>"
        },
        "status": "final",
        "subject": {
          "reference": "urn:uuid:a9402d57-f063-43bd-9ffe-29e111a85584",
          "display": "Maria Nohlmans"
        },
        "effectiveDateTime": "2018-01-17T11:02:39Z",
        "specimen": {
          "reference": "urn:uuid:ce807b41-bbcb-4923-9d16-83574fc41501"
        }
      }
    },
    {
      "fullUrl": "urn:uuid:e89d5e5b-a146-4c01-a48b-14e08c66438c",
      "resource": {
        "resourceType": "Observation",
        "id": "e89d5e5b-a146-4c01-a48b-14e08c66438c",
        "meta": {
          "profile": [
            "http://hl7.eu/fhir/laboratory/StructureDefinition/Observation-resultslab-eu-lab"
          ]
        },
        "performer": [
          {
            "display": "The Central European Lab"
          }
        ],
        "category": [
          {
            "coding": [
              {
                "system": "http://terminology.hl7.org/CodeSystem/observation-category",
                "code": "laboratory"
              }
            ]
          }
        ],
        "code": {
          "coding": [
            {
              "code": "5804-0",
              "system": "http://loinc.org",
              "display": "Protein [Mass/volume] in Urine by Test strip"
            }
          ],
          "text": "Protein [Mass/volume] in Urine by Test strip"
        },
        "valueQuantity": {
          "system": "http://unitsofmeasure.org",
          "value": 348.7,
          "unit": "mg/dL",
          "code": "mg/dL"
        },
        "referenceRange": [
          {
            "low": {
              "value": 0,
              "code": "mg/dL",
              "system": "http://unitsofmeasure.org"
            }
          },
          {
            "high": {
              "value": 14,
              "code": "mg/dL",
              "system": "http://unitsofmeasure.org"
            }
          }
        ],
        "interpretation": [
          {
            "coding": [
              {
                "code": "H",
                "system": "http://terminology.hl7.org/CodeSystem/v3-ObservationInterpretation",
                "display": "High"
              }
            ]
          }
        ],
        "text": {
          "status": "generated",
          "div": "<div xmlns=\"http://www.w3.org/1999/xhtml\"><table class=\"hl7__eu__lab__report\"><tr><th>Test</th><th>17-Jan-2018</th><th>Reference&#xA0;Range</th><th>Unit</th></tr><tr><td>Protein [Mass/volume] in Urine by Test strip</td><td>348.7</td><td>0 - 14</td><td>H</td><td>mg/dL</td></tr></table></div>"
        },
        "status": "final",
        "subject": {
          "reference": "urn:uuid:a9402d57-f063-43bd-9ffe-29e111a85584",
          "display": "Maria Nohlmans"
        },
        "effectiveDateTime": "2018-01-17T11:02:39Z",
        "specimen": {
          "reference": "urn:uuid:ce807b41-bbcb-4923-9d16-83574fc41501"
        }
      }
    },
    {
      "fullUrl": "urn:uuid:e379d095-2b5d-463a-a496-1789f9af198f",
      "resource": {
        "resourceType": "Observation",
        "id": "e379d095-2b5d-463a-a496-1789f9af198f",
        "meta": {
          "profile": [
            "http://hl7.eu/fhir/laboratory/StructureDefinition/Observation-resultslab-eu-lab"
          ]
        },
        "performer": [
          {
            "display": "The Central European Lab"
          }
        ],
        "category": [
          {
            "coding": [
              {
                "system": "http://terminology.hl7.org/CodeSystem/observation-category",
                "code": "laboratory"
              }
            ]
          }
        ],
        "code": {
          "coding": [
            {
              "code": "20454-5",
              "system": "http://loinc.org",
              "display": "Protein [Presence] in Urine by Test strip"
            }
          ],
          "text": "Protein [Presence] in Urine by Test strip"
        },
        "text": {
          "status": "generated",
          "div": "<div xmlns=\"http://www.w3.org/1999/xhtml\"><table class=\"hl7__eu__lab__report\"><tr><th>Test</th><th>17-Jan-2018</th><th>Reference&#xA0;Range</th><th>Unit</th></tr><tr><td>Protein [Presence] in Urine by Test strip</td></tr></table></div>"
        },
        "status": "final",
        "subject": {
          "reference": "urn:uuid:a9402d57-f063-43bd-9ffe-29e111a85584",
          "display": "Maria Nohlmans"
        },
        "effectiveDateTime": "2018-01-17T11:02:39Z",
        "specimen": {
          "reference": "urn:uuid:ce807b41-bbcb-4923-9d16-83574fc41501"
        }
      }
    },
    {
      "fullUrl": "urn:uuid:3d00a1eb-29ec-49a2-9c8f-f793e0266746",
      "resource": {
        "resourceType": "Observation",
        "id": "3d00a1eb-29ec-49a2-9c8f-f793e0266746",
        "meta": {
          "profile": [
            "http://hl7.eu/fhir/laboratory/StructureDefinition/Observation-resultslab-eu-lab"
          ]
        },
        "performer": [
          {
            "display": "The Central European Lab"
          }
        ],
        "category": [
          {
            "coding": [
              {
                "system": "http://terminology.hl7.org/CodeSystem/observation-category",
                "code": "laboratory"
              }
            ]
          }
        ],
        "code": {
          "coding": [
            {
              "code": "5802-4",
              "system": "http://loinc.org",
              "display": "Nitrite [Presence] in Urine by Test strip"
            }
          ],
          "text": "Nitrite [Presence] in Urine by Test strip"
        },
        "text": {
          "status": "generated",
          "div": "<div xmlns=\"http://www.w3.org/1999/xhtml\"><table class=\"hl7__eu__lab__report\"><tr><th>Test</th><th>17-Jan-2018</th><th>Reference&#xA0;Range</th><th>Unit</th></tr><tr><td>Nitrite [Presence] in Urine by Test strip</td></tr></table></div>"
        },
        "status": "final",
        "subject": {
          "reference": "urn:uuid:a9402d57-f063-43bd-9ffe-29e111a85584",
          "display": "Maria Nohlmans"
        },
        "effectiveDateTime": "2018-01-17T11:02:39Z",
        "specimen": {
          "reference": "urn:uuid:ce807b41-bbcb-4923-9d16-83574fc41501"
        }
      }
    },
    {
      "fullUrl": "urn:uuid:f597a5fa-50bc-47b3-836a-3364e0b8d907",
      "resource": {
        "resourceType": "Observation",
        "id": "f597a5fa-50bc-47b3-836a-3364e0b8d907",
        "meta": {
          "profile": [
            "http://hl7.eu/fhir/laboratory/StructureDefinition/Observation-resultslab-eu-lab"
          ]
        },
        "performer": [
          {
            "display": "The Central European Lab"
          }
        ],
        "category": [
          {
            "coding": [
              {
                "system": "http://terminology.hl7.org/CodeSystem/observation-category",
                "code": "laboratory"
              }
            ]
          }
        ],
        "code": {
          "coding": [
            {
              "code": "5794-3",
              "system": "http://loinc.org",
              "display": "Hemoglobin [Presence] in Urine by Test strip"
            }
          ],
          "text": "Hemoglobin [Presence] in Urine by Test strip"
        },
        "text": {
          "status": "generated",
          "div": "<div xmlns=\"http://www.w3.org/1999/xhtml\"><table class=\"hl7__eu__lab__report\"><tr><th>Test</th><th>17-Jan-2018</th><th>Reference&#xA0;Range</th><th>Unit</th></tr><tr><td>Hemoglobin [Presence] in Urine by Test strip</td></tr></table></div>"
        },
        "status": "final",
        "subject": {
          "reference": "urn:uuid:a9402d57-f063-43bd-9ffe-29e111a85584",
          "display": "Maria Nohlmans"
        },
        "effectiveDateTime": "2018-01-17T11:02:39Z",
        "specimen": {
          "reference": "urn:uuid:ce807b41-bbcb-4923-9d16-83574fc41501"
        }
      }
    },
    {
      "fullUrl": "urn:uuid:1076779e-7ee4-48c5-82ae-060ba66d0e2c",
      "resource": {
        "resourceType": "Observation",
        "id": "1076779e-7ee4-48c5-82ae-060ba66d0e2c",
        "meta": {
          "profile": [
            "http://hl7.eu/fhir/laboratory/StructureDefinition/Observation-resultslab-eu-lab"
          ]
        },
        "performer": [
          {
            "display": "The Central European Lab"
          }
        ],
        "category": [
          {
            "coding": [
              {
                "system": "http://terminology.hl7.org/CodeSystem/observation-category",
                "code": "laboratory"
              }
            ]
          }
        ],
        "code": {
          "coding": [
            {
              "code": "5799-2",
              "system": "http://loinc.org",
              "display": "Leukocyte esterase [Presence] in Urine by Test strip"
            }
          ],
          "text": "Leukocyte esterase [Presence] in Urine by Test strip"
        },
        "text": {
          "status": "generated",
          "div": "<div xmlns=\"http://www.w3.org/1999/xhtml\"><table class=\"hl7__eu__lab__report\"><tr><th>Test</th><th>17-Jan-2018</th><th>Reference&#xA0;Range</th><th>Unit</th></tr><tr><td>Leukocyte esterase [Presence] in Urine by Test strip</td></tr></table></div>"
        },
        "status": "final",
        "subject": {
          "reference": "urn:uuid:a9402d57-f063-43bd-9ffe-29e111a85584",
          "display": "Maria Nohlmans"
        },
        "effectiveDateTime": "2018-01-17T11:02:39Z",
        "specimen": {
          "reference": "urn:uuid:ce807b41-bbcb-4923-9d16-83574fc41501"
        }
      }
    },
    {
      "fullUrl": "urn:uuid:0ab8e9af-c696-460f-a887-41237192981a",
      "resource": {
        "resourceType": "Observation",
        "id": "0ab8e9af-c696-460f-a887-41237192981a",
        "meta": {
          "profile": [
            "http://hl7.eu/fhir/laboratory/StructureDefinition/Observation-resultslab-eu-lab"
          ]
        },
        "performer": [
          {
            "display": "The Central European Lab"
          }
        ],
        "category": [
          {
            "coding": [
              {
                "system": "http://terminology.hl7.org/CodeSystem/observation-category",
                "code": "laboratory"
              }
            ]
          }
        ],
        "code": {
          "coding": [
            {
              "code": "4548-4",
              "system": "http://loinc.org",
              "display": "Hemoglobin A1c/Hemoglobin.total in Blood"
            }
          ],
          "text": "Hemoglobin A1c/Hemoglobin.total in Blood"
        },
        "valueQuantity": {
          "system": "http://unitsofmeasure.org",
          "value": 3.3,
          "unit": "%",
          "code": "%"
        },
        "referenceRange": [
          {
            "low": {
              "value": 4.5,
              "code": "%",
              "system": "http://unitsofmeasure.org"
            }
          },
          {
            "high": {
              "value": 6.4,
              "code": "%",
              "system": "http://unitsofmeasure.org"
            }
          }
        ],
        "interpretation": [
          {
            "coding": [
              {
                "code": "L",
                "system": "http://terminology.hl7.org/CodeSystem/v3-ObservationInterpretation",
                "display": "Low"
              }
            ]
          }
        ],
        "text": {
          "status": "generated",
          "div": "<div xmlns=\"http://www.w3.org/1999/xhtml\"><table class=\"hl7__eu__lab__report\"><tr><th>Test</th><th>17-Jan-2018</th><th>Reference&#xA0;Range</th><th>Unit</th></tr><tr><td>Hemoglobin A1c/Hemoglobin.total in Blood</td><td>3.3</td><td>4.5 - 6.4</td><td>L</td><td>%</td></tr></table></div>"
        },
        "status": "final",
        "subject": {
          "reference": "urn:uuid:a9402d57-f063-43bd-9ffe-29e111a85584",
          "display": "Maria Nohlmans"
        },
        "effectiveDateTime": "2018-01-17T11:02:39Z",
        "specimen": {
          "reference": "urn:uuid:10694112-c764-4779-8988-d0b05493458d"
        }
      }
    },
    {
      "fullUrl": "urn:uuid:15365153-b65b-4980-8993-ceef17a2b952",
      "resource": {
        "resourceType": "Observation",
        "id": "15365153-b65b-4980-8993-ceef17a2b952",
        "meta": {
          "profile": [
            "http://hl7.eu/fhir/laboratory/StructureDefinition/Observation-resultslab-eu-lab"
          ]
        },
        "performer": [
          {
            "display": "The Central European Lab"
          }
        ],
        "category": [
          {
            "coding": [
              {
                "system": "http://terminology.hl7.org/CodeSystem/observation-category",
                "code": "laboratory"
              }
            ]
          }
        ],
        "code": {
          "coding": [
            {
              "code": "2339-0",
              "system": "http://loinc.org",
              "display": "Glucose [Mass/volume] in Blood"
            }
          ],
          "text": "Glucose [Mass/volume] in Blood"
        },
        "valueQuantity": {
          "system": "http://unitsofmeasure.org",
          "value": 72.5,
          "unit": "mg/dL",
          "code": "mg/dL"
        },
        "referenceRange": [
          {
            "low": {
              "value": 70,
              "code": "mg/dL",
              "system": "http://unitsofmeasure.org"
            }
          },
          {
            "high": {
              "value": 140,
              "code": "mg/dL",
              "system": "http://unitsofmeasure.org"
            }
          }
        ],
        "text": {
          "status": "generated",
          "div": "<div xmlns=\"http://www.w3.org/1999/xhtml\"><table class=\"hl7__eu__lab__report\"><tr><th>Test</th><th>17-Jan-2018</th><th>Reference&#xA0;Range</th><th>Unit</th></tr><tr><td>Glucose [Mass/volume] in Blood</td><td>72.5</td><td>70 - 140</td><td></td><td>mg/dL</td></tr></table></div>"
        },
        "status": "final",
        "subject": {
          "reference": "urn:uuid:a9402d57-f063-43bd-9ffe-29e111a85584",
          "display": "Maria Nohlmans"
        },
        "effectiveDateTime": "2018-01-17T11:02:39Z",
        "specimen": {
          "reference": "urn:uuid:10694112-c764-4779-8988-d0b05493458d"
        }
      }
    },
    {
      "fullUrl": "urn:uuid:08cc1054-faab-4a9d-b6b9-6865d694450f",
      "resource": {
        "resourceType": "Observation",
        "id": "08cc1054-faab-4a9d-b6b9-6865d694450f",
        "meta": {
          "profile": [
            "http://hl7.eu/fhir/laboratory/StructureDefinition/Observation-resultslab-eu-lab"
          ]
        },
        "performer": [
          {
            "display": "The Central European Lab"
          }
        ],
        "category": [
          {
            "coding": [
              {
                "system": "http://terminology.hl7.org/CodeSystem/observation-category",
                "code": "laboratory"
              }
            ]
          }
        ],
        "code": {
          "coding": [
            {
              "code": "6299-2",
              "system": "http://loinc.org",
              "display": "Urea nitrogen [Mass/volume] in Blood"
            }
          ],
          "text": "Urea nitrogen [Mass/volume] in Blood"
        },
        "valueQuantity": {
          "system": "http://unitsofmeasure.org",
          "value": 14.6,
          "unit": "mg/dL",
          "code": "mg/dL"
        },
        "referenceRange": [
          {
            "low": {
              "value": 7,
              "code": "mg/dL",
              "system": "http://unitsofmeasure.org"
            }
          },
          {
            "high": {
              "value": 30,
              "code": "mg/dL",
              "system": "http://unitsofmeasure.org"
            }
          }
        ],
        "text": {
          "status": "generated",
          "div": "<div xmlns=\"http://www.w3.org/1999/xhtml\"><table class=\"hl7__eu__lab__report\"><tr><th>Test</th><th>17-Jan-2018</th><th>Reference&#xA0;Range</th><th>Unit</th></tr><tr><td>Urea nitrogen [Mass/volume] in Blood</td><td>14.6</td><td>7 - 30</td><td></td><td>mg/dL</td></tr></table></div>"
        },
        "status": "final",
        "subject": {
          "reference": "urn:uuid:a9402d57-f063-43bd-9ffe-29e111a85584",
          "display": "Maria Nohlmans"
        },
        "effectiveDateTime": "2018-01-17T11:02:39Z",
        "specimen": {
          "reference": "urn:uuid:10694112-c764-4779-8988-d0b05493458d"
        }
      }
    },
    {
      "fullUrl": "urn:uuid:56066f85-7f55-407e-957c-1396598aeeb7",
      "resource": {
        "resourceType": "Observation",
        "id": "56066f85-7f55-407e-957c-1396598aeeb7",
        "meta": {
          "profile": [
            "http://hl7.eu/fhir/laboratory/StructureDefinition/Observation-resultslab-eu-lab"
          ]
        },
        "performer": [
          {
            "display": "The Central European Lab"
          }
        ],
        "category": [
          {
            "coding": [
              {
                "system": "http://terminology.hl7.org/CodeSystem/observation-category",
                "code": "laboratory"
              }
            ]
          }
        ],
        "code": {
          "coding": [
            {
              "code": "38483-4",
              "system": "http://loinc.org",
              "display": "Creatinine [Mass/volume] in Blood"
            }
          ],
          "text": "Creatinine [Mass/volume] in Blood"
        },
        "valueQuantity": {
          "system": "http://unitsofmeasure.org",
          "value": 9.1,
          "unit": "mg/dL",
          "code": "mg/dL"
        },
        "referenceRange": [
          {
            "low": {
              "value": 0.5,
              "code": "mg/dL",
              "system": "http://unitsofmeasure.org"
            }
          },
          {
            "high": {
              "value": 1.3,
              "code": "mg/dL",
              "system": "http://unitsofmeasure.org"
            }
          }
        ],
        "interpretation": [
          {
            "coding": [
              {
                "code": "H",
                "system": "http://terminology.hl7.org/CodeSystem/v3-ObservationInterpretation",
                "display": "High"
              }
            ]
          }
        ],
        "text": {
          "status": "generated",
          "div": "<div xmlns=\"http://www.w3.org/1999/xhtml\"><table class=\"hl7__eu__lab__report\"><tr><th>Test</th><th>17-Jan-2018</th><th>Reference&#xA0;Range</th><th>Unit</th></tr><tr><td>Creatinine [Mass/volume] in Blood</td><td>9.1</td><td>0.5 - 1.3</td><td>H</td><td>mg/dL</td></tr></table></div>"
        },
        "status": "final",
        "subject": {
          "reference": "urn:uuid:a9402d57-f063-43bd-9ffe-29e111a85584",
          "display": "Maria Nohlmans"
        },
        "effectiveDateTime": "2018-01-17T11:02:39Z",
        "specimen": {
          "reference": "urn:uuid:10694112-c764-4779-8988-d0b05493458d"
        }
      }
    },
    {
      "fullUrl": "urn:uuid:e14c0837-32f7-4018-ad1f-741e12061af6",
      "resource": {
        "resourceType": "Observation",
        "id": "e14c0837-32f7-4018-ad1f-741e12061af6",
        "meta": {
          "profile": [
            "http://hl7.eu/fhir/laboratory/StructureDefinition/Observation-resultslab-eu-lab"
          ]
        },
        "performer": [
          {
            "display": "The Central European Lab"
          }
        ],
        "category": [
          {
            "coding": [
              {
                "system": "http://terminology.hl7.org/CodeSystem/observation-category",
                "code": "laboratory"
              }
            ]
          }
        ],
        "code": {
          "coding": [
            {
              "code": "49765-1",
              "system": "http://loinc.org",
              "display": "Calcium [Mass/volume] in Blood"
            }
          ],
          "text": "Calcium [Mass/volume] in Blood"
        },
        "valueQuantity": {
          "system": "http://unitsofmeasure.org",
          "value": 9.8,
          "unit": "mg/dL",
          "code": "mg/dL"
        },
        "referenceRange": [
          {
            "low": {
              "value": 8.6,
              "code": "mg/dL",
              "system": "http://unitsofmeasure.org"
            }
          },
          {
            "high": {
              "value": 10.2,
              "code": "mg/dL",
              "system": "http://unitsofmeasure.org"
            }
          }
        ],
        "text": {
          "status": "generated",
          "div": "<div xmlns=\"http://www.w3.org/1999/xhtml\"><table class=\"hl7__eu__lab__report\"><tr><th>Test</th><th>17-Jan-2018</th><th>Reference&#xA0;Range</th><th>Unit</th></tr><tr><td>Calcium [Mass/volume] in Blood</td><td>9.8</td><td>8.6 - 10.2</td><td></td><td>mg/dL</td></tr></table></div>"
        },
        "status": "final",
        "subject": {
          "reference": "urn:uuid:a9402d57-f063-43bd-9ffe-29e111a85584",
          "display": "Maria Nohlmans"
        },
        "effectiveDateTime": "2018-01-17T11:02:39Z",
        "specimen": {
          "reference": "urn:uuid:10694112-c764-4779-8988-d0b05493458d"
        }
      }
    },
    {
      "fullUrl": "urn:uuid:4c91ff4e-3df8-4e4f-97c6-0a2d29267a6a",
      "resource": {
        "resourceType": "Observation",
        "id": "4c91ff4e-3df8-4e4f-97c6-0a2d29267a6a",
        "meta": {
          "profile": [
            "http://hl7.eu/fhir/laboratory/StructureDefinition/Observation-resultslab-eu-lab"
          ]
        },
        "performer": [
          {
            "display": "The Central European Lab"
          }
        ],
        "category": [
          {
            "coding": [
              {
                "system": "http://terminology.hl7.org/CodeSystem/observation-category",
                "code": "laboratory"
              }
            ]
          }
        ],
        "code": {
          "coding": [
            {
              "code": "2947-0",
              "system": "http://loinc.org",
              "display": "Sodium [Moles/volume] in Blood"
            }
          ],
          "text": "Sodium [Moles/volume] in Blood"
        },
        "valueQuantity": {
          "system": "http://unitsofmeasure.org",
          "value": 141,
          "unit": "mmol/L",
          "code": "mmol/L"
        },
        "referenceRange": [
          {
            "low": {
              "value": 135,
              "code": "mmol/L",
              "system": "http://unitsofmeasure.org"
            }
          },
          {
            "high": {
              "value": 145,
              "code": "mmol/L",
              "system": "http://unitsofmeasure.org"
            }
          }
        ],
        "text": {
          "status": "generated",
          "div": "<div xmlns=\"http://www.w3.org/1999/xhtml\"><table class=\"hl7__eu__lab__report\"><tr><th>Test</th><th>17-Jan-2018</th><th>Reference&#xA0;Range</th><th>Unit</th></tr><tr><td>Sodium [Moles/volume] in Blood</td><td>141.0</td><td>135 - 145</td><td></td><td>mmol/L</td></tr></table></div>"
        },
        "status": "final",
        "subject": {
          "reference": "urn:uuid:a9402d57-f063-43bd-9ffe-29e111a85584",
          "display": "Maria Nohlmans"
        },
        "effectiveDateTime": "2018-01-17T11:02:39Z",
        "specimen": {
          "reference": "urn:uuid:10694112-c764-4779-8988-d0b05493458d"
        }
      }
    },
    {
      "fullUrl": "urn:uuid:472948e9-c638-411f-90d4-6a0e149057ed",
      "resource": {
        "resourceType": "Observation",
        "id": "472948e9-c638-411f-90d4-6a0e149057ed",
        "meta": {
          "profile": [
            "http://hl7.eu/fhir/laboratory/StructureDefinition/Observation-resultslab-eu-lab"
          ]
        },
        "performer": [
          {
            "display": "The Central European Lab"
          }
        ],
        "category": [
          {
            "coding": [
              {
                "system": "http://terminology.hl7.org/CodeSystem/observation-category",
                "code": "laboratory"
              }
            ]
          }
        ],
        "code": {
          "coding": [
            {
              "code": "6298-4",
              "system": "http://loinc.org",
              "display": "Potassium [Moles/volume] in Blood"
            }
          ],
          "text": "Potassium [Moles/volume] in Blood"
        },
        "valueQuantity": {
          "system": "http://unitsofmeasure.org",
          "value": 4.8,
          "unit": "mmol/L",
          "code": "mmol/L"
        },
        "referenceRange": [
          {
            "low": {
              "value": 3.5,
              "code": "mmol/L",
              "system": "http://unitsofmeasure.org"
            }
          },
          {
            "high": {
              "value": 5.1,
              "code": "mmol/L",
              "system": "http://unitsofmeasure.org"
            }
          }
        ],
        "text": {
          "status": "generated",
          "div": "<div xmlns=\"http://www.w3.org/1999/xhtml\"><table class=\"hl7__eu__lab__report\"><tr><th>Test</th><th>17-Jan-2018</th><th>Reference&#xA0;Range</th><th>Unit</th></tr><tr><td>Potassium [Moles/volume] in Blood</td><td>4.8</td><td>3.5 - 5.1</td><td></td><td>mmol/L</td></tr></table></div>"
        },
        "status": "final",
        "subject": {
          "reference": "urn:uuid:a9402d57-f063-43bd-9ffe-29e111a85584",
          "display": "Maria Nohlmans"
        },
        "effectiveDateTime": "2018-01-17T11:02:39Z",
        "specimen": {
          "reference": "urn:uuid:10694112-c764-4779-8988-d0b05493458d"
        }
      }
    },
    {
      "fullUrl": "urn:uuid:ba710fef-8a5a-4cf8-9242-e69055fa4305",
      "resource": {
        "resourceType": "Observation",
        "id": "ba710fef-8a5a-4cf8-9242-e69055fa4305",
        "meta": {
          "profile": [
            "http://hl7.eu/fhir/laboratory/StructureDefinition/Observation-resultslab-eu-lab"
          ]
        },
        "performer": [
          {
            "display": "The Central European Lab"
          }
        ],
        "category": [
          {
            "coding": [
              {
                "system": "http://terminology.hl7.org/CodeSystem/observation-category",
                "code": "laboratory"
              }
            ]
          }
        ],
        "code": {
          "coding": [
            {
              "code": "2069-3",
              "system": "http://loinc.org",
              "display": "Chloride [Moles/volume] in Blood"
            }
          ],
          "text": "Chloride [Moles/volume] in Blood"
        },
        "valueQuantity": {
          "system": "http://unitsofmeasure.org",
          "value": 108.8,
          "unit": "mmol/L",
          "code": "mmol/L"
        },
        "referenceRange": [
          {
            "low": {
              "value": 98,
              "code": "mmol/L",
              "system": "http://unitsofmeasure.org"
            }
          },
          {
            "high": {
              "value": 114,
              "code": "mmol/L",
              "system": "http://unitsofmeasure.org"
            }
          }
        ],
        "text": {
          "status": "generated",
          "div": "<div xmlns=\"http://www.w3.org/1999/xhtml\"><table class=\"hl7__eu__lab__report\"><tr><th>Test</th><th>17-Jan-2018</th><th>Reference&#xA0;Range</th><th>Unit</th></tr><tr><td>Chloride [Moles/volume] in Blood</td><td>108.8</td><td>98 - 114</td><td></td><td>mmol/L</td></tr></table></div>"
        },
        "status": "final",
        "subject": {
          "reference": "urn:uuid:a9402d57-f063-43bd-9ffe-29e111a85584",
          "display": "Maria Nohlmans"
        },
        "effectiveDateTime": "2018-01-17T11:02:39Z",
        "specimen": {
          "reference": "urn:uuid:10694112-c764-4779-8988-d0b05493458d"
        }
      }
    },
    {
      "fullUrl": "urn:uuid:a6f9ce32-a7b1-4f2b-a97b-5addb852a819",
      "resource": {
        "resourceType": "Observation",
        "id": "a6f9ce32-a7b1-4f2b-a97b-5addb852a819",
        "meta": {
          "profile": [
            "http://hl7.eu/fhir/laboratory/StructureDefinition/Observation-resultslab-eu-lab"
          ]
        },
        "performer": [
          {
            "display": "The Central European Lab"
          }
        ],
        "category": [
          {
            "coding": [
              {
                "system": "http://terminology.hl7.org/CodeSystem/observation-category",
                "code": "laboratory"
              }
            ]
          }
        ],
        "code": {
          "coding": [
            {
              "code": "20565-8",
              "system": "http://loinc.org",
              "display": "Carbon dioxide, total [Moles/volume] in Blood"
            }
          ],
          "text": "Carbon dioxide, total [Moles/volume] in Blood"
        },
        "valueQuantity": {
          "system": "http://unitsofmeasure.org",
          "value": 24.7,
          "unit": "mmol/L",
          "code": "mmol/L"
        },
        "referenceRange": [
          {
            "low": {
              "value": 22,
              "code": "mmol/L",
              "system": "http://unitsofmeasure.org"
            }
          },
          {
            "high": {
              "value": 32,
              "code": "mmol/L",
              "system": "http://unitsofmeasure.org"
            }
          }
        ],
        "text": {
          "status": "generated",
          "div": "<div xmlns=\"http://www.w3.org/1999/xhtml\"><table class=\"hl7__eu__lab__report\"><tr><th>Test</th><th>17-Jan-2018</th><th>Reference&#xA0;Range</th><th>Unit</th></tr><tr><td>Carbon dioxide, total [Moles/volume] in Blood</td><td>24.7</td><td>22 - 32</td><td></td><td>mmol/L</td></tr></table></div>"
        },
        "status": "final",
        "subject": {
          "reference": "urn:uuid:a9402d57-f063-43bd-9ffe-29e111a85584",
          "display": "Maria Nohlmans"
        },
        "effectiveDateTime": "2018-01-17T11:02:39Z",
        "specimen": {
          "reference": "urn:uuid:10694112-c764-4779-8988-d0b05493458d"
        }
      }
    },
    {
      "fullUrl": "urn:uuid:c10a00e2-ad36-474b-b50d-e1f7d85214e0",
      "resource": {
        "resourceType": "Device",
        "id": "c10a00e2-ad36-474b-b50d-e1f7d85214e0",
        "deviceName": [
          {
            "name": "SYNDERAI Synthetic Generator",
            "type": "manufacturer-name"
          }
        ],
        "version": [
          {
            "value": "5.0"
          }
        ],
        "text": {
          "status": "generated",
          "div": "<div xmlns=\"http://www.w3.org/1999/xhtml\">SYNDERAI Synthetic Generator v5.0</div>"
        },
        "status": "active\"",
        "distinctIdentifier": "synderai-generator-50",
        "manufacturer": "SYNDERAI Project"
      }
    },
    {
      "fullUrl": "urn:uuid:dd99b1b8-8db7-446e-b148-726ea7530360",
      "resource": {
        "resourceType": "Provenance",
        "id": "dd99b1b8-8db7-446e-b148-726ea7530360",
        "target": [
          {
            "reference": "Patient/a9402d57-f063-43bd-9ffe-29e111a85584"
          },
          {
            "reference": "Bundle/61995365-63aa-4120-b850-2e52145ad948"
          },
          {
            "reference": "Composition/f62a3c1c-984b-40e1-98ae-4cca49c31bea"
          },
          {
            "reference": "PractitionerRole/0ab705f4-e913-4d70-a48e-8a4eb731ed08"
          },
          {
            "reference": "Practitioner/830d3d5a-f8eb-4fa0-bf49-afa2a817f24b"
          },
          {
            "reference": "PractitionerRole/912747b8-1cc3-4036-93e4-f17498f4b84d"
          },
          {
            "reference": "Organization/adb69001-4e34-4129-a6f6-2b7626099367"
          }
        ],
        "activity": {
          "text": "Synthetic Example Data Generation"
        },
        "policy": [
          "https://synderai.net/synderai-synthetic-data-policy"
        ],
        "agent": [
          {
            "type": {
              "text": "author"
            },
            "who": {
              "reference": "Device/c10a00e2-ad36-474b-b50d-e1f7d85214e0"
            }
          }
        ],
        "reason": [
          {
            "text": "Interoperability Testing and Training (non-clinical use)"
          }
        ],
        "text": {
          "status": "generated",
          "div": "<div xmlns=\"http://www.w3.org/1999/xhtml\">Provenance for SYNDERAI Synthetic Example Data Resource</div>"
        },
        "recorded": "2018-01-17T12:02:39Z"
      }
    },
    {
      "fullUrl": "urn:uuid:0ab705f4-e913-4d70-a48e-8a4eb731ed08",
      "resource": {
        "resourceType": "PractitionerRole",
        "id": "0ab705f4-e913-4d70-a48e-8a4eb731ed08",
        "meta": {
          "profile": [
            "http://hl7.eu/fhir/base/StructureDefinition/practitionerRole-eu"
          ]
        },
        "text": {
          "status": "generated",
          "div": "<div xmlns=\"http://www.w3.org/1999/xhtml\">Laboratory Role Id: 0ab705f4-e913-4d70-a48e-8a4eb731ed08</div>"
        },
        "practitioner": {
          "reference": "urn:uuid:830d3d5a-f8eb-4fa0-bf49-afa2a817f24b"
        }
      }
    },
    {
      "fullUrl": "urn:uuid:830d3d5a-f8eb-4fa0-bf49-afa2a817f24b",
      "resource": {
        "resourceType": "Practitioner",
        "id": "830d3d5a-f8eb-4fa0-bf49-afa2a817f24b",
        "meta": {
          "profile": [
            "http://hl7.eu/fhir/base/StructureDefinition/practitioner-eu"
          ]
        },
        "identifier": [
          {
            "assigner": {
              "display": "HL7 Europe"
            },
            "system": "urn:oid:2.16.840.1.113883.2.51.999",
            "value": "f718e3fc-2f73-41ea-8ab6-1c5ca17bfb35"
          }
        ],
        "name": [
          {
            "prefix": [
              "dr"
            ],
            "given": [
              "Ex"
            ],
            "family": "Ample"
          }
        ],
        "address": [
          {
            "line": [
              "Laboratoire Central Européenne",
              "Boulevard du Jardin Botanique 32"
            ],
            "postalCode": "1000",
            "city": "Brussels",
            "country": "Belgium"
          }
        ],
        "text": {
          "status": "generated",
          "div": "<div xmlns=\"http://www.w3.org/1999/xhtml\">Laboratory: Laboratoire Central Européenne, 1000 Brussels, Belgium</div>"
        }
      }
    }
  ],
  "type": "document",
  "timestamp": "2018-01-17T12:02:39Z"
}
