{
  "resourceType": "Bundle",
  "id": "22ca8318-1106-4a9e-b013-9a60f66d8b70",
  "meta": {
    "profile": [
      "http://hl7.eu/fhir/laboratory/StructureDefinition/Bundle-eu-lab"
    ]
  },
  "identifier": {
    "assigner": {
      "display": "HL7 Europe"
    },
    "system": "urn:oid:2.16.840.1.113883.2.51.999",
    "value": "58bc5073-55e7-4a6b-b2b2-add55de7bc02"
  },
  "entry": [
    {
      "fullUrl": "urn:uuid:ede12e22-3c74-45f5-a988-38ebcc01b9e3",
      "resource": {
        "resourceType": "Composition",
        "id": "ede12e22-3c74-45f5-a988-38ebcc01b9e3",
        "meta": {
          "profile": [
            "http://hl7.eu/fhir/laboratory/StructureDefinition/Composition-eu-lab"
          ]
        },
        "identifier": {
          "assigner": {
            "display": "HL7 Europe"
          },
          "system": "urn:oid:2.16.840.1.113883.2.51.999",
          "value": "9b658461-5004-4012-9b35-b413eec086aa"
        },
        "author": [
          {
            "reference": "urn:uuid:652e74a6-b758-49ba-99b6-109f50d81a50"
          }
        ],
        "category": [
          {
            "coding": [
              {
                "code": "26436-6",
                "system": "http://loinc.org",
                "display": "Laboratory studies (set)"
              }
            ]
          }
        ],
        "type": {
          "coding": [
            {
              "code": "11502-2",
              "system": "http://loinc.org",
              "display": "Laboratory report"
            }
          ],
          "text": "Laboratory Report"
        },
        "section": [
          {
            "code": {
              "coding": [
                {
                  "code": "26436-6",
                  "system": "http://loinc.org",
                  "display": "Laboratory studies (set)"
                }
              ],
              "text": "Laboratory studies"
            },
            "section": [
              {
                "code": {
                  "coding": [
                    {
                      "code": "$18719-5",
                      "system": "http://loinc.org",
                      "display": "Chemistry studies (set)"
                    }
                  ],
                  "text": "Chemistry"
                },
                "entry": [
                  {
                    "reference": "urn:uuid:f9fa655d-f0d7-4360-82ca-f7fa79d750a5"
                  },
                  {
                    "reference": "urn:uuid:e4b94b5f-5e72-4cc5-b5d4-0b39c6ad38e0"
                  },
                  {
                    "reference": "urn:uuid:cf58d997-dbb7-4858-9205-64d68b3fd29e"
                  },
                  {
                    "reference": "urn:uuid:30e8b47b-c306-4378-ae58-dc7d57364eb3"
                  },
                  {
                    "reference": "urn:uuid:162b102d-27a3-47b0-a5cf-ae8f503d9160"
                  },
                  {
                    "reference": "urn:uuid:b9435c25-8adc-47f1-b3c3-ff4e33be22ea"
                  },
                  {
                    "reference": "urn:uuid:dbd38348-9ead-4d00-946d-c19c45ccd6be"
                  },
                  {
                    "reference": "urn:uuid:56eca47a-109c-42d3-8059-a299609f0772"
                  },
                  {
                    "reference": "urn:uuid:2e73db62-0de8-47ed-b81b-4050086c44ea"
                  },
                  {
                    "reference": "urn:uuid:0ed77803-1ed6-4132-8125-87d2855d75f7"
                  },
                  {
                    "reference": "urn:uuid:163a5d3a-cfa5-4b51-ae87-45a84396647e"
                  },
                  {
                    "reference": "urn:uuid:a41c5112-95b2-4766-a499-891812406b51"
                  },
                  {
                    "reference": "urn:uuid:d8c1c3dc-6e46-4fa0-80f3-74883e1cb6b9"
                  },
                  {
                    "reference": "urn:uuid:10756547-29d6-4d0e-b782-2776f5b405b6"
                  },
                  {
                    "reference": "urn:uuid:9ce93007-df95-40be-ba8e-b6ae2133242c"
                  },
                  {
                    "reference": "urn:uuid:272fa90f-2dc6-4792-97d2-3aa18be025be"
                  },
                  {
                    "reference": "urn:uuid:3a7dc7b2-4a43-491e-8a86-e9c05ef80c6a"
                  },
                  {
                    "reference": "urn:uuid:4fc83e89-7d18-40e6-a27b-5cc320f5c661"
                  }
                ],
                "text": {
                  "status": "generated",
                  "div": "<div xmlns=\"http://www.w3.org/1999/xhtml\"><h3>Chemistry</h3><table class=\"hl7__eu__lab__report\"><thead><tr><th>Test</th><th>31-MAY-2024</th><th>Reference&#xA0;Range</th><th>Unit</th></tr></thead><tbody><tr><td>Glucose [Mass/volume] in Serum or Plasma</td><td>78.2</td><td>70 - 140</td><td>mg/dL</td></tr><tr><td>Urea nitrogen [Mass/volume] in Serum or Plasma</td><td>14.2</td><td>7 - 20</td><td>mg/dL</td></tr><tr><td>Creatinine [Mass/volume] in Serum or Plasma</td><td><strong>2.0 H</strong></td><td>0.9 - 1.3</td><td>mg/dL</td></tr><tr><td>Calcium [Mass/volume] in Serum or Plasma</td><td>8.7</td><td>8.5 - 10.5</td><td>mg/dL</td></tr><tr><td>Sodium [Moles/volume] in Serum or Plasma</td><td>137.9</td><td>135 - 145</td><td>mmol/L</td></tr><tr><td>Potassium [Moles/volume] in Serum or Plasma</td><td>4.9</td><td>3.5 - 5.3</td><td>mmol/L</td></tr><tr><td>Chloride [Moles/volume] in Serum or Plasma</td><td>104.7</td><td>98 - 107</td><td>mmol/L</td></tr><tr><td>Carbon dioxide, total [Moles/volume] in Serum or Plasma</td><td>25.0</td><td>22 - 33</td><td>mmol/L</td></tr><tr><td>Ketones [Presence] in Urine by Test strip</td><td>Urine ketone test = ++</td><td></td><td></td></tr><tr><td>Hemoglobin A1c/Hemoglobin.total in Blood</td><td><strong>2.9 L</strong></td><td>4.3 - 6</td><td>%</td></tr><tr><td>Glucose [Mass/volume] in Blood</td><td>78.2</td><td>70 - 140</td><td>mg/dL</td></tr><tr><td>Urea nitrogen [Mass/volume] in Blood</td><td>14.2</td><td>7 - 20</td><td>mg/dL</td></tr><tr><td>Creatinine [Mass/volume] in Blood</td><td><strong>4.4 H</strong></td><td>0.9 - 1.3</td><td>mg/dL</td></tr><tr><td>Calcium [Mass/volume] in Blood</td><td>8.7</td><td>8.5 - 10.5</td><td>mg/dL</td></tr><tr><td>Sodium [Moles/volume] in Blood</td><td>137.9</td><td>135 - 145</td><td>mmol/L</td></tr><tr><td>Potassium [Moles/volume] in Blood</td><td>4.9</td><td>3.5 - 5.1</td><td>mmol/L</td></tr><tr><td>Chloride [Moles/volume] in Blood</td><td>104.7</td><td>98 - 108</td><td>mmol/L</td></tr><tr><td>Carbon dioxide, total [Moles/volume] in Blood</td><td>25.0</td><td>22 - 29</td><td>mmol/L</td></tr></tbody></table></div>"
                },
                "title": "Chemistry"
              },
              {
                "code": {
                  "coding": [
                    {
                      "code": "$18729-4",
                      "system": "http://loinc.org",
                      "display": "Urinalysis studies (set)"
                    }
                  ],
                  "text": "Urinalysis"
                },
                "entry": [
                  {
                    "reference": "urn:uuid:6db0355f-c44e-4d7f-9afe-c4cd408d337f"
                  },
                  {
                    "reference": "urn:uuid:accc9808-10f5-41e1-b025-7b3d00f94d81"
                  },
                  {
                    "reference": "urn:uuid:bbf0f219-68d0-4359-9a1d-4ec25a678ba9"
                  },
                  {
                    "reference": "urn:uuid:2ba351e2-448f-4a50-ae84-5e33489cd00f"
                  },
                  {
                    "reference": "urn:uuid:7b0b2398-20b4-4324-8973-240867464d88"
                  },
                  {
                    "reference": "urn:uuid:41f096ea-2feb-4bfe-983c-be3b37812453"
                  },
                  {
                    "reference": "urn:uuid:24e1e5ef-ff0f-4428-9a8a-2008b13d4581"
                  },
                  {
                    "reference": "urn:uuid:aac6f917-b836-40c7-a019-2f64445af796"
                  },
                  {
                    "reference": "urn:uuid:e8c8350a-4437-4792-8fce-2e4085e9d557"
                  },
                  {
                    "reference": "urn:uuid:68c81a20-8763-46d4-a227-974532d966d2"
                  },
                  {
                    "reference": "urn:uuid:be662622-6059-4d1b-9c64-b7431bd24bc2"
                  },
                  {
                    "reference": "urn:uuid:97aae0e5-bed8-4dfe-82bd-7ca46f8f00fd"
                  }
                ],
                "text": {
                  "status": "generated",
                  "div": "<div xmlns=\"http://www.w3.org/1999/xhtml\"><h3>Urinalysis</h3><table class=\"hl7__eu__lab__report\"><thead><tr><th>Test</th><th>31-MAY-2024</th><th>Reference&#xA0;Range</th><th>Unit</th></tr></thead><tbody><tr><td>Glucose [Mass/volume] in Urine by Test strip</td><td><strong>1.8 H</strong></td><td>0 - 0.8</td><td>mg/dL</td></tr><tr><td>Glucose [Presence] in Urine by Test strip</td><td>++</td><td></td><td></td></tr><tr><td>Bilirubin.total [Mass/volume] in Urine by Test strip</td><td>1.4</td><td>0 - 1.9</td><td>mg/dL</td></tr><tr><td>Bilirubin.total [Presence] in Urine by Test strip</td><td>Finding of bilirubin in urine</td><td></td><td></td></tr><tr><td>Ketones [Mass/volume] in Urine by Test strip</td><td><strong>14.6 H</strong></td><td>0 - 3</td><td>mg/dL</td></tr><tr><td>Specific gravity of Urine by Test strip</td><td><strong>1.0 L</strong></td><td>1.01 - 1.03</td><td>{nominal}</td></tr><tr><td>pH of Urine by Test strip</td><td>5.0</td><td>4.5 - 7.5</td><td>pH</td></tr><tr><td>Protein [Mass/volume] in Urine by Test strip</td><td><strong>241.8 H</strong></td><td>0 - 149</td><td>mg/dL</td></tr><tr><td>Protein [Presence] in Urine by Test strip</td><td>Urine protein test = ++</td><td></td><td></td></tr><tr><td>Nitrite [Presence] in Urine by Test strip</td><td>Urine nitrite negative</td><td></td><td></td></tr><tr><td>Hemoglobin [Presence] in Urine by Test strip</td><td>Urine blood test = negative</td><td></td><td></td></tr><tr><td>Leukocyte esterase [Presence] in Urine by Test strip</td><td>Urine leukocyte test negative</td><td></td><td></td></tr></tbody></table></div>"
                },
                "title": "Urinalysis"
              },
              {
                "code": {
                  "coding": [
                    {
                      "code": "$LP7846-1",
                      "system": "http://loinc.org",
                      "display": "Specimen information"
                    }
                  ],
                  "text": "Specimen information"
                },
                "entry": [
                  {
                    "reference": "urn:uuid:409a5618-0b72-4636-8812-6ac46322c614"
                  },
                  {
                    "reference": "urn:uuid:2afa6c8e-99b9-41c7-bd4f-0945f99b01a8"
                  },
                  {
                    "reference": "urn:uuid:5009bfcd-4ef0-4a91-951c-235ebbe78108"
                  },
                  {
                    "reference": "urn:uuid:fc7916d3-3bf4-43d6-bc73-6b2fa756fb62"
                  }
                ],
                "text": {
                  "status": "generated",
                  "div": "<div xmlns=\"http://www.w3.org/1999/xhtml\"><h3>Specimen information</h3><table class=\"hl7__eu__lab__report\"><thead><tr><th>Test</th><th>31-MAY-2024</th><th>Specimen</th><th></th></tr></thead><tbody><tr><td>Appearance of Urine</td><td>Cloudy urine</td><td>Urine</td><td></td></tr><tr><td>Odor of Urine</td><td>Urine smell ammoniacal</td><td>Urine</td><td></td></tr><tr><td>Clarity of Urine</td><td>Translucent</td><td>Urine</td><td></td></tr><tr><td>Color of Urine</td><td>Brown color</td><td>Urine</td><td></td></tr></tbody></table></div>"
                },
                "title": "Specimen information"
              }
            ],
            "title": "Laboratory Report"
          },
          {
            "text": {
              "status": "generated",
              "div": "<div xmlns=\"http://www.w3.org/1999/xhtml\"><h3>Annotation</h3><table class=\"hl7__eu__lab__report\"><tr><th>Conclusion and Recommendations based on this report and previous findings known to us</th></tr><tr><td>The patient shows significantly elevated creatinine, indicating impaired renal function, and marked proteinuria, glycosuria, and ketonuria, suggesting possible nephropathy and metabolic derangement. Urine is dilute (low specific gravity), brown, and cloudy, but without evidence of infection. HbA1c is unexpectedly low, possibly due to anemia or recent changes in glycemic control. Findings are consistent with acute or chronic kidney disease with metabolic complications; prompt clinical correlation and further nephrological evaluation are recommended.</td></tr></table></div>"
            },
            "code": {
              "coding": [
                {
                  "system": "http://loinc.org",
                  "code": "48767-8",
                  "display": "Annotation comment"
                }
              ]
            },
            "title": "Annotation comment"
          }
        ],
        "status": "final",
        "subject": {
          "reference": "urn:uuid:78765da2-7e6f-4a3d-b585-51217c00ed8d",
          "display": "Victor Lagarde"
        },
        "date": "2024-05-31T06:48:18Z",
        "title": "Laboratory Report",
        "confidentiality": "N"
      }
    },
    {
      "fullUrl": "urn:uuid:32d428eb-4bd0-453b-94d8-dd6c7dd75702",
      "resource": {
        "resourceType": "DiagnosticReport",
        "id": "32d428eb-4bd0-453b-94d8-dd6c7dd75702",
        "meta": {
          "profile": [
            "http://hl7.eu/fhir/laboratory/StructureDefinition/DiagnosticReport-eu-lab"
          ]
        },
        "identifier": [
          {
            "assigner": {
              "display": "HL7 Europe"
            },
            "system": "urn:oid:2.16.840.1.113883.2.51.999",
            "value": "9cfb3dfb-1e68-41bf-933b-8639741ddceb"
          }
        ],
        "extension": [
          {
            "url": "http://hl7.org/fhir/5.0/StructureDefinition/extension-DiagnosticReport.composition",
            "valueReference": {
              "reference": "urn:uuid:9b658461-5004-4012-9b35-b413eec086aa"
            }
          }
        ],
        "category": [
          {
            "coding": [
              {
                "code": "26436-6",
                "system": "http://loinc.org",
                "display": "Laboratory studies (set)"
              }
            ]
          }
        ],
        "specimen": [
          {
            "reference": "urn:uuid:69a8b89f-8cdf-4cca-a5e2-8cad0565d75c"
          },
          {
            "reference": "urn:uuid:b6c4c66c-7203-4007-9b78-b77cbbd0522d"
          },
          {
            "reference": "urn:uuid:61aab3d0-dae6-4f0e-a1c2-a43651559627"
          }
        ],
        "result": [
          {
            "reference": "urn:uuid:f9fa655d-f0d7-4360-82ca-f7fa79d750a5"
          },
          {
            "reference": "urn:uuid:e4b94b5f-5e72-4cc5-b5d4-0b39c6ad38e0"
          },
          {
            "reference": "urn:uuid:cf58d997-dbb7-4858-9205-64d68b3fd29e"
          },
          {
            "reference": "urn:uuid:30e8b47b-c306-4378-ae58-dc7d57364eb3"
          },
          {
            "reference": "urn:uuid:162b102d-27a3-47b0-a5cf-ae8f503d9160"
          },
          {
            "reference": "urn:uuid:b9435c25-8adc-47f1-b3c3-ff4e33be22ea"
          },
          {
            "reference": "urn:uuid:dbd38348-9ead-4d00-946d-c19c45ccd6be"
          },
          {
            "reference": "urn:uuid:56eca47a-109c-42d3-8059-a299609f0772"
          },
          {
            "reference": "urn:uuid:409a5618-0b72-4636-8812-6ac46322c614"
          },
          {
            "reference": "urn:uuid:2afa6c8e-99b9-41c7-bd4f-0945f99b01a8"
          },
          {
            "reference": "urn:uuid:5009bfcd-4ef0-4a91-951c-235ebbe78108"
          },
          {
            "reference": "urn:uuid:fc7916d3-3bf4-43d6-bc73-6b2fa756fb62"
          },
          {
            "reference": "urn:uuid:6db0355f-c44e-4d7f-9afe-c4cd408d337f"
          },
          {
            "reference": "urn:uuid:accc9808-10f5-41e1-b025-7b3d00f94d81"
          },
          {
            "reference": "urn:uuid:bbf0f219-68d0-4359-9a1d-4ec25a678ba9"
          },
          {
            "reference": "urn:uuid:2ba351e2-448f-4a50-ae84-5e33489cd00f"
          },
          {
            "reference": "urn:uuid:7b0b2398-20b4-4324-8973-240867464d88"
          },
          {
            "reference": "urn:uuid:2e73db62-0de8-47ed-b81b-4050086c44ea"
          },
          {
            "reference": "urn:uuid:41f096ea-2feb-4bfe-983c-be3b37812453"
          },
          {
            "reference": "urn:uuid:24e1e5ef-ff0f-4428-9a8a-2008b13d4581"
          },
          {
            "reference": "urn:uuid:aac6f917-b836-40c7-a019-2f64445af796"
          },
          {
            "reference": "urn:uuid:e8c8350a-4437-4792-8fce-2e4085e9d557"
          },
          {
            "reference": "urn:uuid:68c81a20-8763-46d4-a227-974532d966d2"
          },
          {
            "reference": "urn:uuid:be662622-6059-4d1b-9c64-b7431bd24bc2"
          },
          {
            "reference": "urn:uuid:97aae0e5-bed8-4dfe-82bd-7ca46f8f00fd"
          },
          {
            "reference": "urn:uuid:0ed77803-1ed6-4132-8125-87d2855d75f7"
          },
          {
            "reference": "urn:uuid:163a5d3a-cfa5-4b51-ae87-45a84396647e"
          },
          {
            "reference": "urn:uuid:a41c5112-95b2-4766-a499-891812406b51"
          },
          {
            "reference": "urn:uuid:d8c1c3dc-6e46-4fa0-80f3-74883e1cb6b9"
          },
          {
            "reference": "urn:uuid:10756547-29d6-4d0e-b782-2776f5b405b6"
          },
          {
            "reference": "urn:uuid:9ce93007-df95-40be-ba8e-b6ae2133242c"
          },
          {
            "reference": "urn:uuid:272fa90f-2dc6-4792-97d2-3aa18be025be"
          },
          {
            "reference": "urn:uuid:3a7dc7b2-4a43-491e-8a86-e9c05ef80c6a"
          },
          {
            "reference": "urn:uuid:4fc83e89-7d18-40e6-a27b-5cc320f5c661"
          }
        ],
        "status": "registered",
        "code": {
          "coding": [
            {
              "code": "11502-2",
              "system": "http://loinc.org",
              "display": "Laboratory report"
            }
          ]
        },
        "subject": {
          "reference": "urn:uuid:78765da2-7e6f-4a3d-b585-51217c00ed8d",
          "display": "Victor Lagarde"
        }
      }
    },
    {
      "fullUrl": "urn:uuid:78765da2-7e6f-4a3d-b585-51217c00ed8d",
      "resource": {
        "resourceType": "Patient",
        "id": "78765da2-7e6f-4a3d-b585-51217c00ed8d",
        "meta": {
          "security": [
            {
              "system": "http://terminology.hl7.org/CodeSystem/v3-ActReason",
              "code": "HTEST"
            },
            {
              "system": "http://terminology.hl7.org/CodeSystem/v3-ActReason",
              "code": "TRAIN"
            }
          ],
          "tag": [
            {
              "system": "https://synderai.net/fhir/CodeSystem/tags",
              "code": "synthetic",
              "display": "SYNDERAI Synthetic data"
            }
          ],
          "profile": [
            "http://hl7.eu/fhir/base/StructureDefinition/patient-eu-core"
          ]
        },
        "identifier": [
          {
            "type": {
              "coding": [
                {
                  "code": "PT",
                  "system": "http://terminology.hl7.org/CodeSystem/v2-0203"
                }
              ]
            },
            "system": "http://ec.europa.eu/identifier/eci",
            "value": "9925-001801-9"
          },
          {
            "type": {
              "coding": [
                {
                  "code": "MR",
                  "system": "http://terminology.hl7.org/CodeSystem/v2-0203"
                }
              ]
            },
            "system": "http://local.setting.eu/identifier",
            "value": "22c2dfd0-ac57-8833-2532-848f180896a4"
          }
        ],
        "name": [
          {
            "family": "Lagarde"
          },
          {
            "given": [
              "Victor"
            ]
          },
          {
            "text": "Victor Lagarde"
          }
        ],
        "address": [
          {
            "line": [
              "avenue Robert"
            ],
            "use": "home",
            "type": "physical",
            "postalCode": "80300",
            "city": "Albert",
            "country": "France"
          }
        ],
        "telecom": [
          {
            "system": "phone",
            "value": "0177941801"
          }
        ],
        "extension": [
          {
            "url": "http://hl7.org/fhir/StructureDefinition/patient-nationality",
            "valueCodeableConcept": {
              "coding": [
                {
                  "code": "FR",
                  "system": "http://hl7.org/fhir/ValueSet/country"
                }
              ]
            }
          }
        ],
        "text": {
          "status": "generated",
          "div": "<div xmlns=\"http://www.w3.org/1999/xhtml\"><table class=\"hl7__ips\"><tr><td>Victor Lagarde</td><td>male</td><td>31-Aug-1939</td></tr></table></div>"
        },
        "gender": "male",
        "birthDate": "1939-08-31"
      }
    },
    {
      "fullUrl": "urn:uuid:911f1369-2c11-4ab0-8dea-051a7bb50ebe",
      "resource": {
        "resourceType": "ServiceRequest",
        "id": "911f1369-2c11-4ab0-8dea-051a7bb50ebe",
        "meta": {
          "profile": [
            "http://hl7.eu/fhir/laboratory/StructureDefinition/ServiceRequest-eu-lab"
          ]
        },
        "identifier": [
          {
            "system": "http://example.org",
            "value": "22f6fa27-37d0-4f2f-8af0-993949223356"
          }
        ],
        "specimen": [
          {
            "reference": "urn:uuid:69a8b89f-8cdf-4cca-a5e2-8cad0565d75c"
          },
          {
            "reference": "urn:uuid:b6c4c66c-7203-4007-9b78-b77cbbd0522d"
          },
          {
            "reference": "urn:uuid:61aab3d0-dae6-4f0e-a1c2-a43651559627"
          }
        ],
        "reasonCode": [
          {
            "coding": [
              {
                "code": "433144002",
                "system": "http://snomed.info/sct",
                "display": "Chronic kidney disease stage 3"
              }
            ]
          },
          {
            "coding": [
              {
                "code": "157141000119108",
                "system": "http://snomed.info/sct",
                "display": "Proteinuria due to type 2 diabetes mellitus"
              }
            ]
          },
          {
            "coding": [
              {
                "code": "431856006",
                "system": "http://snomed.info/sct",
                "display": "Chronic kidney disease stage 2"
              }
            ]
          },
          {
            "coding": [
              {
                "code": "90781000119102",
                "system": "http://snomed.info/sct",
                "display": "Microalbuminuria due to type 2 diabetes mellitus"
              }
            ]
          },
          {
            "coding": [
              {
                "code": "127013003",
                "system": "http://snomed.info/sct",
                "display": "Disorder of kidney due to diabetes mellitus"
              }
            ]
          },
          {
            "coding": [
              {
                "code": "431855005",
                "system": "http://snomed.info/sct",
                "display": "Chronic kidney disease stage 1"
              }
            ]
          },
          {
            "coding": [
              {
                "code": "55822004",
                "system": "http://snomed.info/sct",
                "display": "Hyperlipidemia"
              }
            ]
          },
          {
            "coding": [
              {
                "code": "59621000",
                "system": "http://snomed.info/sct",
                "display": "Essential hypertension"
              }
            ]
          },
          {
            "coding": [
              {
                "code": "237602007",
                "system": "http://snomed.info/sct",
                "display": "Metabolic syndrome X"
              }
            ]
          },
          {
            "coding": [
              {
                "code": "414545008",
                "system": "http://snomed.info/sct",
                "display": "Ischemic heart disease"
              }
            ]
          },
          {
            "coding": [
              {
                "code": "40055000",
                "system": "http://snomed.info/sct",
                "display": "Chronic sinusitis"
              }
            ]
          },
          {
            "coding": [
              {
                "code": "15777000",
                "system": "http://snomed.info/sct",
                "display": "Prediabetes"
              }
            ]
          },
          {
            "coding": [
              {
                "code": "271737000",
                "system": "http://snomed.info/sct",
                "display": "Anemia"
              }
            ]
          }
        ],
        "status": "active",
        "intent": "order",
        "code": {
          "coding": [
            {
              "code": "108252007",
              "system": "http://snomed.info/sct",
              "display": "Laboratory procedure"
            }
          ]
        },
        "subject": {
          "reference": "urn:uuid:78765da2-7e6f-4a3d-b585-51217c00ed8d",
          "display": "Victor Lagarde"
        },
        "requester": {
          "reference": "urn:uuid:a08311a8-e666-4853-9d8b-bca3d5a5ab72"
        }
      }
    },
    {
      "fullUrl": "urn:uuid:a08311a8-e666-4853-9d8b-bca3d5a5ab72",
      "resource": {
        "resourceType": "PractitionerRole",
        "id": "a08311a8-e666-4853-9d8b-bca3d5a5ab72",
        "meta": {
          "profile": [
            "http://hl7.eu/fhir/base/StructureDefinition/practitionerRole-eu"
          ]
        },
        "text": {
          "status": "generated",
          "div": "<div xmlns=\"http://www.w3.org/1999/xhtml\">Provider Role Id: a08311a8-e666-4853-9d8b-bca3d5a5ab72</div>"
        },
        "organization": {
          "reference": "urn:uuid:48b1a4a7-1c71-4b2f-88df-e07cb3ee0dd8"
        }
      }
    },
    {
      "fullUrl": "urn:uuid:48b1a4a7-1c71-4b2f-88df-e07cb3ee0dd8",
      "resource": {
        "resourceType": "Organization",
        "id": "48b1a4a7-1c71-4b2f-88df-e07cb3ee0dd8",
        "meta": {
          "profile": [
            "http://hl7.eu/fhir/base/StructureDefinition/organization-eu"
          ]
        },
        "identifier": [
          {
            "assigner": {
              "display": "HL7 Europe"
            },
            "system": "urn:oid:2.16.840.1.113883.2.51.999",
            "value": "38f3a430-87d6-4098-b03a-055a34652ede"
          }
        ],
        "address": [
          {
            "city": "Auxerre",
            "postalCode": "89000",
            "country": "France"
          }
        ],
        "text": {
          "status": "generated",
          "div": "<div xmlns=\"http://www.w3.org/1999/xhtml\">Provider Organization: Thiriot Didier (Cardiologie)</div>"
        },
        "name": "Thiriot Didier (Cardiologie)"
      }
    },
    {
      "fullUrl": "urn:uuid:69a8b89f-8cdf-4cca-a5e2-8cad0565d75c",
      "resource": {
        "resourceType": "Specimen",
        "id": "69a8b89f-8cdf-4cca-a5e2-8cad0565d75c",
        "meta": {
          "profile": [
            "http://hl7.eu/fhir/laboratory/StructureDefinition/Specimen-eu-lab"
          ]
        },
        "collection": {
          "collectedDateTime": "2024-05-31"
        },
        "text": {
          "status": "generated",
          "div": "<div xmlns=\"http://www.w3.org/1999/xhtml\"><table class=\"hl7__eu__lab__report\"><tr><th>Specimen</th><th>Collection Date</th></tr><tr><td>Acellular blood (serum or plasma) specimen</td><td><span class=\"nb\">31-May-2024</span></td></tr></table></div>"
        },
        "type": {
          "coding": [
            {
              "code": "122592007",
              "system": "http://snomed.info/sct",
              "display": "Acellular blood (serum or plasma) specimen"
            }
          ]
        }
      }
    },
    {
      "fullUrl": "urn:uuid:b6c4c66c-7203-4007-9b78-b77cbbd0522d",
      "resource": {
        "resourceType": "Specimen",
        "id": "b6c4c66c-7203-4007-9b78-b77cbbd0522d",
        "meta": {
          "profile": [
            "http://hl7.eu/fhir/laboratory/StructureDefinition/Specimen-eu-lab"
          ]
        },
        "collection": {
          "collectedDateTime": "2024-05-31"
        },
        "text": {
          "status": "generated",
          "div": "<div xmlns=\"http://www.w3.org/1999/xhtml\"><table class=\"hl7__eu__lab__report\"><tr><th>Specimen</th><th>Collection Date</th></tr><tr><td>Urine specimen</td><td><span class=\"nb\">31-May-2024</span></td></tr></table></div>"
        },
        "type": {
          "coding": [
            {
              "code": "122575003",
              "system": "http://snomed.info/sct",
              "display": "Urine specimen"
            }
          ]
        }
      }
    },
    {
      "fullUrl": "urn:uuid:61aab3d0-dae6-4f0e-a1c2-a43651559627",
      "resource": {
        "resourceType": "Specimen",
        "id": "61aab3d0-dae6-4f0e-a1c2-a43651559627",
        "meta": {
          "profile": [
            "http://hl7.eu/fhir/laboratory/StructureDefinition/Specimen-eu-lab"
          ]
        },
        "collection": {
          "collectedDateTime": "2024-05-31"
        },
        "text": {
          "status": "generated",
          "div": "<div xmlns=\"http://www.w3.org/1999/xhtml\"><table class=\"hl7__eu__lab__report\"><tr><th>Specimen</th><th>Collection Date</th></tr><tr><td>Whole blood specimen (specimen)</td><td><span class=\"nb\">31-May-2024</span></td></tr></table></div>"
        },
        "type": {
          "coding": [
            {
              "code": "258580003",
              "system": "http://snomed.info/sct",
              "display": "Whole blood specimen (specimen)"
            }
          ]
        }
      }
    },
    {
      "fullUrl": "urn:uuid:f9fa655d-f0d7-4360-82ca-f7fa79d750a5",
      "resource": {
        "resourceType": "Observation",
        "id": "f9fa655d-f0d7-4360-82ca-f7fa79d750a5",
        "meta": {
          "profile": [
            "http://hl7.eu/fhir/laboratory/StructureDefinition/Observation-resultslab-eu-lab"
          ]
        },
        "performer": [
          {
            "display": "The Central European Lab"
          }
        ],
        "category": [
          {
            "coding": [
              {
                "system": "http://terminology.hl7.org/CodeSystem/observation-category",
                "code": "laboratory"
              }
            ]
          }
        ],
        "code": {
          "coding": [
            {
              "code": "2345-7",
              "system": "http://loinc.org",
              "display": "Glucose [Mass/volume] in Serum or Plasma"
            }
          ],
          "text": "Glucose [Mass/volume] in Serum or Plasma"
        },
        "valueQuantity": {
          "system": "http://unitsofmeasure.org",
          "value": 78.2,
          "unit": "mg/dL",
          "code": "mg/dL"
        },
        "referenceRange": [
          {
            "low": {
              "value": 70,
              "code": "mg/dL",
              "system": "http://unitsofmeasure.org"
            }
          },
          {
            "high": {
              "value": 140,
              "code": "mg/dL",
              "system": "http://unitsofmeasure.org"
            }
          }
        ],
        "text": {
          "status": "generated",
          "div": "<div xmlns=\"http://www.w3.org/1999/xhtml\"><table class=\"hl7__eu__lab__report\"><tr><th>Test</th><th>31-May-2024</th><th>Reference&#xA0;Range</th><th>Unit</th></tr><tr><td>Glucose [Mass/volume] in Serum or Plasma</td><td>78.2</td><td>70 - 140</td><td></td><td>mg/dL</td></tr></table></div>"
        },
        "status": "final",
        "subject": {
          "reference": "urn:uuid:78765da2-7e6f-4a3d-b585-51217c00ed8d",
          "display": "Victor Lagarde"
        },
        "effectiveDateTime": "2024-05-31T04:48:18Z",
        "specimen": {
          "reference": "urn:uuid:69a8b89f-8cdf-4cca-a5e2-8cad0565d75c"
        }
      }
    },
    {
      "fullUrl": "urn:uuid:e4b94b5f-5e72-4cc5-b5d4-0b39c6ad38e0",
      "resource": {
        "resourceType": "Observation",
        "id": "e4b94b5f-5e72-4cc5-b5d4-0b39c6ad38e0",
        "meta": {
          "profile": [
            "http://hl7.eu/fhir/laboratory/StructureDefinition/Observation-resultslab-eu-lab"
          ]
        },
        "performer": [
          {
            "display": "The Central European Lab"
          }
        ],
        "category": [
          {
            "coding": [
              {
                "system": "http://terminology.hl7.org/CodeSystem/observation-category",
                "code": "laboratory"
              }
            ]
          }
        ],
        "code": {
          "coding": [
            {
              "code": "3094-0",
              "system": "http://loinc.org",
              "display": "Urea nitrogen [Mass/volume] in Serum or Plasma"
            }
          ],
          "text": "Urea nitrogen [Mass/volume] in Serum or Plasma"
        },
        "valueQuantity": {
          "system": "http://unitsofmeasure.org",
          "value": 14.2,
          "unit": "mg/dL",
          "code": "mg/dL"
        },
        "referenceRange": [
          {
            "low": {
              "value": 7,
              "code": "mg/dL",
              "system": "http://unitsofmeasure.org"
            }
          },
          {
            "high": {
              "value": 20,
              "code": "mg/dL",
              "system": "http://unitsofmeasure.org"
            }
          }
        ],
        "text": {
          "status": "generated",
          "div": "<div xmlns=\"http://www.w3.org/1999/xhtml\"><table class=\"hl7__eu__lab__report\"><tr><th>Test</th><th>31-May-2024</th><th>Reference&#xA0;Range</th><th>Unit</th></tr><tr><td>Urea nitrogen [Mass/volume] in Serum or Plasma</td><td>14.2</td><td>7 - 20</td><td></td><td>mg/dL</td></tr></table></div>"
        },
        "status": "final",
        "subject": {
          "reference": "urn:uuid:78765da2-7e6f-4a3d-b585-51217c00ed8d",
          "display": "Victor Lagarde"
        },
        "effectiveDateTime": "2024-05-31T04:48:18Z",
        "specimen": {
          "reference": "urn:uuid:69a8b89f-8cdf-4cca-a5e2-8cad0565d75c"
        }
      }
    },
    {
      "fullUrl": "urn:uuid:cf58d997-dbb7-4858-9205-64d68b3fd29e",
      "resource": {
        "resourceType": "Observation",
        "id": "cf58d997-dbb7-4858-9205-64d68b3fd29e",
        "meta": {
          "profile": [
            "http://hl7.eu/fhir/laboratory/StructureDefinition/Observation-resultslab-eu-lab"
          ]
        },
        "performer": [
          {
            "display": "The Central European Lab"
          }
        ],
        "category": [
          {
            "coding": [
              {
                "system": "http://terminology.hl7.org/CodeSystem/observation-category",
                "code": "laboratory"
              }
            ]
          }
        ],
        "code": {
          "coding": [
            {
              "code": "2160-0",
              "system": "http://loinc.org",
              "display": "Creatinine [Mass/volume] in Serum or Plasma"
            }
          ],
          "text": "Creatinine [Mass/volume] in Serum or Plasma"
        },
        "valueQuantity": {
          "system": "http://unitsofmeasure.org",
          "value": 2,
          "unit": "mg/dL",
          "code": "mg/dL"
        },
        "referenceRange": [
          {
            "low": {
              "value": 0.9,
              "code": "mg/dL",
              "system": "http://unitsofmeasure.org"
            }
          },
          {
            "high": {
              "value": 1.3,
              "code": "mg/dL",
              "system": "http://unitsofmeasure.org"
            }
          }
        ],
        "interpretation": [
          {
            "coding": [
              {
                "code": "H",
                "system": "http://terminology.hl7.org/CodeSystem/v3-ObservationInterpretation",
                "display": "High"
              }
            ]
          }
        ],
        "text": {
          "status": "generated",
          "div": "<div xmlns=\"http://www.w3.org/1999/xhtml\"><table class=\"hl7__eu__lab__report\"><tr><th>Test</th><th>31-May-2024</th><th>Reference&#xA0;Range</th><th>Unit</th></tr><tr><td>Creatinine [Mass/volume] in Serum or Plasma</td><td>2.0</td><td>0.9 - 1.3</td><td>H</td><td>mg/dL</td></tr></table></div>"
        },
        "status": "final",
        "subject": {
          "reference": "urn:uuid:78765da2-7e6f-4a3d-b585-51217c00ed8d",
          "display": "Victor Lagarde"
        },
        "effectiveDateTime": "2024-05-31T04:48:18Z",
        "specimen": {
          "reference": "urn:uuid:69a8b89f-8cdf-4cca-a5e2-8cad0565d75c"
        }
      }
    },
    {
      "fullUrl": "urn:uuid:30e8b47b-c306-4378-ae58-dc7d57364eb3",
      "resource": {
        "resourceType": "Observation",
        "id": "30e8b47b-c306-4378-ae58-dc7d57364eb3",
        "meta": {
          "profile": [
            "http://hl7.eu/fhir/laboratory/StructureDefinition/Observation-resultslab-eu-lab"
          ]
        },
        "performer": [
          {
            "display": "The Central European Lab"
          }
        ],
        "category": [
          {
            "coding": [
              {
                "system": "http://terminology.hl7.org/CodeSystem/observation-category",
                "code": "laboratory"
              }
            ]
          }
        ],
        "code": {
          "coding": [
            {
              "code": "17861-6",
              "system": "http://loinc.org",
              "display": "Calcium [Mass/volume] in Serum or Plasma"
            }
          ],
          "text": "Calcium [Mass/volume] in Serum or Plasma"
        },
        "valueQuantity": {
          "system": "http://unitsofmeasure.org",
          "value": 8.7,
          "unit": "mg/dL",
          "code": "mg/dL"
        },
        "referenceRange": [
          {
            "low": {
              "value": 8.5,
              "code": "mg/dL",
              "system": "http://unitsofmeasure.org"
            }
          },
          {
            "high": {
              "value": 10.5,
              "code": "mg/dL",
              "system": "http://unitsofmeasure.org"
            }
          }
        ],
        "text": {
          "status": "generated",
          "div": "<div xmlns=\"http://www.w3.org/1999/xhtml\"><table class=\"hl7__eu__lab__report\"><tr><th>Test</th><th>31-May-2024</th><th>Reference&#xA0;Range</th><th>Unit</th></tr><tr><td>Calcium [Mass/volume] in Serum or Plasma</td><td>8.7</td><td>8.5 - 10.5</td><td></td><td>mg/dL</td></tr></table></div>"
        },
        "status": "final",
        "subject": {
          "reference": "urn:uuid:78765da2-7e6f-4a3d-b585-51217c00ed8d",
          "display": "Victor Lagarde"
        },
        "effectiveDateTime": "2024-05-31T04:48:18Z",
        "specimen": {
          "reference": "urn:uuid:69a8b89f-8cdf-4cca-a5e2-8cad0565d75c"
        }
      }
    },
    {
      "fullUrl": "urn:uuid:162b102d-27a3-47b0-a5cf-ae8f503d9160",
      "resource": {
        "resourceType": "Observation",
        "id": "162b102d-27a3-47b0-a5cf-ae8f503d9160",
        "meta": {
          "profile": [
            "http://hl7.eu/fhir/laboratory/StructureDefinition/Observation-resultslab-eu-lab"
          ]
        },
        "performer": [
          {
            "display": "The Central European Lab"
          }
        ],
        "category": [
          {
            "coding": [
              {
                "system": "http://terminology.hl7.org/CodeSystem/observation-category",
                "code": "laboratory"
              }
            ]
          }
        ],
        "code": {
          "coding": [
            {
              "code": "2951-2",
              "system": "http://loinc.org",
              "display": "Sodium [Moles/volume] in Serum or Plasma"
            }
          ],
          "text": "Sodium [Moles/volume] in Serum or Plasma"
        },
        "valueQuantity": {
          "system": "http://unitsofmeasure.org",
          "value": 137.9,
          "unit": "mmol/L",
          "code": "mmol/L"
        },
        "referenceRange": [
          {
            "low": {
              "value": 135,
              "code": "mmol/L",
              "system": "http://unitsofmeasure.org"
            }
          },
          {
            "high": {
              "value": 145,
              "code": "mmol/L",
              "system": "http://unitsofmeasure.org"
            }
          }
        ],
        "text": {
          "status": "generated",
          "div": "<div xmlns=\"http://www.w3.org/1999/xhtml\"><table class=\"hl7__eu__lab__report\"><tr><th>Test</th><th>31-May-2024</th><th>Reference&#xA0;Range</th><th>Unit</th></tr><tr><td>Sodium [Moles/volume] in Serum or Plasma</td><td>137.9</td><td>135 - 145</td><td></td><td>mmol/L</td></tr></table></div>"
        },
        "status": "final",
        "subject": {
          "reference": "urn:uuid:78765da2-7e6f-4a3d-b585-51217c00ed8d",
          "display": "Victor Lagarde"
        },
        "effectiveDateTime": "2024-05-31T04:48:18Z",
        "specimen": {
          "reference": "urn:uuid:69a8b89f-8cdf-4cca-a5e2-8cad0565d75c"
        }
      }
    },
    {
      "fullUrl": "urn:uuid:b9435c25-8adc-47f1-b3c3-ff4e33be22ea",
      "resource": {
        "resourceType": "Observation",
        "id": "b9435c25-8adc-47f1-b3c3-ff4e33be22ea",
        "meta": {
          "profile": [
            "http://hl7.eu/fhir/laboratory/StructureDefinition/Observation-resultslab-eu-lab"
          ]
        },
        "performer": [
          {
            "display": "The Central European Lab"
          }
        ],
        "category": [
          {
            "coding": [
              {
                "system": "http://terminology.hl7.org/CodeSystem/observation-category",
                "code": "laboratory"
              }
            ]
          }
        ],
        "code": {
          "coding": [
            {
              "code": "2823-3",
              "system": "http://loinc.org",
              "display": "Potassium [Moles/volume] in Serum or Plasma"
            }
          ],
          "text": "Potassium [Moles/volume] in Serum or Plasma"
        },
        "valueQuantity": {
          "system": "http://unitsofmeasure.org",
          "value": 4.9,
          "unit": "mmol/L",
          "code": "mmol/L"
        },
        "referenceRange": [
          {
            "low": {
              "value": 3.5,
              "code": "mmol/L",
              "system": "http://unitsofmeasure.org"
            }
          },
          {
            "high": {
              "value": 5.3,
              "code": "mmol/L",
              "system": "http://unitsofmeasure.org"
            }
          }
        ],
        "text": {
          "status": "generated",
          "div": "<div xmlns=\"http://www.w3.org/1999/xhtml\"><table class=\"hl7__eu__lab__report\"><tr><th>Test</th><th>31-May-2024</th><th>Reference&#xA0;Range</th><th>Unit</th></tr><tr><td>Potassium [Moles/volume] in Serum or Plasma</td><td>4.9</td><td>3.5 - 5.3</td><td></td><td>mmol/L</td></tr></table></div>"
        },
        "status": "final",
        "subject": {
          "reference": "urn:uuid:78765da2-7e6f-4a3d-b585-51217c00ed8d",
          "display": "Victor Lagarde"
        },
        "effectiveDateTime": "2024-05-31T04:48:18Z",
        "specimen": {
          "reference": "urn:uuid:69a8b89f-8cdf-4cca-a5e2-8cad0565d75c"
        }
      }
    },
    {
      "fullUrl": "urn:uuid:dbd38348-9ead-4d00-946d-c19c45ccd6be",
      "resource": {
        "resourceType": "Observation",
        "id": "dbd38348-9ead-4d00-946d-c19c45ccd6be",
        "meta": {
          "profile": [
            "http://hl7.eu/fhir/laboratory/StructureDefinition/Observation-resultslab-eu-lab"
          ]
        },
        "performer": [
          {
            "display": "The Central European Lab"
          }
        ],
        "category": [
          {
            "coding": [
              {
                "system": "http://terminology.hl7.org/CodeSystem/observation-category",
                "code": "laboratory"
              }
            ]
          }
        ],
        "code": {
          "coding": [
            {
              "code": "2075-0",
              "system": "http://loinc.org",
              "display": "Chloride [Moles/volume] in Serum or Plasma"
            }
          ],
          "text": "Chloride [Moles/volume] in Serum or Plasma"
        },
        "valueQuantity": {
          "system": "http://unitsofmeasure.org",
          "value": 104.7,
          "unit": "mmol/L",
          "code": "mmol/L"
        },
        "referenceRange": [
          {
            "low": {
              "value": 98,
              "code": "mmol/L",
              "system": "http://unitsofmeasure.org"
            }
          },
          {
            "high": {
              "value": 107,
              "code": "mmol/L",
              "system": "http://unitsofmeasure.org"
            }
          }
        ],
        "text": {
          "status": "generated",
          "div": "<div xmlns=\"http://www.w3.org/1999/xhtml\"><table class=\"hl7__eu__lab__report\"><tr><th>Test</th><th>31-May-2024</th><th>Reference&#xA0;Range</th><th>Unit</th></tr><tr><td>Chloride [Moles/volume] in Serum or Plasma</td><td>104.7</td><td>98 - 107</td><td></td><td>mmol/L</td></tr></table></div>"
        },
        "status": "final",
        "subject": {
          "reference": "urn:uuid:78765da2-7e6f-4a3d-b585-51217c00ed8d",
          "display": "Victor Lagarde"
        },
        "effectiveDateTime": "2024-05-31T04:48:18Z",
        "specimen": {
          "reference": "urn:uuid:69a8b89f-8cdf-4cca-a5e2-8cad0565d75c"
        }
      }
    },
    {
      "fullUrl": "urn:uuid:56eca47a-109c-42d3-8059-a299609f0772",
      "resource": {
        "resourceType": "Observation",
        "id": "56eca47a-109c-42d3-8059-a299609f0772",
        "meta": {
          "profile": [
            "http://hl7.eu/fhir/laboratory/StructureDefinition/Observation-resultslab-eu-lab"
          ]
        },
        "performer": [
          {
            "display": "The Central European Lab"
          }
        ],
        "category": [
          {
            "coding": [
              {
                "system": "http://terminology.hl7.org/CodeSystem/observation-category",
                "code": "laboratory"
              }
            ]
          }
        ],
        "code": {
          "coding": [
            {
              "code": "2028-9",
              "system": "http://loinc.org",
              "display": "Carbon dioxide, total [Moles/volume] in Serum or Plasma"
            }
          ],
          "text": "Carbon dioxide, total [Moles/volume] in Serum or Plasma"
        },
        "valueQuantity": {
          "system": "http://unitsofmeasure.org",
          "value": 25,
          "unit": "mmol/L",
          "code": "mmol/L"
        },
        "referenceRange": [
          {
            "low": {
              "value": 22,
              "code": "mmol/L",
              "system": "http://unitsofmeasure.org"
            }
          },
          {
            "high": {
              "value": 33,
              "code": "mmol/L",
              "system": "http://unitsofmeasure.org"
            }
          }
        ],
        "text": {
          "status": "generated",
          "div": "<div xmlns=\"http://www.w3.org/1999/xhtml\"><table class=\"hl7__eu__lab__report\"><tr><th>Test</th><th>31-May-2024</th><th>Reference&#xA0;Range</th><th>Unit</th></tr><tr><td>Carbon dioxide, total [Moles/volume] in Serum or Plasma</td><td>25.0</td><td>22 - 33</td><td></td><td>mmol/L</td></tr></table></div>"
        },
        "status": "final",
        "subject": {
          "reference": "urn:uuid:78765da2-7e6f-4a3d-b585-51217c00ed8d",
          "display": "Victor Lagarde"
        },
        "effectiveDateTime": "2024-05-31T04:48:18Z",
        "specimen": {
          "reference": "urn:uuid:69a8b89f-8cdf-4cca-a5e2-8cad0565d75c"
        }
      }
    },
    {
      "fullUrl": "urn:uuid:409a5618-0b72-4636-8812-6ac46322c614",
      "resource": {
        "resourceType": "Observation",
        "id": "409a5618-0b72-4636-8812-6ac46322c614",
        "meta": {
          "profile": [
            "http://hl7.eu/fhir/laboratory/StructureDefinition/Observation-resultslab-eu-lab"
          ]
        },
        "performer": [
          {
            "display": "The Central European Lab"
          }
        ],
        "category": [
          {
            "coding": [
              {
                "system": "http://terminology.hl7.org/CodeSystem/observation-category",
                "code": "laboratory"
              }
            ]
          }
        ],
        "code": {
          "coding": [
            {
              "code": "5767-9",
              "system": "http://loinc.org",
              "display": "Appearance of Urine"
            }
          ],
          "text": "Appearance of Urine"
        },
        "text": {
          "status": "generated",
          "div": "<div xmlns=\"http://www.w3.org/1999/xhtml\"><table class=\"hl7__eu__lab__report\"><tr><th>Test</th><th>31-May-2024</th><th>Reference&#xA0;Range</th><th>Unit</th></tr><tr><td>Appearance of Urine</td></tr></table></div>"
        },
        "status": "final",
        "subject": {
          "reference": "urn:uuid:78765da2-7e6f-4a3d-b585-51217c00ed8d",
          "display": "Victor Lagarde"
        },
        "effectiveDateTime": "2024-05-31T04:48:18Z",
        "specimen": {
          "reference": "urn:uuid:b6c4c66c-7203-4007-9b78-b77cbbd0522d"
        }
      }
    },
    {
      "fullUrl": "urn:uuid:2afa6c8e-99b9-41c7-bd4f-0945f99b01a8",
      "resource": {
        "resourceType": "Observation",
        "id": "2afa6c8e-99b9-41c7-bd4f-0945f99b01a8",
        "meta": {
          "profile": [
            "http://hl7.eu/fhir/laboratory/StructureDefinition/Observation-resultslab-eu-lab"
          ]
        },
        "performer": [
          {
            "display": "The Central European Lab"
          }
        ],
        "category": [
          {
            "coding": [
              {
                "system": "http://terminology.hl7.org/CodeSystem/observation-category",
                "code": "laboratory"
              }
            ]
          }
        ],
        "code": {
          "coding": [
            {
              "code": "34533-0",
              "system": "http://loinc.org",
              "display": "Odor of Urine"
            }
          ],
          "text": "Odor of Urine"
        },
        "text": {
          "status": "generated",
          "div": "<div xmlns=\"http://www.w3.org/1999/xhtml\"><table class=\"hl7__eu__lab__report\"><tr><th>Test</th><th>31-May-2024</th><th>Reference&#xA0;Range</th><th>Unit</th></tr><tr><td>Odor of Urine</td></tr></table></div>"
        },
        "status": "final",
        "subject": {
          "reference": "urn:uuid:78765da2-7e6f-4a3d-b585-51217c00ed8d",
          "display": "Victor Lagarde"
        },
        "effectiveDateTime": "2024-05-31T04:48:18Z",
        "specimen": {
          "reference": "urn:uuid:b6c4c66c-7203-4007-9b78-b77cbbd0522d"
        }
      }
    },
    {
      "fullUrl": "urn:uuid:5009bfcd-4ef0-4a91-951c-235ebbe78108",
      "resource": {
        "resourceType": "Observation",
        "id": "5009bfcd-4ef0-4a91-951c-235ebbe78108",
        "meta": {
          "profile": [
            "http://hl7.eu/fhir/laboratory/StructureDefinition/Observation-resultslab-eu-lab"
          ]
        },
        "performer": [
          {
            "display": "The Central European Lab"
          }
        ],
        "category": [
          {
            "coding": [
              {
                "system": "http://terminology.hl7.org/CodeSystem/observation-category",
                "code": "laboratory"
              }
            ]
          }
        ],
        "code": {
          "coding": [
            {
              "code": "32167-9",
              "system": "http://loinc.org",
              "display": "Clarity of Urine"
            }
          ],
          "text": "Clarity of Urine"
        },
        "text": {
          "status": "generated",
          "div": "<div xmlns=\"http://www.w3.org/1999/xhtml\"><table class=\"hl7__eu__lab__report\"><tr><th>Test</th><th>31-May-2024</th><th>Reference&#xA0;Range</th><th>Unit</th></tr><tr><td>Clarity of Urine</td></tr></table></div>"
        },
        "status": "final",
        "subject": {
          "reference": "urn:uuid:78765da2-7e6f-4a3d-b585-51217c00ed8d",
          "display": "Victor Lagarde"
        },
        "effectiveDateTime": "2024-05-31T04:48:18Z",
        "specimen": {
          "reference": "urn:uuid:b6c4c66c-7203-4007-9b78-b77cbbd0522d"
        }
      }
    },
    {
      "fullUrl": "urn:uuid:fc7916d3-3bf4-43d6-bc73-6b2fa756fb62",
      "resource": {
        "resourceType": "Observation",
        "id": "fc7916d3-3bf4-43d6-bc73-6b2fa756fb62",
        "meta": {
          "profile": [
            "http://hl7.eu/fhir/laboratory/StructureDefinition/Observation-resultslab-eu-lab"
          ]
        },
        "performer": [
          {
            "display": "The Central European Lab"
          }
        ],
        "category": [
          {
            "coding": [
              {
                "system": "http://terminology.hl7.org/CodeSystem/observation-category",
                "code": "laboratory"
              }
            ]
          }
        ],
        "code": {
          "coding": [
            {
              "code": "5778-6",
              "system": "http://loinc.org",
              "display": "Color of Urine"
            }
          ],
          "text": "Color of Urine"
        },
        "text": {
          "status": "generated",
          "div": "<div xmlns=\"http://www.w3.org/1999/xhtml\"><table class=\"hl7__eu__lab__report\"><tr><th>Test</th><th>31-May-2024</th><th>Reference&#xA0;Range</th><th>Unit</th></tr><tr><td>Color of Urine</td></tr></table></div>"
        },
        "status": "final",
        "subject": {
          "reference": "urn:uuid:78765da2-7e6f-4a3d-b585-51217c00ed8d",
          "display": "Victor Lagarde"
        },
        "effectiveDateTime": "2024-05-31T04:48:18Z",
        "specimen": {
          "reference": "urn:uuid:b6c4c66c-7203-4007-9b78-b77cbbd0522d"
        }
      }
    },
    {
      "fullUrl": "urn:uuid:6db0355f-c44e-4d7f-9afe-c4cd408d337f",
      "resource": {
        "resourceType": "Observation",
        "id": "6db0355f-c44e-4d7f-9afe-c4cd408d337f",
        "meta": {
          "profile": [
            "http://hl7.eu/fhir/laboratory/StructureDefinition/Observation-resultslab-eu-lab"
          ]
        },
        "performer": [
          {
            "display": "The Central European Lab"
          }
        ],
        "category": [
          {
            "coding": [
              {
                "system": "http://terminology.hl7.org/CodeSystem/observation-category",
                "code": "laboratory"
              }
            ]
          }
        ],
        "code": {
          "coding": [
            {
              "code": "5792-7",
              "system": "http://loinc.org",
              "display": "Glucose [Mass/volume] in Urine by Test strip"
            }
          ],
          "text": "Glucose [Mass/volume] in Urine by Test strip"
        },
        "valueQuantity": {
          "system": "http://unitsofmeasure.org",
          "value": 1.8,
          "unit": "mg/dL",
          "code": "mg/dL"
        },
        "referenceRange": [
          {
            "low": {
              "value": 0,
              "code": "mg/dL",
              "system": "http://unitsofmeasure.org"
            }
          },
          {
            "high": {
              "value": 0.8,
              "code": "mg/dL",
              "system": "http://unitsofmeasure.org"
            }
          }
        ],
        "interpretation": [
          {
            "coding": [
              {
                "code": "H",
                "system": "http://terminology.hl7.org/CodeSystem/v3-ObservationInterpretation",
                "display": "High"
              }
            ]
          }
        ],
        "text": {
          "status": "generated",
          "div": "<div xmlns=\"http://www.w3.org/1999/xhtml\"><table class=\"hl7__eu__lab__report\"><tr><th>Test</th><th>31-May-2024</th><th>Reference&#xA0;Range</th><th>Unit</th></tr><tr><td>Glucose [Mass/volume] in Urine by Test strip</td><td>1.8</td><td>0 - 0.8</td><td>H</td><td>mg/dL</td></tr></table></div>"
        },
        "status": "final",
        "subject": {
          "reference": "urn:uuid:78765da2-7e6f-4a3d-b585-51217c00ed8d",
          "display": "Victor Lagarde"
        },
        "effectiveDateTime": "2024-05-31T04:48:18Z",
        "specimen": {
          "reference": "urn:uuid:b6c4c66c-7203-4007-9b78-b77cbbd0522d"
        }
      }
    },
    {
      "fullUrl": "urn:uuid:accc9808-10f5-41e1-b025-7b3d00f94d81",
      "resource": {
        "resourceType": "Observation",
        "id": "accc9808-10f5-41e1-b025-7b3d00f94d81",
        "meta": {
          "profile": [
            "http://hl7.eu/fhir/laboratory/StructureDefinition/Observation-resultslab-eu-lab"
          ]
        },
        "performer": [
          {
            "display": "The Central European Lab"
          }
        ],
        "category": [
          {
            "coding": [
              {
                "system": "http://terminology.hl7.org/CodeSystem/observation-category",
                "code": "laboratory"
              }
            ]
          }
        ],
        "code": {
          "coding": [
            {
              "code": "25428-4",
              "system": "http://loinc.org",
              "display": "Glucose [Presence] in Urine by Test strip"
            }
          ],
          "text": "Glucose [Presence] in Urine by Test strip"
        },
        "text": {
          "status": "generated",
          "div": "<div xmlns=\"http://www.w3.org/1999/xhtml\"><table class=\"hl7__eu__lab__report\"><tr><th>Test</th><th>31-May-2024</th><th>Reference&#xA0;Range</th><th>Unit</th></tr><tr><td>Glucose [Presence] in Urine by Test strip</td></tr></table></div>"
        },
        "status": "final",
        "subject": {
          "reference": "urn:uuid:78765da2-7e6f-4a3d-b585-51217c00ed8d",
          "display": "Victor Lagarde"
        },
        "effectiveDateTime": "2024-05-31T04:48:18Z",
        "specimen": {
          "reference": "urn:uuid:b6c4c66c-7203-4007-9b78-b77cbbd0522d"
        }
      }
    },
    {
      "fullUrl": "urn:uuid:bbf0f219-68d0-4359-9a1d-4ec25a678ba9",
      "resource": {
        "resourceType": "Observation",
        "id": "bbf0f219-68d0-4359-9a1d-4ec25a678ba9",
        "meta": {
          "profile": [
            "http://hl7.eu/fhir/laboratory/StructureDefinition/Observation-resultslab-eu-lab"
          ]
        },
        "performer": [
          {
            "display": "The Central European Lab"
          }
        ],
        "category": [
          {
            "coding": [
              {
                "system": "http://terminology.hl7.org/CodeSystem/observation-category",
                "code": "laboratory"
              }
            ]
          }
        ],
        "code": {
          "coding": [
            {
              "code": "20505-4",
              "system": "http://loinc.org",
              "display": "Bilirubin.total [Mass/volume] in Urine by Test strip"
            }
          ],
          "text": "Bilirubin.total [Mass/volume] in Urine by Test strip"
        },
        "valueQuantity": {
          "system": "http://unitsofmeasure.org",
          "value": 1.4,
          "unit": "mg/dL",
          "code": "mg/dL"
        },
        "referenceRange": [
          {
            "low": {
              "value": 0,
              "code": "mg/dL",
              "system": "http://unitsofmeasure.org"
            }
          },
          {
            "high": {
              "value": 1.9,
              "code": "mg/dL",
              "system": "http://unitsofmeasure.org"
            }
          }
        ],
        "text": {
          "status": "generated",
          "div": "<div xmlns=\"http://www.w3.org/1999/xhtml\"><table class=\"hl7__eu__lab__report\"><tr><th>Test</th><th>31-May-2024</th><th>Reference&#xA0;Range</th><th>Unit</th></tr><tr><td>Bilirubin.total [Mass/volume] in Urine by Test strip</td><td>1.4</td><td>0 - 1.9</td><td></td><td>mg/dL</td></tr></table></div>"
        },
        "status": "final",
        "subject": {
          "reference": "urn:uuid:78765da2-7e6f-4a3d-b585-51217c00ed8d",
          "display": "Victor Lagarde"
        },
        "effectiveDateTime": "2024-05-31T04:48:18Z",
        "specimen": {
          "reference": "urn:uuid:b6c4c66c-7203-4007-9b78-b77cbbd0522d"
        }
      }
    },
    {
      "fullUrl": "urn:uuid:2ba351e2-448f-4a50-ae84-5e33489cd00f",
      "resource": {
        "resourceType": "Observation",
        "id": "2ba351e2-448f-4a50-ae84-5e33489cd00f",
        "meta": {
          "profile": [
            "http://hl7.eu/fhir/laboratory/StructureDefinition/Observation-resultslab-eu-lab"
          ]
        },
        "performer": [
          {
            "display": "The Central European Lab"
          }
        ],
        "category": [
          {
            "coding": [
              {
                "system": "http://terminology.hl7.org/CodeSystem/observation-category",
                "code": "laboratory"
              }
            ]
          }
        ],
        "code": {
          "coding": [
            {
              "code": "5770-3",
              "system": "http://loinc.org",
              "display": "Bilirubin.total [Presence] in Urine by Test strip"
            }
          ],
          "text": "Bilirubin.total [Presence] in Urine by Test strip"
        },
        "text": {
          "status": "generated",
          "div": "<div xmlns=\"http://www.w3.org/1999/xhtml\"><table class=\"hl7__eu__lab__report\"><tr><th>Test</th><th>31-May-2024</th><th>Reference&#xA0;Range</th><th>Unit</th></tr><tr><td>Bilirubin.total [Presence] in Urine by Test strip</td></tr></table></div>"
        },
        "status": "final",
        "subject": {
          "reference": "urn:uuid:78765da2-7e6f-4a3d-b585-51217c00ed8d",
          "display": "Victor Lagarde"
        },
        "effectiveDateTime": "2024-05-31T04:48:18Z",
        "specimen": {
          "reference": "urn:uuid:b6c4c66c-7203-4007-9b78-b77cbbd0522d"
        }
      }
    },
    {
      "fullUrl": "urn:uuid:7b0b2398-20b4-4324-8973-240867464d88",
      "resource": {
        "resourceType": "Observation",
        "id": "7b0b2398-20b4-4324-8973-240867464d88",
        "meta": {
          "profile": [
            "http://hl7.eu/fhir/laboratory/StructureDefinition/Observation-resultslab-eu-lab"
          ]
        },
        "performer": [
          {
            "display": "The Central European Lab"
          }
        ],
        "category": [
          {
            "coding": [
              {
                "system": "http://terminology.hl7.org/CodeSystem/observation-category",
                "code": "laboratory"
              }
            ]
          }
        ],
        "code": {
          "coding": [
            {
              "code": "5797-6",
              "system": "http://loinc.org",
              "display": "Ketones [Mass/volume] in Urine by Test strip"
            }
          ],
          "text": "Ketones [Mass/volume] in Urine by Test strip"
        },
        "valueQuantity": {
          "system": "http://unitsofmeasure.org",
          "value": 14.6,
          "unit": "mg/dL",
          "code": "mg/dL"
        },
        "referenceRange": [
          {
            "low": {
              "value": 0,
              "code": "mg/dL",
              "system": "http://unitsofmeasure.org"
            }
          },
          {
            "high": {
              "value": 3,
              "code": "mg/dL",
              "system": "http://unitsofmeasure.org"
            }
          }
        ],
        "interpretation": [
          {
            "coding": [
              {
                "code": "H",
                "system": "http://terminology.hl7.org/CodeSystem/v3-ObservationInterpretation",
                "display": "High"
              }
            ]
          }
        ],
        "text": {
          "status": "generated",
          "div": "<div xmlns=\"http://www.w3.org/1999/xhtml\"><table class=\"hl7__eu__lab__report\"><tr><th>Test</th><th>31-May-2024</th><th>Reference&#xA0;Range</th><th>Unit</th></tr><tr><td>Ketones [Mass/volume] in Urine by Test strip</td><td>14.6</td><td>0 - 3</td><td>H</td><td>mg/dL</td></tr></table></div>"
        },
        "status": "final",
        "subject": {
          "reference": "urn:uuid:78765da2-7e6f-4a3d-b585-51217c00ed8d",
          "display": "Victor Lagarde"
        },
        "effectiveDateTime": "2024-05-31T04:48:18Z",
        "specimen": {
          "reference": "urn:uuid:b6c4c66c-7203-4007-9b78-b77cbbd0522d"
        }
      }
    },
    {
      "fullUrl": "urn:uuid:2e73db62-0de8-47ed-b81b-4050086c44ea",
      "resource": {
        "resourceType": "Observation",
        "id": "2e73db62-0de8-47ed-b81b-4050086c44ea",
        "meta": {
          "profile": [
            "http://hl7.eu/fhir/laboratory/StructureDefinition/Observation-resultslab-eu-lab"
          ]
        },
        "performer": [
          {
            "display": "The Central European Lab"
          }
        ],
        "category": [
          {
            "coding": [
              {
                "system": "http://terminology.hl7.org/CodeSystem/observation-category",
                "code": "laboratory"
              }
            ]
          }
        ],
        "code": {
          "coding": [
            {
              "code": "2514-8",
              "system": "http://loinc.org",
              "display": "Ketones [Presence] in Urine by Test strip"
            }
          ],
          "text": "Ketones [Presence] in Urine by Test strip"
        },
        "text": {
          "status": "generated",
          "div": "<div xmlns=\"http://www.w3.org/1999/xhtml\"><table class=\"hl7__eu__lab__report\"><tr><th>Test</th><th>31-May-2024</th><th>Reference&#xA0;Range</th><th>Unit</th></tr><tr><td>Ketones [Presence] in Urine by Test strip</td></tr></table></div>"
        },
        "status": "final",
        "subject": {
          "reference": "urn:uuid:78765da2-7e6f-4a3d-b585-51217c00ed8d",
          "display": "Victor Lagarde"
        },
        "effectiveDateTime": "2024-05-31T04:48:18Z",
        "specimen": {
          "reference": "urn:uuid:b6c4c66c-7203-4007-9b78-b77cbbd0522d"
        }
      }
    },
    {
      "fullUrl": "urn:uuid:41f096ea-2feb-4bfe-983c-be3b37812453",
      "resource": {
        "resourceType": "Observation",
        "id": "41f096ea-2feb-4bfe-983c-be3b37812453",
        "meta": {
          "profile": [
            "http://hl7.eu/fhir/laboratory/StructureDefinition/Observation-resultslab-eu-lab"
          ]
        },
        "performer": [
          {
            "display": "The Central European Lab"
          }
        ],
        "category": [
          {
            "coding": [
              {
                "system": "http://terminology.hl7.org/CodeSystem/observation-category",
                "code": "laboratory"
              }
            ]
          }
        ],
        "code": {
          "coding": [
            {
              "code": "5811-5",
              "system": "http://loinc.org",
              "display": "Specific gravity of Urine by Test strip"
            }
          ],
          "text": "Specific gravity of Urine by Test strip"
        },
        "valueQuantity": {
          "system": "http://unitsofmeasure.org",
          "value": 1,
          "unit": "{nominal}",
          "code": "{nominal}"
        },
        "referenceRange": [
          {
            "low": {
              "value": 1.01,
              "code": "g/mL",
              "system": "http://unitsofmeasure.org"
            }
          },
          {
            "high": {
              "value": 1.03,
              "code": "g/mL",
              "system": "http://unitsofmeasure.org"
            }
          }
        ],
        "interpretation": [
          {
            "coding": [
              {
                "code": "L",
                "system": "http://terminology.hl7.org/CodeSystem/v3-ObservationInterpretation",
                "display": "Low"
              }
            ]
          }
        ],
        "text": {
          "status": "generated",
          "div": "<div xmlns=\"http://www.w3.org/1999/xhtml\"><table class=\"hl7__eu__lab__report\"><tr><th>Test</th><th>31-May-2024</th><th>Reference&#xA0;Range</th><th>Unit</th></tr><tr><td>Specific gravity of Urine by Test strip</td><td>1.0</td><td>1.01 - 1.03</td><td>L</td><td>{nominal}</td></tr></table></div>"
        },
        "status": "final",
        "subject": {
          "reference": "urn:uuid:78765da2-7e6f-4a3d-b585-51217c00ed8d",
          "display": "Victor Lagarde"
        },
        "effectiveDateTime": "2024-05-31T04:48:18Z",
        "specimen": {
          "reference": "urn:uuid:b6c4c66c-7203-4007-9b78-b77cbbd0522d"
        }
      }
    },
    {
      "fullUrl": "urn:uuid:24e1e5ef-ff0f-4428-9a8a-2008b13d4581",
      "resource": {
        "resourceType": "Observation",
        "id": "24e1e5ef-ff0f-4428-9a8a-2008b13d4581",
        "meta": {
          "profile": [
            "http://hl7.eu/fhir/laboratory/StructureDefinition/Observation-resultslab-eu-lab"
          ]
        },
        "performer": [
          {
            "display": "The Central European Lab"
          }
        ],
        "category": [
          {
            "coding": [
              {
                "system": "http://terminology.hl7.org/CodeSystem/observation-category",
                "code": "laboratory"
              }
            ]
          }
        ],
        "code": {
          "coding": [
            {
              "code": "5803-2",
              "system": "http://loinc.org",
              "display": "pH of Urine by Test strip"
            }
          ],
          "text": "pH of Urine by Test strip"
        },
        "valueQuantity": {
          "system": "http://unitsofmeasure.org",
          "value": 5,
          "unit": "pH",
          "code": "pH"
        },
        "referenceRange": [
          {
            "low": {
              "value": 4.5,
              "code": "pH",
              "system": "http://unitsofmeasure.org"
            }
          },
          {
            "high": {
              "value": 7.5,
              "code": "pH",
              "system": "http://unitsofmeasure.org"
            }
          }
        ],
        "text": {
          "status": "generated",
          "div": "<div xmlns=\"http://www.w3.org/1999/xhtml\"><table class=\"hl7__eu__lab__report\"><tr><th>Test</th><th>31-May-2024</th><th>Reference&#xA0;Range</th><th>Unit</th></tr><tr><td>pH of Urine by Test strip</td><td>5.0</td><td>4.5 - 7.5</td><td></td><td>pH</td></tr></table></div>"
        },
        "status": "final",
        "subject": {
          "reference": "urn:uuid:78765da2-7e6f-4a3d-b585-51217c00ed8d",
          "display": "Victor Lagarde"
        },
        "effectiveDateTime": "2024-05-31T04:48:18Z",
        "specimen": {
          "reference": "urn:uuid:b6c4c66c-7203-4007-9b78-b77cbbd0522d"
        }
      }
    },
    {
      "fullUrl": "urn:uuid:aac6f917-b836-40c7-a019-2f64445af796",
      "resource": {
        "resourceType": "Observation",
        "id": "aac6f917-b836-40c7-a019-2f64445af796",
        "meta": {
          "profile": [
            "http://hl7.eu/fhir/laboratory/StructureDefinition/Observation-resultslab-eu-lab"
          ]
        },
        "performer": [
          {
            "display": "The Central European Lab"
          }
        ],
        "category": [
          {
            "coding": [
              {
                "system": "http://terminology.hl7.org/CodeSystem/observation-category",
                "code": "laboratory"
              }
            ]
          }
        ],
        "code": {
          "coding": [
            {
              "code": "5804-0",
              "system": "http://loinc.org",
              "display": "Protein [Mass/volume] in Urine by Test strip"
            }
          ],
          "text": "Protein [Mass/volume] in Urine by Test strip"
        },
        "valueQuantity": {
          "system": "http://unitsofmeasure.org",
          "value": 241.8,
          "unit": "mg/dL",
          "code": "mg/dL"
        },
        "referenceRange": [
          {
            "low": {
              "value": 0,
              "code": "mg/dL",
              "system": "http://unitsofmeasure.org"
            }
          },
          {
            "high": {
              "value": 149,
              "code": "mg/dL",
              "system": "http://unitsofmeasure.org"
            }
          }
        ],
        "interpretation": [
          {
            "coding": [
              {
                "code": "H",
                "system": "http://terminology.hl7.org/CodeSystem/v3-ObservationInterpretation",
                "display": "High"
              }
            ]
          }
        ],
        "text": {
          "status": "generated",
          "div": "<div xmlns=\"http://www.w3.org/1999/xhtml\"><table class=\"hl7__eu__lab__report\"><tr><th>Test</th><th>31-May-2024</th><th>Reference&#xA0;Range</th><th>Unit</th></tr><tr><td>Protein [Mass/volume] in Urine by Test strip</td><td>241.8</td><td>0 - 149</td><td>H</td><td>mg/dL</td></tr></table></div>"
        },
        "status": "final",
        "subject": {
          "reference": "urn:uuid:78765da2-7e6f-4a3d-b585-51217c00ed8d",
          "display": "Victor Lagarde"
        },
        "effectiveDateTime": "2024-05-31T04:48:18Z",
        "specimen": {
          "reference": "urn:uuid:b6c4c66c-7203-4007-9b78-b77cbbd0522d"
        }
      }
    },
    {
      "fullUrl": "urn:uuid:e8c8350a-4437-4792-8fce-2e4085e9d557",
      "resource": {
        "resourceType": "Observation",
        "id": "e8c8350a-4437-4792-8fce-2e4085e9d557",
        "meta": {
          "profile": [
            "http://hl7.eu/fhir/laboratory/StructureDefinition/Observation-resultslab-eu-lab"
          ]
        },
        "performer": [
          {
            "display": "The Central European Lab"
          }
        ],
        "category": [
          {
            "coding": [
              {
                "system": "http://terminology.hl7.org/CodeSystem/observation-category",
                "code": "laboratory"
              }
            ]
          }
        ],
        "code": {
          "coding": [
            {
              "code": "20454-5",
              "system": "http://loinc.org",
              "display": "Protein [Presence] in Urine by Test strip"
            }
          ],
          "text": "Protein [Presence] in Urine by Test strip"
        },
        "text": {
          "status": "generated",
          "div": "<div xmlns=\"http://www.w3.org/1999/xhtml\"><table class=\"hl7__eu__lab__report\"><tr><th>Test</th><th>31-May-2024</th><th>Reference&#xA0;Range</th><th>Unit</th></tr><tr><td>Protein [Presence] in Urine by Test strip</td></tr></table></div>"
        },
        "status": "final",
        "subject": {
          "reference": "urn:uuid:78765da2-7e6f-4a3d-b585-51217c00ed8d",
          "display": "Victor Lagarde"
        },
        "effectiveDateTime": "2024-05-31T04:48:18Z",
        "specimen": {
          "reference": "urn:uuid:b6c4c66c-7203-4007-9b78-b77cbbd0522d"
        }
      }
    },
    {
      "fullUrl": "urn:uuid:68c81a20-8763-46d4-a227-974532d966d2",
      "resource": {
        "resourceType": "Observation",
        "id": "68c81a20-8763-46d4-a227-974532d966d2",
        "meta": {
          "profile": [
            "http://hl7.eu/fhir/laboratory/StructureDefinition/Observation-resultslab-eu-lab"
          ]
        },
        "performer": [
          {
            "display": "The Central European Lab"
          }
        ],
        "category": [
          {
            "coding": [
              {
                "system": "http://terminology.hl7.org/CodeSystem/observation-category",
                "code": "laboratory"
              }
            ]
          }
        ],
        "code": {
          "coding": [
            {
              "code": "5802-4",
              "system": "http://loinc.org",
              "display": "Nitrite [Presence] in Urine by Test strip"
            }
          ],
          "text": "Nitrite [Presence] in Urine by Test strip"
        },
        "text": {
          "status": "generated",
          "div": "<div xmlns=\"http://www.w3.org/1999/xhtml\"><table class=\"hl7__eu__lab__report\"><tr><th>Test</th><th>31-May-2024</th><th>Reference&#xA0;Range</th><th>Unit</th></tr><tr><td>Nitrite [Presence] in Urine by Test strip</td></tr></table></div>"
        },
        "status": "final",
        "subject": {
          "reference": "urn:uuid:78765da2-7e6f-4a3d-b585-51217c00ed8d",
          "display": "Victor Lagarde"
        },
        "effectiveDateTime": "2024-05-31T04:48:18Z",
        "specimen": {
          "reference": "urn:uuid:b6c4c66c-7203-4007-9b78-b77cbbd0522d"
        }
      }
    },
    {
      "fullUrl": "urn:uuid:be662622-6059-4d1b-9c64-b7431bd24bc2",
      "resource": {
        "resourceType": "Observation",
        "id": "be662622-6059-4d1b-9c64-b7431bd24bc2",
        "meta": {
          "profile": [
            "http://hl7.eu/fhir/laboratory/StructureDefinition/Observation-resultslab-eu-lab"
          ]
        },
        "performer": [
          {
            "display": "The Central European Lab"
          }
        ],
        "category": [
          {
            "coding": [
              {
                "system": "http://terminology.hl7.org/CodeSystem/observation-category",
                "code": "laboratory"
              }
            ]
          }
        ],
        "code": {
          "coding": [
            {
              "code": "5794-3",
              "system": "http://loinc.org",
              "display": "Hemoglobin [Presence] in Urine by Test strip"
            }
          ],
          "text": "Hemoglobin [Presence] in Urine by Test strip"
        },
        "text": {
          "status": "generated",
          "div": "<div xmlns=\"http://www.w3.org/1999/xhtml\"><table class=\"hl7__eu__lab__report\"><tr><th>Test</th><th>31-May-2024</th><th>Reference&#xA0;Range</th><th>Unit</th></tr><tr><td>Hemoglobin [Presence] in Urine by Test strip</td></tr></table></div>"
        },
        "status": "final",
        "subject": {
          "reference": "urn:uuid:78765da2-7e6f-4a3d-b585-51217c00ed8d",
          "display": "Victor Lagarde"
        },
        "effectiveDateTime": "2024-05-31T04:48:18Z",
        "specimen": {
          "reference": "urn:uuid:b6c4c66c-7203-4007-9b78-b77cbbd0522d"
        }
      }
    },
    {
      "fullUrl": "urn:uuid:97aae0e5-bed8-4dfe-82bd-7ca46f8f00fd",
      "resource": {
        "resourceType": "Observation",
        "id": "97aae0e5-bed8-4dfe-82bd-7ca46f8f00fd",
        "meta": {
          "profile": [
            "http://hl7.eu/fhir/laboratory/StructureDefinition/Observation-resultslab-eu-lab"
          ]
        },
        "performer": [
          {
            "display": "The Central European Lab"
          }
        ],
        "category": [
          {
            "coding": [
              {
                "system": "http://terminology.hl7.org/CodeSystem/observation-category",
                "code": "laboratory"
              }
            ]
          }
        ],
        "code": {
          "coding": [
            {
              "code": "5799-2",
              "system": "http://loinc.org",
              "display": "Leukocyte esterase [Presence] in Urine by Test strip"
            }
          ],
          "text": "Leukocyte esterase [Presence] in Urine by Test strip"
        },
        "text": {
          "status": "generated",
          "div": "<div xmlns=\"http://www.w3.org/1999/xhtml\"><table class=\"hl7__eu__lab__report\"><tr><th>Test</th><th>31-May-2024</th><th>Reference&#xA0;Range</th><th>Unit</th></tr><tr><td>Leukocyte esterase [Presence] in Urine by Test strip</td></tr></table></div>"
        },
        "status": "final",
        "subject": {
          "reference": "urn:uuid:78765da2-7e6f-4a3d-b585-51217c00ed8d",
          "display": "Victor Lagarde"
        },
        "effectiveDateTime": "2024-05-31T04:48:18Z",
        "specimen": {
          "reference": "urn:uuid:b6c4c66c-7203-4007-9b78-b77cbbd0522d"
        }
      }
    },
    {
      "fullUrl": "urn:uuid:0ed77803-1ed6-4132-8125-87d2855d75f7",
      "resource": {
        "resourceType": "Observation",
        "id": "0ed77803-1ed6-4132-8125-87d2855d75f7",
        "meta": {
          "profile": [
            "http://hl7.eu/fhir/laboratory/StructureDefinition/Observation-resultslab-eu-lab"
          ]
        },
        "performer": [
          {
            "display": "The Central European Lab"
          }
        ],
        "category": [
          {
            "coding": [
              {
                "system": "http://terminology.hl7.org/CodeSystem/observation-category",
                "code": "laboratory"
              }
            ]
          }
        ],
        "code": {
          "coding": [
            {
              "code": "4548-4",
              "system": "http://loinc.org",
              "display": "Hemoglobin A1c/Hemoglobin.total in Blood"
            }
          ],
          "text": "Hemoglobin A1c/Hemoglobin.total in Blood"
        },
        "valueQuantity": {
          "system": "http://unitsofmeasure.org",
          "value": 2.9,
          "unit": "%",
          "code": "%"
        },
        "referenceRange": [
          {
            "low": {
              "value": 4.3,
              "code": "%",
              "system": "http://unitsofmeasure.org"
            }
          },
          {
            "high": {
              "value": 6,
              "code": "%",
              "system": "http://unitsofmeasure.org"
            }
          }
        ],
        "interpretation": [
          {
            "coding": [
              {
                "code": "L",
                "system": "http://terminology.hl7.org/CodeSystem/v3-ObservationInterpretation",
                "display": "Low"
              }
            ]
          }
        ],
        "text": {
          "status": "generated",
          "div": "<div xmlns=\"http://www.w3.org/1999/xhtml\"><table class=\"hl7__eu__lab__report\"><tr><th>Test</th><th>31-May-2024</th><th>Reference&#xA0;Range</th><th>Unit</th></tr><tr><td>Hemoglobin A1c/Hemoglobin.total in Blood</td><td>2.9</td><td>4.3 - 6</td><td>L</td><td>%</td></tr></table></div>"
        },
        "status": "final",
        "subject": {
          "reference": "urn:uuid:78765da2-7e6f-4a3d-b585-51217c00ed8d",
          "display": "Victor Lagarde"
        },
        "effectiveDateTime": "2024-05-31T04:48:18Z",
        "specimen": {
          "reference": "urn:uuid:61aab3d0-dae6-4f0e-a1c2-a43651559627"
        }
      }
    },
    {
      "fullUrl": "urn:uuid:163a5d3a-cfa5-4b51-ae87-45a84396647e",
      "resource": {
        "resourceType": "Observation",
        "id": "163a5d3a-cfa5-4b51-ae87-45a84396647e",
        "meta": {
          "profile": [
            "http://hl7.eu/fhir/laboratory/StructureDefinition/Observation-resultslab-eu-lab"
          ]
        },
        "performer": [
          {
            "display": "The Central European Lab"
          }
        ],
        "category": [
          {
            "coding": [
              {
                "system": "http://terminology.hl7.org/CodeSystem/observation-category",
                "code": "laboratory"
              }
            ]
          }
        ],
        "code": {
          "coding": [
            {
              "code": "2339-0",
              "system": "http://loinc.org",
              "display": "Glucose [Mass/volume] in Blood"
            }
          ],
          "text": "Glucose [Mass/volume] in Blood"
        },
        "valueQuantity": {
          "system": "http://unitsofmeasure.org",
          "value": 78.2,
          "unit": "mg/dL",
          "code": "mg/dL"
        },
        "referenceRange": [
          {
            "low": {
              "value": 70,
              "code": "mg/dL",
              "system": "http://unitsofmeasure.org"
            }
          },
          {
            "high": {
              "value": 140,
              "code": "mg/dL",
              "system": "http://unitsofmeasure.org"
            }
          }
        ],
        "text": {
          "status": "generated",
          "div": "<div xmlns=\"http://www.w3.org/1999/xhtml\"><table class=\"hl7__eu__lab__report\"><tr><th>Test</th><th>31-May-2024</th><th>Reference&#xA0;Range</th><th>Unit</th></tr><tr><td>Glucose [Mass/volume] in Blood</td><td>78.2</td><td>70 - 140</td><td></td><td>mg/dL</td></tr></table></div>"
        },
        "status": "final",
        "subject": {
          "reference": "urn:uuid:78765da2-7e6f-4a3d-b585-51217c00ed8d",
          "display": "Victor Lagarde"
        },
        "effectiveDateTime": "2024-05-31T04:48:18Z",
        "specimen": {
          "reference": "urn:uuid:61aab3d0-dae6-4f0e-a1c2-a43651559627"
        }
      }
    },
    {
      "fullUrl": "urn:uuid:a41c5112-95b2-4766-a499-891812406b51",
      "resource": {
        "resourceType": "Observation",
        "id": "a41c5112-95b2-4766-a499-891812406b51",
        "meta": {
          "profile": [
            "http://hl7.eu/fhir/laboratory/StructureDefinition/Observation-resultslab-eu-lab"
          ]
        },
        "performer": [
          {
            "display": "The Central European Lab"
          }
        ],
        "category": [
          {
            "coding": [
              {
                "system": "http://terminology.hl7.org/CodeSystem/observation-category",
                "code": "laboratory"
              }
            ]
          }
        ],
        "code": {
          "coding": [
            {
              "code": "6299-2",
              "system": "http://loinc.org",
              "display": "Urea nitrogen [Mass/volume] in Blood"
            }
          ],
          "text": "Urea nitrogen [Mass/volume] in Blood"
        },
        "valueQuantity": {
          "system": "http://unitsofmeasure.org",
          "value": 14.2,
          "unit": "mg/dL",
          "code": "mg/dL"
        },
        "referenceRange": [
          {
            "low": {
              "value": 7,
              "code": "mg/dL",
              "system": "http://unitsofmeasure.org"
            }
          },
          {
            "high": {
              "value": 20,
              "code": "mg/dL",
              "system": "http://unitsofmeasure.org"
            }
          }
        ],
        "text": {
          "status": "generated",
          "div": "<div xmlns=\"http://www.w3.org/1999/xhtml\"><table class=\"hl7__eu__lab__report\"><tr><th>Test</th><th>31-May-2024</th><th>Reference&#xA0;Range</th><th>Unit</th></tr><tr><td>Urea nitrogen [Mass/volume] in Blood</td><td>14.2</td><td>7 - 20</td><td></td><td>mg/dL</td></tr></table></div>"
        },
        "status": "final",
        "subject": {
          "reference": "urn:uuid:78765da2-7e6f-4a3d-b585-51217c00ed8d",
          "display": "Victor Lagarde"
        },
        "effectiveDateTime": "2024-05-31T04:48:18Z",
        "specimen": {
          "reference": "urn:uuid:61aab3d0-dae6-4f0e-a1c2-a43651559627"
        }
      }
    },
    {
      "fullUrl": "urn:uuid:d8c1c3dc-6e46-4fa0-80f3-74883e1cb6b9",
      "resource": {
        "resourceType": "Observation",
        "id": "d8c1c3dc-6e46-4fa0-80f3-74883e1cb6b9",
        "meta": {
          "profile": [
            "http://hl7.eu/fhir/laboratory/StructureDefinition/Observation-resultslab-eu-lab"
          ]
        },
        "performer": [
          {
            "display": "The Central European Lab"
          }
        ],
        "category": [
          {
            "coding": [
              {
                "system": "http://terminology.hl7.org/CodeSystem/observation-category",
                "code": "laboratory"
              }
            ]
          }
        ],
        "code": {
          "coding": [
            {
              "code": "38483-4",
              "system": "http://loinc.org",
              "display": "Creatinine [Mass/volume] in Blood"
            }
          ],
          "text": "Creatinine [Mass/volume] in Blood"
        },
        "valueQuantity": {
          "system": "http://unitsofmeasure.org",
          "value": 4.4,
          "unit": "mg/dL",
          "code": "mg/dL"
        },
        "referenceRange": [
          {
            "low": {
              "value": 0.9,
              "code": "mg/dL",
              "system": "http://unitsofmeasure.org"
            }
          },
          {
            "high": {
              "value": 1.3,
              "code": "mg/dL",
              "system": "http://unitsofmeasure.org"
            }
          }
        ],
        "interpretation": [
          {
            "coding": [
              {
                "code": "H",
                "system": "http://terminology.hl7.org/CodeSystem/v3-ObservationInterpretation",
                "display": "High"
              }
            ]
          }
        ],
        "text": {
          "status": "generated",
          "div": "<div xmlns=\"http://www.w3.org/1999/xhtml\"><table class=\"hl7__eu__lab__report\"><tr><th>Test</th><th>31-May-2024</th><th>Reference&#xA0;Range</th><th>Unit</th></tr><tr><td>Creatinine [Mass/volume] in Blood</td><td>4.4</td><td>0.9 - 1.3</td><td>H</td><td>mg/dL</td></tr></table></div>"
        },
        "status": "final",
        "subject": {
          "reference": "urn:uuid:78765da2-7e6f-4a3d-b585-51217c00ed8d",
          "display": "Victor Lagarde"
        },
        "effectiveDateTime": "2024-05-31T04:48:18Z",
        "specimen": {
          "reference": "urn:uuid:61aab3d0-dae6-4f0e-a1c2-a43651559627"
        }
      }
    },
    {
      "fullUrl": "urn:uuid:10756547-29d6-4d0e-b782-2776f5b405b6",
      "resource": {
        "resourceType": "Observation",
        "id": "10756547-29d6-4d0e-b782-2776f5b405b6",
        "meta": {
          "profile": [
            "http://hl7.eu/fhir/laboratory/StructureDefinition/Observation-resultslab-eu-lab"
          ]
        },
        "performer": [
          {
            "display": "The Central European Lab"
          }
        ],
        "category": [
          {
            "coding": [
              {
                "system": "http://terminology.hl7.org/CodeSystem/observation-category",
                "code": "laboratory"
              }
            ]
          }
        ],
        "code": {
          "coding": [
            {
              "code": "49765-1",
              "system": "http://loinc.org",
              "display": "Calcium [Mass/volume] in Blood"
            }
          ],
          "text": "Calcium [Mass/volume] in Blood"
        },
        "valueQuantity": {
          "system": "http://unitsofmeasure.org",
          "value": 8.7,
          "unit": "mg/dL",
          "code": "mg/dL"
        },
        "referenceRange": [
          {
            "low": {
              "value": 8.5,
              "code": "mg/dL",
              "system": "http://unitsofmeasure.org"
            }
          },
          {
            "high": {
              "value": 10.5,
              "code": "mg/dL",
              "system": "http://unitsofmeasure.org"
            }
          }
        ],
        "text": {
          "status": "generated",
          "div": "<div xmlns=\"http://www.w3.org/1999/xhtml\"><table class=\"hl7__eu__lab__report\"><tr><th>Test</th><th>31-May-2024</th><th>Reference&#xA0;Range</th><th>Unit</th></tr><tr><td>Calcium [Mass/volume] in Blood</td><td>8.7</td><td>8.5 - 10.5</td><td></td><td>mg/dL</td></tr></table></div>"
        },
        "status": "final",
        "subject": {
          "reference": "urn:uuid:78765da2-7e6f-4a3d-b585-51217c00ed8d",
          "display": "Victor Lagarde"
        },
        "effectiveDateTime": "2024-05-31T04:48:18Z",
        "specimen": {
          "reference": "urn:uuid:61aab3d0-dae6-4f0e-a1c2-a43651559627"
        }
      }
    },
    {
      "fullUrl": "urn:uuid:9ce93007-df95-40be-ba8e-b6ae2133242c",
      "resource": {
        "resourceType": "Observation",
        "id": "9ce93007-df95-40be-ba8e-b6ae2133242c",
        "meta": {
          "profile": [
            "http://hl7.eu/fhir/laboratory/StructureDefinition/Observation-resultslab-eu-lab"
          ]
        },
        "performer": [
          {
            "display": "The Central European Lab"
          }
        ],
        "category": [
          {
            "coding": [
              {
                "system": "http://terminology.hl7.org/CodeSystem/observation-category",
                "code": "laboratory"
              }
            ]
          }
        ],
        "code": {
          "coding": [
            {
              "code": "2947-0",
              "system": "http://loinc.org",
              "display": "Sodium [Moles/volume] in Blood"
            }
          ],
          "text": "Sodium [Moles/volume] in Blood"
        },
        "valueQuantity": {
          "system": "http://unitsofmeasure.org",
          "value": 137.9,
          "unit": "mmol/L",
          "code": "mmol/L"
        },
        "referenceRange": [
          {
            "low": {
              "value": 135,
              "code": "mmol/L",
              "system": "http://unitsofmeasure.org"
            }
          },
          {
            "high": {
              "value": 145,
              "code": "mmol/L",
              "system": "http://unitsofmeasure.org"
            }
          }
        ],
        "text": {
          "status": "generated",
          "div": "<div xmlns=\"http://www.w3.org/1999/xhtml\"><table class=\"hl7__eu__lab__report\"><tr><th>Test</th><th>31-May-2024</th><th>Reference&#xA0;Range</th><th>Unit</th></tr><tr><td>Sodium [Moles/volume] in Blood</td><td>137.9</td><td>135 - 145</td><td></td><td>mmol/L</td></tr></table></div>"
        },
        "status": "final",
        "subject": {
          "reference": "urn:uuid:78765da2-7e6f-4a3d-b585-51217c00ed8d",
          "display": "Victor Lagarde"
        },
        "effectiveDateTime": "2024-05-31T04:48:18Z",
        "specimen": {
          "reference": "urn:uuid:61aab3d0-dae6-4f0e-a1c2-a43651559627"
        }
      }
    },
    {
      "fullUrl": "urn:uuid:272fa90f-2dc6-4792-97d2-3aa18be025be",
      "resource": {
        "resourceType": "Observation",
        "id": "272fa90f-2dc6-4792-97d2-3aa18be025be",
        "meta": {
          "profile": [
            "http://hl7.eu/fhir/laboratory/StructureDefinition/Observation-resultslab-eu-lab"
          ]
        },
        "performer": [
          {
            "display": "The Central European Lab"
          }
        ],
        "category": [
          {
            "coding": [
              {
                "system": "http://terminology.hl7.org/CodeSystem/observation-category",
                "code": "laboratory"
              }
            ]
          }
        ],
        "code": {
          "coding": [
            {
              "code": "6298-4",
              "system": "http://loinc.org",
              "display": "Potassium [Moles/volume] in Blood"
            }
          ],
          "text": "Potassium [Moles/volume] in Blood"
        },
        "valueQuantity": {
          "system": "http://unitsofmeasure.org",
          "value": 4.9,
          "unit": "mmol/L",
          "code": "mmol/L"
        },
        "referenceRange": [
          {
            "low": {
              "value": 3.5,
              "code": "mmol/L",
              "system": "http://unitsofmeasure.org"
            }
          },
          {
            "high": {
              "value": 5.1,
              "code": "mmol/L",
              "system": "http://unitsofmeasure.org"
            }
          }
        ],
        "text": {
          "status": "generated",
          "div": "<div xmlns=\"http://www.w3.org/1999/xhtml\"><table class=\"hl7__eu__lab__report\"><tr><th>Test</th><th>31-May-2024</th><th>Reference&#xA0;Range</th><th>Unit</th></tr><tr><td>Potassium [Moles/volume] in Blood</td><td>4.9</td><td>3.5 - 5.1</td><td></td><td>mmol/L</td></tr></table></div>"
        },
        "status": "final",
        "subject": {
          "reference": "urn:uuid:78765da2-7e6f-4a3d-b585-51217c00ed8d",
          "display": "Victor Lagarde"
        },
        "effectiveDateTime": "2024-05-31T04:48:18Z",
        "specimen": {
          "reference": "urn:uuid:61aab3d0-dae6-4f0e-a1c2-a43651559627"
        }
      }
    },
    {
      "fullUrl": "urn:uuid:3a7dc7b2-4a43-491e-8a86-e9c05ef80c6a",
      "resource": {
        "resourceType": "Observation",
        "id": "3a7dc7b2-4a43-491e-8a86-e9c05ef80c6a",
        "meta": {
          "profile": [
            "http://hl7.eu/fhir/laboratory/StructureDefinition/Observation-resultslab-eu-lab"
          ]
        },
        "performer": [
          {
            "display": "The Central European Lab"
          }
        ],
        "category": [
          {
            "coding": [
              {
                "system": "http://terminology.hl7.org/CodeSystem/observation-category",
                "code": "laboratory"
              }
            ]
          }
        ],
        "code": {
          "coding": [
            {
              "code": "2069-3",
              "system": "http://loinc.org",
              "display": "Chloride [Moles/volume] in Blood"
            }
          ],
          "text": "Chloride [Moles/volume] in Blood"
        },
        "valueQuantity": {
          "system": "http://unitsofmeasure.org",
          "value": 104.7,
          "unit": "mmol/L",
          "code": "mmol/L"
        },
        "referenceRange": [
          {
            "low": {
              "value": 98,
              "code": "mmol/L",
              "system": "http://unitsofmeasure.org"
            }
          },
          {
            "high": {
              "value": 108,
              "code": "mmol/L",
              "system": "http://unitsofmeasure.org"
            }
          }
        ],
        "text": {
          "status": "generated",
          "div": "<div xmlns=\"http://www.w3.org/1999/xhtml\"><table class=\"hl7__eu__lab__report\"><tr><th>Test</th><th>31-May-2024</th><th>Reference&#xA0;Range</th><th>Unit</th></tr><tr><td>Chloride [Moles/volume] in Blood</td><td>104.7</td><td>98 - 108</td><td></td><td>mmol/L</td></tr></table></div>"
        },
        "status": "final",
        "subject": {
          "reference": "urn:uuid:78765da2-7e6f-4a3d-b585-51217c00ed8d",
          "display": "Victor Lagarde"
        },
        "effectiveDateTime": "2024-05-31T04:48:18Z",
        "specimen": {
          "reference": "urn:uuid:61aab3d0-dae6-4f0e-a1c2-a43651559627"
        }
      }
    },
    {
      "fullUrl": "urn:uuid:4fc83e89-7d18-40e6-a27b-5cc320f5c661",
      "resource": {
        "resourceType": "Observation",
        "id": "4fc83e89-7d18-40e6-a27b-5cc320f5c661",
        "meta": {
          "profile": [
            "http://hl7.eu/fhir/laboratory/StructureDefinition/Observation-resultslab-eu-lab"
          ]
        },
        "performer": [
          {
            "display": "The Central European Lab"
          }
        ],
        "category": [
          {
            "coding": [
              {
                "system": "http://terminology.hl7.org/CodeSystem/observation-category",
                "code": "laboratory"
              }
            ]
          }
        ],
        "code": {
          "coding": [
            {
              "code": "20565-8",
              "system": "http://loinc.org",
              "display": "Carbon dioxide, total [Moles/volume] in Blood"
            }
          ],
          "text": "Carbon dioxide, total [Moles/volume] in Blood"
        },
        "valueQuantity": {
          "system": "http://unitsofmeasure.org",
          "value": 25,
          "unit": "mmol/L",
          "code": "mmol/L"
        },
        "referenceRange": [
          {
            "low": {
              "value": 22,
              "code": "mmol/L",
              "system": "http://unitsofmeasure.org"
            }
          },
          {
            "high": {
              "value": 29,
              "code": "mmol/L",
              "system": "http://unitsofmeasure.org"
            }
          }
        ],
        "text": {
          "status": "generated",
          "div": "<div xmlns=\"http://www.w3.org/1999/xhtml\"><table class=\"hl7__eu__lab__report\"><tr><th>Test</th><th>31-May-2024</th><th>Reference&#xA0;Range</th><th>Unit</th></tr><tr><td>Carbon dioxide, total [Moles/volume] in Blood</td><td>25.0</td><td>22 - 29</td><td></td><td>mmol/L</td></tr></table></div>"
        },
        "status": "final",
        "subject": {
          "reference": "urn:uuid:78765da2-7e6f-4a3d-b585-51217c00ed8d",
          "display": "Victor Lagarde"
        },
        "effectiveDateTime": "2024-05-31T04:48:18Z",
        "specimen": {
          "reference": "urn:uuid:61aab3d0-dae6-4f0e-a1c2-a43651559627"
        }
      }
    },
    {
      "fullUrl": "urn:uuid:15953ef5-ecc2-49b0-bc6b-d413fbbe5d0a",
      "resource": {
        "resourceType": "Device",
        "id": "15953ef5-ecc2-49b0-bc6b-d413fbbe5d0a",
        "deviceName": [
          {
            "name": "SYNDERAI Synthetic Generator",
            "type": "manufacturer-name"
          }
        ],
        "version": [
          {
            "value": "5.0"
          }
        ],
        "text": {
          "status": "generated",
          "div": "<div xmlns=\"http://www.w3.org/1999/xhtml\">SYNDERAI Synthetic Generator v5.0</div>"
        },
        "status": "active\"",
        "distinctIdentifier": "synderai-generator-50",
        "manufacturer": "SYNDERAI Project"
      }
    },
    {
      "fullUrl": "urn:uuid:b552c34e-f3e0-4c48-8335-d270ed955292",
      "resource": {
        "resourceType": "Provenance",
        "id": "b552c34e-f3e0-4c48-8335-d270ed955292",
        "target": [
          {
            "reference": "Patient/78765da2-7e6f-4a3d-b585-51217c00ed8d"
          },
          {
            "reference": "Bundle/22ca8318-1106-4a9e-b013-9a60f66d8b70"
          },
          {
            "reference": "Composition/ede12e22-3c74-45f5-a988-38ebcc01b9e3"
          },
          {
            "reference": "PractitionerRole/652e74a6-b758-49ba-99b6-109f50d81a50"
          },
          {
            "reference": "Practitioner/23c90cda-5607-46a4-892d-2827160c982f"
          },
          {
            "reference": "PractitionerRole/a08311a8-e666-4853-9d8b-bca3d5a5ab72"
          },
          {
            "reference": "Organization/48b1a4a7-1c71-4b2f-88df-e07cb3ee0dd8"
          }
        ],
        "activity": {
          "text": "Synthetic Example Data Generation"
        },
        "policy": [
          "https://synderai.net/synderai-synthetic-data-policy"
        ],
        "agent": [
          {
            "type": {
              "text": "author"
            },
            "who": {
              "reference": "Device/15953ef5-ecc2-49b0-bc6b-d413fbbe5d0a"
            }
          }
        ],
        "reason": [
          {
            "text": "Interoperability Testing and Training (non-clinical use)"
          }
        ],
        "text": {
          "status": "generated",
          "div": "<div xmlns=\"http://www.w3.org/1999/xhtml\">Provenance for SYNDERAI Synthetic Example Data Resource</div>"
        },
        "recorded": "2024-05-31T06:48:18Z"
      }
    },
    {
      "fullUrl": "urn:uuid:652e74a6-b758-49ba-99b6-109f50d81a50",
      "resource": {
        "resourceType": "PractitionerRole",
        "id": "652e74a6-b758-49ba-99b6-109f50d81a50",
        "meta": {
          "profile": [
            "http://hl7.eu/fhir/base/StructureDefinition/practitionerRole-eu"
          ]
        },
        "text": {
          "status": "generated",
          "div": "<div xmlns=\"http://www.w3.org/1999/xhtml\">Laboratory Role Id: 652e74a6-b758-49ba-99b6-109f50d81a50</div>"
        },
        "practitioner": {
          "reference": "urn:uuid:23c90cda-5607-46a4-892d-2827160c982f"
        }
      }
    },
    {
      "fullUrl": "urn:uuid:23c90cda-5607-46a4-892d-2827160c982f",
      "resource": {
        "resourceType": "Practitioner",
        "id": "23c90cda-5607-46a4-892d-2827160c982f",
        "meta": {
          "profile": [
            "http://hl7.eu/fhir/base/StructureDefinition/practitioner-eu"
          ]
        },
        "identifier": [
          {
            "assigner": {
              "display": "HL7 Europe"
            },
            "system": "urn:oid:2.16.840.1.113883.2.51.999",
            "value": "217b1893-f6a4-42a8-a209-16d4fa089a53"
          }
        ],
        "name": [
          {
            "prefix": [
              "dr"
            ],
            "given": [
              "Ex"
            ],
            "family": "Ample"
          }
        ],
        "address": [
          {
            "line": [
              "Laboratoire Central Européenne",
              "Boulevard du Jardin Botanique 32"
            ],
            "postalCode": "1000",
            "city": "Brussels",
            "country": "Belgium"
          }
        ],
        "text": {
          "status": "generated",
          "div": "<div xmlns=\"http://www.w3.org/1999/xhtml\">Laboratory: Laboratoire Central Européenne, 1000 Brussels, Belgium</div>"
        }
      }
    }
  ],
  "type": "document",
  "timestamp": "2024-05-31T06:48:18Z"
}
