{
  "resourceType": "Bundle",
  "id": "d1cf1590-bd7a-445b-a4b1-c55dda98103b",
  "meta": {
    "profile": [
      "http://hl7.eu/fhir/laboratory/StructureDefinition/Bundle-eu-lab"
    ]
  },
  "identifier": {
    "assigner": {
      "display": "HL7 Europe"
    },
    "system": "urn:oid:2.16.840.1.113883.2.51.999",
    "value": "e0df9185-b200-4ae7-9c3e-cc8a28b61876"
  },
  "entry": [
    {
      "fullUrl": "urn:uuid:6cf1d4c2-69bd-420d-904c-6e07b31a3b09",
      "resource": {
        "resourceType": "Composition",
        "id": "6cf1d4c2-69bd-420d-904c-6e07b31a3b09",
        "meta": {
          "profile": [
            "http://hl7.eu/fhir/laboratory/StructureDefinition/Composition-eu-lab"
          ]
        },
        "identifier": {
          "assigner": {
            "display": "HL7 Europe"
          },
          "system": "urn:oid:2.16.840.1.113883.2.51.999",
          "value": "c42be8f5-5c04-430e-ab73-ad1ba69d3fb1"
        },
        "author": [
          {
            "reference": "urn:uuid:09cdc6ac-daa7-4872-8dde-ce179a12b2ce"
          }
        ],
        "category": [
          {
            "coding": [
              {
                "code": "26436-6",
                "system": "http://loinc.org",
                "display": "Laboratory studies (set)"
              }
            ]
          }
        ],
        "type": {
          "coding": [
            {
              "code": "11502-2",
              "system": "http://loinc.org",
              "display": "Laboratory report"
            }
          ],
          "text": "Laboratory Report"
        },
        "section": [
          {
            "code": {
              "coding": [
                {
                  "code": "26436-6",
                  "system": "http://loinc.org",
                  "display": "Laboratory studies (set)"
                }
              ],
              "text": "Laboratory studies"
            },
            "section": [
              {
                "code": {
                  "coding": [
                    {
                      "code": "$18719-5",
                      "system": "http://loinc.org",
                      "display": "Chemistry studies (set)"
                    }
                  ],
                  "text": "Chemistry"
                },
                "entry": [
                  {
                    "reference": "urn:uuid:d38ebde8-9702-45b4-a6ad-b540b1363cf7"
                  },
                  {
                    "reference": "urn:uuid:5615baac-58d4-4b72-b6fe-e07f398e4181"
                  },
                  {
                    "reference": "urn:uuid:099ff532-1f7c-4eb7-b8a6-e7204cde3396"
                  },
                  {
                    "reference": "urn:uuid:735beddf-0a4d-42eb-8761-0a89bf39e36b"
                  },
                  {
                    "reference": "urn:uuid:2a66b938-f906-4db5-bca2-deca83975fef"
                  },
                  {
                    "reference": "urn:uuid:233f5775-5338-48ca-aa3c-0d7e6de66240"
                  },
                  {
                    "reference": "urn:uuid:ddfa5f1b-b8f2-4b01-8f07-07fc7432e165"
                  },
                  {
                    "reference": "urn:uuid:11858164-9295-4dec-b6a2-01ea0ae1d3a6"
                  },
                  {
                    "reference": "urn:uuid:93490038-dcb9-42d0-9c96-686c97f7b592"
                  },
                  {
                    "reference": "urn:uuid:d97ec35e-c2c8-4318-b24a-23d4e886b10b"
                  },
                  {
                    "reference": "urn:uuid:45be45f9-505b-4e8d-bc24-102fe9d13bb9"
                  },
                  {
                    "reference": "urn:uuid:0468dccb-ac95-462f-8330-af6c09dc7756"
                  },
                  {
                    "reference": "urn:uuid:c8ff8500-845f-4582-b276-9aa44adf0329"
                  },
                  {
                    "reference": "urn:uuid:ccb71b81-a78b-43b2-b57b-32101de13545"
                  },
                  {
                    "reference": "urn:uuid:3ad1f4be-4f6e-44b6-b388-80cf2af886c8"
                  },
                  {
                    "reference": "urn:uuid:2ffafb4a-5bd3-4769-bd79-07cc689e56c9"
                  },
                  {
                    "reference": "urn:uuid:7a6898a8-adc4-4690-9ad1-de9be95e4178"
                  },
                  {
                    "reference": "urn:uuid:49b3f1ca-b3eb-4f2d-9f31-f0496cbae68f"
                  },
                  {
                    "reference": "urn:uuid:109d2adb-cedd-49d9-8c39-6c0bd72d7d94"
                  },
                  {
                    "reference": "urn:uuid:db59b950-54ee-4799-8985-202f0a78633e"
                  },
                  {
                    "reference": "urn:uuid:20805dc0-fbde-4c9d-bc8f-83c2965ee292"
                  },
                  {
                    "reference": "urn:uuid:b77e1614-df93-42a3-a13a-09d65478ac71"
                  }
                ],
                "text": {
                  "status": "generated",
                  "div": "<div xmlns=\"http://www.w3.org/1999/xhtml\"><h3>Chemistry</h3><table class=\"hl7__eu__lab__report\"><thead><tr><th>Test</th><th>28-FEB-2019</th><th>Reference&#xA0;Range</th><th>Unit</th></tr></thead><tbody><tr><td>Glucose [Mass/volume] in Serum or Plasma</td><td>91.2</td><td>70 - 140</td><td>mg/dL</td></tr><tr><td>Urea nitrogen [Mass/volume] in Serum or Plasma</td><td>11.3</td><td>7 - 25</td><td>mg/dL</td></tr><tr><td>Creatinine [Mass/volume] in Serum or Plasma</td><td><strong>1.7 H</strong></td><td>0.9 - 1.3</td><td>mg/dL</td></tr><tr><td>Calcium [Mass/volume] in Serum or Plasma</td><td>9.1</td><td>8.5 - 10.5</td><td>mg/dL</td></tr><tr><td>Sodium [Moles/volume] in Serum or Plasma</td><td>137.2</td><td>135 - 145</td><td>mmol/L</td></tr><tr><td>Potassium [Moles/volume] in Serum or Plasma</td><td>5.0</td><td>3.5 - 5.3</td><td>mmol/L</td></tr><tr><td>Chloride [Moles/volume] in Serum or Plasma</td><td><strong>108.8 H</strong></td><td>98 - 107</td><td>mmol/L</td></tr><tr><td>Carbon dioxide, total [Moles/volume] in Serum or Plasma</td><td><strong>20.6 L</strong></td><td>22 - 29</td><td>mmol/L</td></tr><tr><td>Ketones [Presence] in Urine by Test strip</td><td>Urine ketone test = trace</td><td></td><td></td></tr><tr><td>Hemoglobin A1c/Hemoglobin.total in Blood</td><td><strong>3.2 L</strong></td><td>4.5 - 6.4</td><td>%</td></tr><tr><td>Glucose [Mass/volume] in Blood</td><td>91.2</td><td>70 - 140</td><td>mg/dL</td></tr><tr><td>Urea nitrogen [Mass/volume] in Blood</td><td>11.3</td><td>7 - 25</td><td>mg/dL</td></tr><tr><td>Creatinine [Mass/volume] in Blood</td><td>1.1</td><td>0.9 - 1.3</td><td>mg/dL</td></tr><tr><td>Calcium [Mass/volume] in Blood</td><td>9.1</td><td>8.6 - 10.2</td><td>mg/dL</td></tr><tr><td>Sodium [Moles/volume] in Blood</td><td>137.2</td><td>135 - 145</td><td>mmol/L</td></tr><tr><td>Potassium [Moles/volume] in Blood</td><td>5.0</td><td>3.5 - 5.1</td><td>mmol/L</td></tr><tr><td>Chloride [Moles/volume] in Blood</td><td><strong>108.8 H</strong></td><td>98 - 108</td><td>mmol/L</td></tr><tr><td>Carbon dioxide, total [Moles/volume] in Blood</td><td><strong>20.6 L</strong></td><td>22 - 32</td><td>mmol/L</td></tr><tr><td>Cholesterol [Mass/volume] in Serum or Plasma</td><td>132.6</td><td>0 - 200</td><td>mg/dL</td></tr><tr><td>Triglyceride [Mass/volume] in Serum or Plasma</td><td>100.6</td><td>0 - 199</td><td>mg/dL</td></tr><tr><td>Cholesterol in LDL [Mass/volume] in Serum or Plasma by Direct assay</td><td>54.9</td><td>0 - 130</td><td>mg/dL</td></tr><tr><td>Cholesterol in HDL [Mass/volume] in Serum or Plasma</td><td>57.5</td><td>40 - 65</td><td>mg/dL</td></tr></tbody></table></div>"
                },
                "title": "Chemistry"
              },
              {
                "code": {
                  "coding": [
                    {
                      "code": "$18729-4",
                      "system": "http://loinc.org",
                      "display": "Urinalysis studies (set)"
                    }
                  ],
                  "text": "Urinalysis"
                },
                "entry": [
                  {
                    "reference": "urn:uuid:1d973537-3527-4012-9034-1ce68b502601"
                  },
                  {
                    "reference": "urn:uuid:5f0fce35-8dce-43cd-b92b-94ae8d5cbe95"
                  },
                  {
                    "reference": "urn:uuid:f3eef355-50ee-41b5-adc9-140dd40a3cbb"
                  },
                  {
                    "reference": "urn:uuid:37b009dc-cfb1-4250-95f7-a7a6b2e28971"
                  },
                  {
                    "reference": "urn:uuid:839c43bf-0cb6-4007-afc6-e36b9fb7e923"
                  },
                  {
                    "reference": "urn:uuid:2d1bc94d-a1e0-4849-ba1c-a60f63d312e7"
                  },
                  {
                    "reference": "urn:uuid:0ed2c0db-56f3-428b-babd-4fae92a905e5"
                  },
                  {
                    "reference": "urn:uuid:5e62952a-6c59-4e4f-a5a9-f8ff4ef6b505"
                  },
                  {
                    "reference": "urn:uuid:83bfd927-d569-4f21-bc1c-65b5f4713343"
                  },
                  {
                    "reference": "urn:uuid:318b87e3-8361-406d-82fa-cc733106f341"
                  },
                  {
                    "reference": "urn:uuid:af162fda-6b50-4b42-8373-e88c57929b56"
                  },
                  {
                    "reference": "urn:uuid:2b6fdf74-5c6b-45db-9eb7-a3bfdef37efe"
                  }
                ],
                "text": {
                  "status": "generated",
                  "div": "<div xmlns=\"http://www.w3.org/1999/xhtml\"><h3>Urinalysis</h3><table class=\"hl7__eu__lab__report\"><thead><tr><th>Test</th><th>28-FEB-2019</th><th>Reference&#xA0;Range</th><th>Unit</th></tr></thead><tbody><tr><td>Glucose [Mass/volume] in Urine by Test strip</td><td><strong>1.4 H</strong></td><td>0.8 - 0</td><td>mg/dL</td></tr><tr><td>Glucose [Presence] in Urine by Test strip</td><td>++</td><td></td><td></td></tr><tr><td>Bilirubin.total [Mass/volume] in Urine by Test strip</td><td>0.5</td><td>0.2 - 1.5</td><td>mg/dL</td></tr><tr><td>Bilirubin.total [Presence] in Urine by Test strip</td><td>Finding of bilirubin in urine</td><td></td><td></td></tr><tr><td>Ketones [Mass/volume] in Urine by Test strip</td><td>1.7</td><td>0 - 4</td><td>mg/dL</td></tr><tr><td>Specific gravity of Urine by Test strip</td><td><strong>1.0 L</strong></td><td>1.01 - 1.03</td><td>{nominal}</td></tr><tr><td>pH of Urine by Test strip</td><td>6.2</td><td>4.5 - 7.5</td><td>pH</td></tr><tr><td>Protein [Mass/volume] in Urine by Test strip</td><td>105.8</td><td>0 - 150</td><td>mg/dL</td></tr><tr><td>Protein [Presence] in Urine by Test strip</td><td>Urine protein test = +</td><td></td><td></td></tr><tr><td>Nitrite [Presence] in Urine by Test strip</td><td>Urine nitrite negative</td><td></td><td></td></tr><tr><td>Hemoglobin [Presence] in Urine by Test strip</td><td>Urine blood test = negative</td><td></td><td></td></tr><tr><td>Leukocyte esterase [Presence] in Urine by Test strip</td><td>Urine leukocyte test negative</td><td></td><td></td></tr></tbody></table></div>"
                },
                "title": "Urinalysis"
              },
              {
                "code": {
                  "coding": [
                    {
                      "code": "$LP7846-1",
                      "system": "http://loinc.org",
                      "display": "Specimen information"
                    }
                  ],
                  "text": "Specimen information"
                },
                "entry": [
                  {
                    "reference": "urn:uuid:52f2b511-21b7-4d3c-b011-23a7b83255b5"
                  },
                  {
                    "reference": "urn:uuid:8060a40a-b292-4ed7-bb69-12a31ba16a3b"
                  },
                  {
                    "reference": "urn:uuid:03c349da-a1a8-40b6-8db0-3bd3a918d6cc"
                  },
                  {
                    "reference": "urn:uuid:a08b3bf4-1ff6-4b00-a3fc-dae22582570a"
                  }
                ],
                "text": {
                  "status": "generated",
                  "div": "<div xmlns=\"http://www.w3.org/1999/xhtml\"><h3>Specimen information</h3><table class=\"hl7__eu__lab__report\"><thead><tr><th>Test</th><th>28-FEB-2019</th><th>Specimen</th><th></th></tr></thead><tbody><tr><td>Appearance of Urine</td><td>Cloudy urine</td><td>Urine</td><td></td></tr><tr><td>Odor of Urine</td><td>Urine smell ammoniacal</td><td>Urine</td><td></td></tr><tr><td>Clarity of Urine</td><td>Translucent</td><td>Urine</td><td></td></tr><tr><td>Color of Urine</td><td>Brown color</td><td>Urine</td><td></td></tr></tbody></table></div>"
                },
                "title": "Specimen information"
              }
            ],
            "title": "Laboratory Report"
          },
          {
            "text": {
              "status": "generated",
              "div": "<div xmlns=\"http://www.w3.org/1999/xhtml\"><h3>Annotation</h3><table class=\"hl7__eu__lab__report\"><tr><th>Conclusion and Recommendations based on this report and previous findings known to us</th></tr><tr><td>Renal function shows mildly elevated creatinine and chloride with low CO₂, suggesting possible mild renal impairment and metabolic acidosis. Urinalysis reveals proteinuria, glucosuria, low specific gravity, and abnormal appearance, raising concern for renal tubular dysfunction or early diabetic nephropathy, though HbA1c is unexpectedly low. No evidence of urinary infection. Lipid profile is within target. Recommend clinical correlation for renal and metabolic status, and consider further evaluation of low HbA1c.</td></tr></table></div>"
            },
            "code": {
              "coding": [
                {
                  "system": "http://loinc.org",
                  "code": "48767-8",
                  "display": "Annotation comment"
                }
              ]
            },
            "title": "Annotation comment"
          }
        ],
        "status": "final",
        "subject": {
          "reference": "urn:uuid:2fc6100b-0069-40f8-92cd-72ea80d6d92c",
          "display": "Pelayo Casal"
        },
        "date": "2019-02-28T06:38:59Z",
        "title": "Laboratory Report",
        "confidentiality": "N"
      }
    },
    {
      "fullUrl": "urn:uuid:ab5a83f4-e6b5-4dc1-88da-243ef1409aa9",
      "resource": {
        "resourceType": "DiagnosticReport",
        "id": "ab5a83f4-e6b5-4dc1-88da-243ef1409aa9",
        "meta": {
          "profile": [
            "http://hl7.eu/fhir/laboratory/StructureDefinition/DiagnosticReport-eu-lab"
          ]
        },
        "identifier": [
          {
            "assigner": {
              "display": "HL7 Europe"
            },
            "system": "urn:oid:2.16.840.1.113883.2.51.999",
            "value": "a0761b5b-f0a8-4719-8410-2d2256bb8457"
          }
        ],
        "extension": [
          {
            "url": "http://hl7.org/fhir/5.0/StructureDefinition/extension-DiagnosticReport.composition",
            "valueReference": {
              "reference": "urn:uuid:c42be8f5-5c04-430e-ab73-ad1ba69d3fb1"
            }
          }
        ],
        "category": [
          {
            "coding": [
              {
                "code": "26436-6",
                "system": "http://loinc.org",
                "display": "Laboratory studies (set)"
              }
            ]
          }
        ],
        "specimen": [
          {
            "reference": "urn:uuid:5ff73f60-67c2-4fe5-95b3-0eda157d37b7"
          },
          {
            "reference": "urn:uuid:13d63e68-28d8-4e34-a7da-9ee7c937171d"
          },
          {
            "reference": "urn:uuid:940e1494-c494-4b82-b085-e8a617556ab0"
          }
        ],
        "result": [
          {
            "reference": "urn:uuid:d38ebde8-9702-45b4-a6ad-b540b1363cf7"
          },
          {
            "reference": "urn:uuid:5615baac-58d4-4b72-b6fe-e07f398e4181"
          },
          {
            "reference": "urn:uuid:099ff532-1f7c-4eb7-b8a6-e7204cde3396"
          },
          {
            "reference": "urn:uuid:735beddf-0a4d-42eb-8761-0a89bf39e36b"
          },
          {
            "reference": "urn:uuid:2a66b938-f906-4db5-bca2-deca83975fef"
          },
          {
            "reference": "urn:uuid:233f5775-5338-48ca-aa3c-0d7e6de66240"
          },
          {
            "reference": "urn:uuid:ddfa5f1b-b8f2-4b01-8f07-07fc7432e165"
          },
          {
            "reference": "urn:uuid:11858164-9295-4dec-b6a2-01ea0ae1d3a6"
          },
          {
            "reference": "urn:uuid:52f2b511-21b7-4d3c-b011-23a7b83255b5"
          },
          {
            "reference": "urn:uuid:8060a40a-b292-4ed7-bb69-12a31ba16a3b"
          },
          {
            "reference": "urn:uuid:03c349da-a1a8-40b6-8db0-3bd3a918d6cc"
          },
          {
            "reference": "urn:uuid:a08b3bf4-1ff6-4b00-a3fc-dae22582570a"
          },
          {
            "reference": "urn:uuid:1d973537-3527-4012-9034-1ce68b502601"
          },
          {
            "reference": "urn:uuid:5f0fce35-8dce-43cd-b92b-94ae8d5cbe95"
          },
          {
            "reference": "urn:uuid:f3eef355-50ee-41b5-adc9-140dd40a3cbb"
          },
          {
            "reference": "urn:uuid:37b009dc-cfb1-4250-95f7-a7a6b2e28971"
          },
          {
            "reference": "urn:uuid:839c43bf-0cb6-4007-afc6-e36b9fb7e923"
          },
          {
            "reference": "urn:uuid:93490038-dcb9-42d0-9c96-686c97f7b592"
          },
          {
            "reference": "urn:uuid:2d1bc94d-a1e0-4849-ba1c-a60f63d312e7"
          },
          {
            "reference": "urn:uuid:0ed2c0db-56f3-428b-babd-4fae92a905e5"
          },
          {
            "reference": "urn:uuid:5e62952a-6c59-4e4f-a5a9-f8ff4ef6b505"
          },
          {
            "reference": "urn:uuid:83bfd927-d569-4f21-bc1c-65b5f4713343"
          },
          {
            "reference": "urn:uuid:318b87e3-8361-406d-82fa-cc733106f341"
          },
          {
            "reference": "urn:uuid:af162fda-6b50-4b42-8373-e88c57929b56"
          },
          {
            "reference": "urn:uuid:2b6fdf74-5c6b-45db-9eb7-a3bfdef37efe"
          },
          {
            "reference": "urn:uuid:d97ec35e-c2c8-4318-b24a-23d4e886b10b"
          },
          {
            "reference": "urn:uuid:45be45f9-505b-4e8d-bc24-102fe9d13bb9"
          },
          {
            "reference": "urn:uuid:0468dccb-ac95-462f-8330-af6c09dc7756"
          },
          {
            "reference": "urn:uuid:c8ff8500-845f-4582-b276-9aa44adf0329"
          },
          {
            "reference": "urn:uuid:ccb71b81-a78b-43b2-b57b-32101de13545"
          },
          {
            "reference": "urn:uuid:3ad1f4be-4f6e-44b6-b388-80cf2af886c8"
          },
          {
            "reference": "urn:uuid:2ffafb4a-5bd3-4769-bd79-07cc689e56c9"
          },
          {
            "reference": "urn:uuid:7a6898a8-adc4-4690-9ad1-de9be95e4178"
          },
          {
            "reference": "urn:uuid:49b3f1ca-b3eb-4f2d-9f31-f0496cbae68f"
          },
          {
            "reference": "urn:uuid:109d2adb-cedd-49d9-8c39-6c0bd72d7d94"
          },
          {
            "reference": "urn:uuid:db59b950-54ee-4799-8985-202f0a78633e"
          },
          {
            "reference": "urn:uuid:20805dc0-fbde-4c9d-bc8f-83c2965ee292"
          },
          {
            "reference": "urn:uuid:b77e1614-df93-42a3-a13a-09d65478ac71"
          }
        ],
        "status": "registered",
        "code": {
          "coding": [
            {
              "code": "11502-2",
              "system": "http://loinc.org",
              "display": "Laboratory report"
            }
          ]
        },
        "subject": {
          "reference": "urn:uuid:2fc6100b-0069-40f8-92cd-72ea80d6d92c",
          "display": "Pelayo Casal"
        }
      }
    },
    {
      "fullUrl": "urn:uuid:2fc6100b-0069-40f8-92cd-72ea80d6d92c",
      "resource": {
        "resourceType": "Patient",
        "id": "2fc6100b-0069-40f8-92cd-72ea80d6d92c",
        "meta": {
          "security": [
            {
              "system": "http://terminology.hl7.org/CodeSystem/v3-ActReason",
              "code": "HTEST"
            },
            {
              "system": "http://terminology.hl7.org/CodeSystem/v3-ActReason",
              "code": "TRAIN"
            }
          ],
          "tag": [
            {
              "system": "https://synderai.net/fhir/CodeSystem/tags",
              "code": "synthetic",
              "display": "SYNDERAI Synthetic data"
            }
          ],
          "profile": [
            "http://hl7.eu/fhir/base/StructureDefinition/patient-eu-core"
          ]
        },
        "identifier": [
          {
            "type": {
              "coding": [
                {
                  "code": "PT",
                  "system": "http://terminology.hl7.org/CodeSystem/v2-0203"
                }
              ]
            },
            "system": "http://ec.europa.eu/identifier/eci",
            "value": "7707-510028-7"
          },
          {
            "type": {
              "coding": [
                {
                  "code": "MR",
                  "system": "http://terminology.hl7.org/CodeSystem/v2-0203"
                }
              ]
            },
            "system": "http://local.setting.eu/identifier",
            "value": "d88e82c6-df33-82d2-8538-f8b57da06491"
          }
        ],
        "name": [
          {
            "family": "Casal"
          },
          {
            "given": [
              "Pelayo"
            ]
          },
          {
            "text": "Pelayo Casal"
          }
        ],
        "address": [
          {
            "line": [
              "Callejón de Ignacio Pedrosa 67 Apt. 68 "
            ],
            "use": "home",
            "type": "physical",
            "postalCode": "35001",
            "city": "Las Palmas",
            "country": "Spain"
          }
        ],
        "telecom": [
          {
            "system": "phone",
            "value": "+34 875724898"
          }
        ],
        "extension": [
          {
            "url": "http://hl7.org/fhir/StructureDefinition/patient-nationality",
            "valueCodeableConcept": {
              "coding": [
                {
                  "code": "ES",
                  "system": "http://hl7.org/fhir/ValueSet/country"
                }
              ]
            }
          }
        ],
        "text": {
          "status": "generated",
          "div": "<div xmlns=\"http://www.w3.org/1999/xhtml\"><table class=\"hl7__ips\"><tr><td>Pelayo Casal</td><td>male</td><td>19-Apr-1940</td></tr></table></div>"
        },
        "gender": "male",
        "birthDate": "1940-04-19"
      }
    },
    {
      "fullUrl": "urn:uuid:ac8aff51-ae84-4d4a-a717-ed7e372fcb2e",
      "resource": {
        "resourceType": "ServiceRequest",
        "id": "ac8aff51-ae84-4d4a-a717-ed7e372fcb2e",
        "meta": {
          "profile": [
            "http://hl7.eu/fhir/laboratory/StructureDefinition/ServiceRequest-eu-lab"
          ]
        },
        "identifier": [
          {
            "system": "http://example.org",
            "value": "26145ac8-7d31-45c5-893d-fb480e1d90ec"
          }
        ],
        "specimen": [
          {
            "reference": "urn:uuid:5ff73f60-67c2-4fe5-95b3-0eda157d37b7"
          },
          {
            "reference": "urn:uuid:13d63e68-28d8-4e34-a7da-9ee7c937171d"
          },
          {
            "reference": "urn:uuid:940e1494-c494-4b82-b085-e8a617556ab0"
          }
        ],
        "reasonCode": [
          {
            "coding": [
              {
                "code": "431856006",
                "system": "http://snomed.info/sct",
                "display": "Chronic kidney disease stage 2"
              }
            ]
          },
          {
            "coding": [
              {
                "code": "90781000119102",
                "system": "http://snomed.info/sct",
                "display": "Microalbuminuria due to type 2 diabetes mellitus"
              }
            ]
          },
          {
            "coding": [
              {
                "code": "127013003",
                "system": "http://snomed.info/sct",
                "display": "Disorder of kidney due to diabetes mellitus"
              }
            ]
          },
          {
            "coding": [
              {
                "code": "431855005",
                "system": "http://snomed.info/sct",
                "display": "Chronic kidney disease stage 1"
              }
            ]
          },
          {
            "coding": [
              {
                "code": "64859006",
                "system": "http://snomed.info/sct",
                "display": "Osteoporosis"
              }
            ]
          },
          {
            "coding": [
              {
                "code": "414545008",
                "system": "http://snomed.info/sct",
                "display": "Ischemic heart disease"
              }
            ]
          },
          {
            "coding": [
              {
                "code": "237602007",
                "system": "http://snomed.info/sct",
                "display": "Metabolic syndrome X"
              }
            ]
          },
          {
            "coding": [
              {
                "code": "59621000",
                "system": "http://snomed.info/sct",
                "display": "Essential hypertension"
              }
            ]
          },
          {
            "coding": [
              {
                "code": "271737000",
                "system": "http://snomed.info/sct",
                "display": "Anemia"
              }
            ]
          },
          {
            "coding": [
              {
                "code": "15777000",
                "system": "http://snomed.info/sct",
                "display": "Prediabetes"
              }
            ]
          }
        ],
        "status": "active",
        "intent": "order",
        "code": {
          "coding": [
            {
              "code": "108252007",
              "system": "http://snomed.info/sct",
              "display": "Laboratory procedure"
            }
          ]
        },
        "subject": {
          "reference": "urn:uuid:2fc6100b-0069-40f8-92cd-72ea80d6d92c",
          "display": "Pelayo Casal"
        },
        "requester": {
          "reference": "urn:uuid:ae3f0b32-240a-4a40-8f6e-af277accffe5"
        }
      }
    },
    {
      "fullUrl": "urn:uuid:ae3f0b32-240a-4a40-8f6e-af277accffe5",
      "resource": {
        "resourceType": "PractitionerRole",
        "id": "ae3f0b32-240a-4a40-8f6e-af277accffe5",
        "meta": {
          "profile": [
            "http://hl7.eu/fhir/base/StructureDefinition/practitionerRole-eu"
          ]
        },
        "text": {
          "status": "generated",
          "div": "<div xmlns=\"http://www.w3.org/1999/xhtml\">Provider Role Id: ae3f0b32-240a-4a40-8f6e-af277accffe5</div>"
        },
        "organization": {
          "reference": "urn:uuid:d61b929c-f71e-45e8-b9b1-fe408fa62bf4"
        }
      }
    },
    {
      "fullUrl": "urn:uuid:d61b929c-f71e-45e8-b9b1-fe408fa62bf4",
      "resource": {
        "resourceType": "Organization",
        "id": "d61b929c-f71e-45e8-b9b1-fe408fa62bf4",
        "meta": {
          "profile": [
            "http://hl7.eu/fhir/base/StructureDefinition/organization-eu"
          ]
        },
        "identifier": [
          {
            "assigner": {
              "display": "HL7 Europe"
            },
            "system": "urn:oid:2.16.840.1.113883.2.51.999",
            "value": "ac8e582c-65c1-4f09-95be-579c3f667bf6"
          }
        ],
        "address": [
          {
            "country": "Spain"
          }
        ],
        "text": {
          "status": "generated",
          "div": "<div xmlns=\"http://www.w3.org/1999/xhtml\">Provider Organization: Centro de Salud de Guanarteme</div>"
        },
        "name": "Centro de Salud de Guanarteme"
      }
    },
    {
      "fullUrl": "urn:uuid:5ff73f60-67c2-4fe5-95b3-0eda157d37b7",
      "resource": {
        "resourceType": "Specimen",
        "id": "5ff73f60-67c2-4fe5-95b3-0eda157d37b7",
        "meta": {
          "profile": [
            "http://hl7.eu/fhir/laboratory/StructureDefinition/Specimen-eu-lab"
          ]
        },
        "collection": {
          "collectedDateTime": "2019-02-28"
        },
        "text": {
          "status": "generated",
          "div": "<div xmlns=\"http://www.w3.org/1999/xhtml\"><table class=\"hl7__eu__lab__report\"><tr><th>Specimen</th><th>Collection Date</th></tr><tr><td>Acellular blood (serum or plasma) specimen</td><td><span class=\"nb\">28-Feb-2019</span></td></tr></table></div>"
        },
        "type": {
          "coding": [
            {
              "code": "122592007",
              "system": "http://snomed.info/sct",
              "display": "Acellular blood (serum or plasma) specimen"
            }
          ]
        }
      }
    },
    {
      "fullUrl": "urn:uuid:13d63e68-28d8-4e34-a7da-9ee7c937171d",
      "resource": {
        "resourceType": "Specimen",
        "id": "13d63e68-28d8-4e34-a7da-9ee7c937171d",
        "meta": {
          "profile": [
            "http://hl7.eu/fhir/laboratory/StructureDefinition/Specimen-eu-lab"
          ]
        },
        "collection": {
          "collectedDateTime": "2019-02-28"
        },
        "text": {
          "status": "generated",
          "div": "<div xmlns=\"http://www.w3.org/1999/xhtml\"><table class=\"hl7__eu__lab__report\"><tr><th>Specimen</th><th>Collection Date</th></tr><tr><td>Urine specimen</td><td><span class=\"nb\">28-Feb-2019</span></td></tr></table></div>"
        },
        "type": {
          "coding": [
            {
              "code": "122575003",
              "system": "http://snomed.info/sct",
              "display": "Urine specimen"
            }
          ]
        }
      }
    },
    {
      "fullUrl": "urn:uuid:940e1494-c494-4b82-b085-e8a617556ab0",
      "resource": {
        "resourceType": "Specimen",
        "id": "940e1494-c494-4b82-b085-e8a617556ab0",
        "meta": {
          "profile": [
            "http://hl7.eu/fhir/laboratory/StructureDefinition/Specimen-eu-lab"
          ]
        },
        "collection": {
          "collectedDateTime": "2019-02-28"
        },
        "text": {
          "status": "generated",
          "div": "<div xmlns=\"http://www.w3.org/1999/xhtml\"><table class=\"hl7__eu__lab__report\"><tr><th>Specimen</th><th>Collection Date</th></tr><tr><td>Whole blood specimen (specimen)</td><td><span class=\"nb\">28-Feb-2019</span></td></tr></table></div>"
        },
        "type": {
          "coding": [
            {
              "code": "258580003",
              "system": "http://snomed.info/sct",
              "display": "Whole blood specimen (specimen)"
            }
          ]
        }
      }
    },
    {
      "fullUrl": "urn:uuid:d38ebde8-9702-45b4-a6ad-b540b1363cf7",
      "resource": {
        "resourceType": "Observation",
        "id": "d38ebde8-9702-45b4-a6ad-b540b1363cf7",
        "meta": {
          "profile": [
            "http://hl7.eu/fhir/laboratory/StructureDefinition/Observation-resultslab-eu-lab"
          ]
        },
        "performer": [
          {
            "display": "The Central European Lab"
          }
        ],
        "category": [
          {
            "coding": [
              {
                "system": "http://terminology.hl7.org/CodeSystem/observation-category",
                "code": "laboratory"
              }
            ]
          }
        ],
        "code": {
          "coding": [
            {
              "code": "2345-7",
              "system": "http://loinc.org",
              "display": "Glucose [Mass/volume] in Serum or Plasma"
            }
          ],
          "text": "Glucose [Mass/volume] in Serum or Plasma"
        },
        "valueQuantity": {
          "system": "http://unitsofmeasure.org",
          "value": 91.2,
          "unit": "mg/dL",
          "code": "mg/dL"
        },
        "referenceRange": [
          {
            "low": {
              "value": 70,
              "code": "mg/dL",
              "system": "http://unitsofmeasure.org"
            }
          },
          {
            "high": {
              "value": 140,
              "code": "mg/dL",
              "system": "http://unitsofmeasure.org"
            }
          }
        ],
        "text": {
          "status": "generated",
          "div": "<div xmlns=\"http://www.w3.org/1999/xhtml\"><table class=\"hl7__eu__lab__report\"><tr><th>Test</th><th>28-Feb-2019</th><th>Reference&#xA0;Range</th><th>Unit</th></tr><tr><td>Glucose [Mass/volume] in Serum or Plasma</td><td>91.2</td><td>70 - 140</td><td></td><td>mg/dL</td></tr></table></div>"
        },
        "status": "final",
        "subject": {
          "reference": "urn:uuid:2fc6100b-0069-40f8-92cd-72ea80d6d92c",
          "display": "Pelayo Casal"
        },
        "effectiveDateTime": "2019-02-28T05:38:59Z",
        "specimen": {
          "reference": "urn:uuid:5ff73f60-67c2-4fe5-95b3-0eda157d37b7"
        }
      }
    },
    {
      "fullUrl": "urn:uuid:5615baac-58d4-4b72-b6fe-e07f398e4181",
      "resource": {
        "resourceType": "Observation",
        "id": "5615baac-58d4-4b72-b6fe-e07f398e4181",
        "meta": {
          "profile": [
            "http://hl7.eu/fhir/laboratory/StructureDefinition/Observation-resultslab-eu-lab"
          ]
        },
        "performer": [
          {
            "display": "The Central European Lab"
          }
        ],
        "category": [
          {
            "coding": [
              {
                "system": "http://terminology.hl7.org/CodeSystem/observation-category",
                "code": "laboratory"
              }
            ]
          }
        ],
        "code": {
          "coding": [
            {
              "code": "3094-0",
              "system": "http://loinc.org",
              "display": "Urea nitrogen [Mass/volume] in Serum or Plasma"
            }
          ],
          "text": "Urea nitrogen [Mass/volume] in Serum or Plasma"
        },
        "valueQuantity": {
          "system": "http://unitsofmeasure.org",
          "value": 11.3,
          "unit": "mg/dL",
          "code": "mg/dL"
        },
        "referenceRange": [
          {
            "low": {
              "value": 7,
              "code": "mg/dL",
              "system": "http://unitsofmeasure.org"
            }
          },
          {
            "high": {
              "value": 25,
              "code": "mg/dL",
              "system": "http://unitsofmeasure.org"
            }
          }
        ],
        "text": {
          "status": "generated",
          "div": "<div xmlns=\"http://www.w3.org/1999/xhtml\"><table class=\"hl7__eu__lab__report\"><tr><th>Test</th><th>28-Feb-2019</th><th>Reference&#xA0;Range</th><th>Unit</th></tr><tr><td>Urea nitrogen [Mass/volume] in Serum or Plasma</td><td>11.3</td><td>7 - 25</td><td></td><td>mg/dL</td></tr></table></div>"
        },
        "status": "final",
        "subject": {
          "reference": "urn:uuid:2fc6100b-0069-40f8-92cd-72ea80d6d92c",
          "display": "Pelayo Casal"
        },
        "effectiveDateTime": "2019-02-28T05:38:59Z",
        "specimen": {
          "reference": "urn:uuid:5ff73f60-67c2-4fe5-95b3-0eda157d37b7"
        }
      }
    },
    {
      "fullUrl": "urn:uuid:099ff532-1f7c-4eb7-b8a6-e7204cde3396",
      "resource": {
        "resourceType": "Observation",
        "id": "099ff532-1f7c-4eb7-b8a6-e7204cde3396",
        "meta": {
          "profile": [
            "http://hl7.eu/fhir/laboratory/StructureDefinition/Observation-resultslab-eu-lab"
          ]
        },
        "performer": [
          {
            "display": "The Central European Lab"
          }
        ],
        "category": [
          {
            "coding": [
              {
                "system": "http://terminology.hl7.org/CodeSystem/observation-category",
                "code": "laboratory"
              }
            ]
          }
        ],
        "code": {
          "coding": [
            {
              "code": "2160-0",
              "system": "http://loinc.org",
              "display": "Creatinine [Mass/volume] in Serum or Plasma"
            }
          ],
          "text": "Creatinine [Mass/volume] in Serum or Plasma"
        },
        "valueQuantity": {
          "system": "http://unitsofmeasure.org",
          "value": 1.7,
          "unit": "mg/dL",
          "code": "mg/dL"
        },
        "referenceRange": [
          {
            "low": {
              "value": 0.9,
              "code": "mg/dL",
              "system": "http://unitsofmeasure.org"
            }
          },
          {
            "high": {
              "value": 1.3,
              "code": "mg/dL",
              "system": "http://unitsofmeasure.org"
            }
          }
        ],
        "interpretation": [
          {
            "coding": [
              {
                "code": "H",
                "system": "http://terminology.hl7.org/CodeSystem/v3-ObservationInterpretation",
                "display": "High"
              }
            ]
          }
        ],
        "text": {
          "status": "generated",
          "div": "<div xmlns=\"http://www.w3.org/1999/xhtml\"><table class=\"hl7__eu__lab__report\"><tr><th>Test</th><th>28-Feb-2019</th><th>Reference&#xA0;Range</th><th>Unit</th></tr><tr><td>Creatinine [Mass/volume] in Serum or Plasma</td><td>1.7</td><td>0.9 - 1.3</td><td>H</td><td>mg/dL</td></tr></table></div>"
        },
        "status": "final",
        "subject": {
          "reference": "urn:uuid:2fc6100b-0069-40f8-92cd-72ea80d6d92c",
          "display": "Pelayo Casal"
        },
        "effectiveDateTime": "2019-02-28T05:38:59Z",
        "specimen": {
          "reference": "urn:uuid:5ff73f60-67c2-4fe5-95b3-0eda157d37b7"
        }
      }
    },
    {
      "fullUrl": "urn:uuid:735beddf-0a4d-42eb-8761-0a89bf39e36b",
      "resource": {
        "resourceType": "Observation",
        "id": "735beddf-0a4d-42eb-8761-0a89bf39e36b",
        "meta": {
          "profile": [
            "http://hl7.eu/fhir/laboratory/StructureDefinition/Observation-resultslab-eu-lab"
          ]
        },
        "performer": [
          {
            "display": "The Central European Lab"
          }
        ],
        "category": [
          {
            "coding": [
              {
                "system": "http://terminology.hl7.org/CodeSystem/observation-category",
                "code": "laboratory"
              }
            ]
          }
        ],
        "code": {
          "coding": [
            {
              "code": "17861-6",
              "system": "http://loinc.org",
              "display": "Calcium [Mass/volume] in Serum or Plasma"
            }
          ],
          "text": "Calcium [Mass/volume] in Serum or Plasma"
        },
        "valueQuantity": {
          "system": "http://unitsofmeasure.org",
          "value": 9.1,
          "unit": "mg/dL",
          "code": "mg/dL"
        },
        "referenceRange": [
          {
            "low": {
              "value": 8.5,
              "code": "mg/dL",
              "system": "http://unitsofmeasure.org"
            }
          },
          {
            "high": {
              "value": 10.5,
              "code": "mg/dL",
              "system": "http://unitsofmeasure.org"
            }
          }
        ],
        "text": {
          "status": "generated",
          "div": "<div xmlns=\"http://www.w3.org/1999/xhtml\"><table class=\"hl7__eu__lab__report\"><tr><th>Test</th><th>28-Feb-2019</th><th>Reference&#xA0;Range</th><th>Unit</th></tr><tr><td>Calcium [Mass/volume] in Serum or Plasma</td><td>9.1</td><td>8.5 - 10.5</td><td></td><td>mg/dL</td></tr></table></div>"
        },
        "status": "final",
        "subject": {
          "reference": "urn:uuid:2fc6100b-0069-40f8-92cd-72ea80d6d92c",
          "display": "Pelayo Casal"
        },
        "effectiveDateTime": "2019-02-28T05:38:59Z",
        "specimen": {
          "reference": "urn:uuid:5ff73f60-67c2-4fe5-95b3-0eda157d37b7"
        }
      }
    },
    {
      "fullUrl": "urn:uuid:2a66b938-f906-4db5-bca2-deca83975fef",
      "resource": {
        "resourceType": "Observation",
        "id": "2a66b938-f906-4db5-bca2-deca83975fef",
        "meta": {
          "profile": [
            "http://hl7.eu/fhir/laboratory/StructureDefinition/Observation-resultslab-eu-lab"
          ]
        },
        "performer": [
          {
            "display": "The Central European Lab"
          }
        ],
        "category": [
          {
            "coding": [
              {
                "system": "http://terminology.hl7.org/CodeSystem/observation-category",
                "code": "laboratory"
              }
            ]
          }
        ],
        "code": {
          "coding": [
            {
              "code": "2951-2",
              "system": "http://loinc.org",
              "display": "Sodium [Moles/volume] in Serum or Plasma"
            }
          ],
          "text": "Sodium [Moles/volume] in Serum or Plasma"
        },
        "valueQuantity": {
          "system": "http://unitsofmeasure.org",
          "value": 137.2,
          "unit": "mmol/L",
          "code": "mmol/L"
        },
        "referenceRange": [
          {
            "low": {
              "value": 135,
              "code": "mmol/L",
              "system": "http://unitsofmeasure.org"
            }
          },
          {
            "high": {
              "value": 145,
              "code": "mmol/L",
              "system": "http://unitsofmeasure.org"
            }
          }
        ],
        "text": {
          "status": "generated",
          "div": "<div xmlns=\"http://www.w3.org/1999/xhtml\"><table class=\"hl7__eu__lab__report\"><tr><th>Test</th><th>28-Feb-2019</th><th>Reference&#xA0;Range</th><th>Unit</th></tr><tr><td>Sodium [Moles/volume] in Serum or Plasma</td><td>137.2</td><td>135 - 145</td><td></td><td>mmol/L</td></tr></table></div>"
        },
        "status": "final",
        "subject": {
          "reference": "urn:uuid:2fc6100b-0069-40f8-92cd-72ea80d6d92c",
          "display": "Pelayo Casal"
        },
        "effectiveDateTime": "2019-02-28T05:38:59Z",
        "specimen": {
          "reference": "urn:uuid:5ff73f60-67c2-4fe5-95b3-0eda157d37b7"
        }
      }
    },
    {
      "fullUrl": "urn:uuid:233f5775-5338-48ca-aa3c-0d7e6de66240",
      "resource": {
        "resourceType": "Observation",
        "id": "233f5775-5338-48ca-aa3c-0d7e6de66240",
        "meta": {
          "profile": [
            "http://hl7.eu/fhir/laboratory/StructureDefinition/Observation-resultslab-eu-lab"
          ]
        },
        "performer": [
          {
            "display": "The Central European Lab"
          }
        ],
        "category": [
          {
            "coding": [
              {
                "system": "http://terminology.hl7.org/CodeSystem/observation-category",
                "code": "laboratory"
              }
            ]
          }
        ],
        "code": {
          "coding": [
            {
              "code": "2823-3",
              "system": "http://loinc.org",
              "display": "Potassium [Moles/volume] in Serum or Plasma"
            }
          ],
          "text": "Potassium [Moles/volume] in Serum or Plasma"
        },
        "valueQuantity": {
          "system": "http://unitsofmeasure.org",
          "value": 5,
          "unit": "mmol/L",
          "code": "mmol/L"
        },
        "referenceRange": [
          {
            "low": {
              "value": 3.5,
              "code": "mmol/L",
              "system": "http://unitsofmeasure.org"
            }
          },
          {
            "high": {
              "value": 5.3,
              "code": "mmol/L",
              "system": "http://unitsofmeasure.org"
            }
          }
        ],
        "text": {
          "status": "generated",
          "div": "<div xmlns=\"http://www.w3.org/1999/xhtml\"><table class=\"hl7__eu__lab__report\"><tr><th>Test</th><th>28-Feb-2019</th><th>Reference&#xA0;Range</th><th>Unit</th></tr><tr><td>Potassium [Moles/volume] in Serum or Plasma</td><td>5.0</td><td>3.5 - 5.3</td><td></td><td>mmol/L</td></tr></table></div>"
        },
        "status": "final",
        "subject": {
          "reference": "urn:uuid:2fc6100b-0069-40f8-92cd-72ea80d6d92c",
          "display": "Pelayo Casal"
        },
        "effectiveDateTime": "2019-02-28T05:38:59Z",
        "specimen": {
          "reference": "urn:uuid:5ff73f60-67c2-4fe5-95b3-0eda157d37b7"
        }
      }
    },
    {
      "fullUrl": "urn:uuid:ddfa5f1b-b8f2-4b01-8f07-07fc7432e165",
      "resource": {
        "resourceType": "Observation",
        "id": "ddfa5f1b-b8f2-4b01-8f07-07fc7432e165",
        "meta": {
          "profile": [
            "http://hl7.eu/fhir/laboratory/StructureDefinition/Observation-resultslab-eu-lab"
          ]
        },
        "performer": [
          {
            "display": "The Central European Lab"
          }
        ],
        "category": [
          {
            "coding": [
              {
                "system": "http://terminology.hl7.org/CodeSystem/observation-category",
                "code": "laboratory"
              }
            ]
          }
        ],
        "code": {
          "coding": [
            {
              "code": "2075-0",
              "system": "http://loinc.org",
              "display": "Chloride [Moles/volume] in Serum or Plasma"
            }
          ],
          "text": "Chloride [Moles/volume] in Serum or Plasma"
        },
        "valueQuantity": {
          "system": "http://unitsofmeasure.org",
          "value": 108.8,
          "unit": "mmol/L",
          "code": "mmol/L"
        },
        "referenceRange": [
          {
            "low": {
              "value": 98,
              "code": "mmol/L",
              "system": "http://unitsofmeasure.org"
            }
          },
          {
            "high": {
              "value": 107,
              "code": "mmol/L",
              "system": "http://unitsofmeasure.org"
            }
          }
        ],
        "interpretation": [
          {
            "coding": [
              {
                "code": "H",
                "system": "http://terminology.hl7.org/CodeSystem/v3-ObservationInterpretation",
                "display": "High"
              }
            ]
          }
        ],
        "text": {
          "status": "generated",
          "div": "<div xmlns=\"http://www.w3.org/1999/xhtml\"><table class=\"hl7__eu__lab__report\"><tr><th>Test</th><th>28-Feb-2019</th><th>Reference&#xA0;Range</th><th>Unit</th></tr><tr><td>Chloride [Moles/volume] in Serum or Plasma</td><td>108.8</td><td>98 - 107</td><td>H</td><td>mmol/L</td></tr></table></div>"
        },
        "status": "final",
        "subject": {
          "reference": "urn:uuid:2fc6100b-0069-40f8-92cd-72ea80d6d92c",
          "display": "Pelayo Casal"
        },
        "effectiveDateTime": "2019-02-28T05:38:59Z",
        "specimen": {
          "reference": "urn:uuid:5ff73f60-67c2-4fe5-95b3-0eda157d37b7"
        }
      }
    },
    {
      "fullUrl": "urn:uuid:11858164-9295-4dec-b6a2-01ea0ae1d3a6",
      "resource": {
        "resourceType": "Observation",
        "id": "11858164-9295-4dec-b6a2-01ea0ae1d3a6",
        "meta": {
          "profile": [
            "http://hl7.eu/fhir/laboratory/StructureDefinition/Observation-resultslab-eu-lab"
          ]
        },
        "performer": [
          {
            "display": "The Central European Lab"
          }
        ],
        "category": [
          {
            "coding": [
              {
                "system": "http://terminology.hl7.org/CodeSystem/observation-category",
                "code": "laboratory"
              }
            ]
          }
        ],
        "code": {
          "coding": [
            {
              "code": "2028-9",
              "system": "http://loinc.org",
              "display": "Carbon dioxide, total [Moles/volume] in Serum or Plasma"
            }
          ],
          "text": "Carbon dioxide, total [Moles/volume] in Serum or Plasma"
        },
        "valueQuantity": {
          "system": "http://unitsofmeasure.org",
          "value": 20.6,
          "unit": "mmol/L",
          "code": "mmol/L"
        },
        "referenceRange": [
          {
            "low": {
              "value": 22,
              "code": "mmol/L",
              "system": "http://unitsofmeasure.org"
            }
          },
          {
            "high": {
              "value": 29,
              "code": "mmol/L",
              "system": "http://unitsofmeasure.org"
            }
          }
        ],
        "interpretation": [
          {
            "coding": [
              {
                "code": "L",
                "system": "http://terminology.hl7.org/CodeSystem/v3-ObservationInterpretation",
                "display": "Low"
              }
            ]
          }
        ],
        "text": {
          "status": "generated",
          "div": "<div xmlns=\"http://www.w3.org/1999/xhtml\"><table class=\"hl7__eu__lab__report\"><tr><th>Test</th><th>28-Feb-2019</th><th>Reference&#xA0;Range</th><th>Unit</th></tr><tr><td>Carbon dioxide, total [Moles/volume] in Serum or Plasma</td><td>20.6</td><td>22 - 29</td><td>L</td><td>mmol/L</td></tr></table></div>"
        },
        "status": "final",
        "subject": {
          "reference": "urn:uuid:2fc6100b-0069-40f8-92cd-72ea80d6d92c",
          "display": "Pelayo Casal"
        },
        "effectiveDateTime": "2019-02-28T05:38:59Z",
        "specimen": {
          "reference": "urn:uuid:5ff73f60-67c2-4fe5-95b3-0eda157d37b7"
        }
      }
    },
    {
      "fullUrl": "urn:uuid:52f2b511-21b7-4d3c-b011-23a7b83255b5",
      "resource": {
        "resourceType": "Observation",
        "id": "52f2b511-21b7-4d3c-b011-23a7b83255b5",
        "meta": {
          "profile": [
            "http://hl7.eu/fhir/laboratory/StructureDefinition/Observation-resultslab-eu-lab"
          ]
        },
        "performer": [
          {
            "display": "The Central European Lab"
          }
        ],
        "category": [
          {
            "coding": [
              {
                "system": "http://terminology.hl7.org/CodeSystem/observation-category",
                "code": "laboratory"
              }
            ]
          }
        ],
        "code": {
          "coding": [
            {
              "code": "5767-9",
              "system": "http://loinc.org",
              "display": "Appearance of Urine"
            }
          ],
          "text": "Appearance of Urine"
        },
        "text": {
          "status": "generated",
          "div": "<div xmlns=\"http://www.w3.org/1999/xhtml\"><table class=\"hl7__eu__lab__report\"><tr><th>Test</th><th>28-Feb-2019</th><th>Reference&#xA0;Range</th><th>Unit</th></tr><tr><td>Appearance of Urine</td></tr></table></div>"
        },
        "status": "final",
        "subject": {
          "reference": "urn:uuid:2fc6100b-0069-40f8-92cd-72ea80d6d92c",
          "display": "Pelayo Casal"
        },
        "effectiveDateTime": "2019-02-28T05:38:59Z",
        "specimen": {
          "reference": "urn:uuid:13d63e68-28d8-4e34-a7da-9ee7c937171d"
        }
      }
    },
    {
      "fullUrl": "urn:uuid:8060a40a-b292-4ed7-bb69-12a31ba16a3b",
      "resource": {
        "resourceType": "Observation",
        "id": "8060a40a-b292-4ed7-bb69-12a31ba16a3b",
        "meta": {
          "profile": [
            "http://hl7.eu/fhir/laboratory/StructureDefinition/Observation-resultslab-eu-lab"
          ]
        },
        "performer": [
          {
            "display": "The Central European Lab"
          }
        ],
        "category": [
          {
            "coding": [
              {
                "system": "http://terminology.hl7.org/CodeSystem/observation-category",
                "code": "laboratory"
              }
            ]
          }
        ],
        "code": {
          "coding": [
            {
              "code": "34533-0",
              "system": "http://loinc.org",
              "display": "Odor of Urine"
            }
          ],
          "text": "Odor of Urine"
        },
        "text": {
          "status": "generated",
          "div": "<div xmlns=\"http://www.w3.org/1999/xhtml\"><table class=\"hl7__eu__lab__report\"><tr><th>Test</th><th>28-Feb-2019</th><th>Reference&#xA0;Range</th><th>Unit</th></tr><tr><td>Odor of Urine</td></tr></table></div>"
        },
        "status": "final",
        "subject": {
          "reference": "urn:uuid:2fc6100b-0069-40f8-92cd-72ea80d6d92c",
          "display": "Pelayo Casal"
        },
        "effectiveDateTime": "2019-02-28T05:38:59Z",
        "specimen": {
          "reference": "urn:uuid:13d63e68-28d8-4e34-a7da-9ee7c937171d"
        }
      }
    },
    {
      "fullUrl": "urn:uuid:03c349da-a1a8-40b6-8db0-3bd3a918d6cc",
      "resource": {
        "resourceType": "Observation",
        "id": "03c349da-a1a8-40b6-8db0-3bd3a918d6cc",
        "meta": {
          "profile": [
            "http://hl7.eu/fhir/laboratory/StructureDefinition/Observation-resultslab-eu-lab"
          ]
        },
        "performer": [
          {
            "display": "The Central European Lab"
          }
        ],
        "category": [
          {
            "coding": [
              {
                "system": "http://terminology.hl7.org/CodeSystem/observation-category",
                "code": "laboratory"
              }
            ]
          }
        ],
        "code": {
          "coding": [
            {
              "code": "32167-9",
              "system": "http://loinc.org",
              "display": "Clarity of Urine"
            }
          ],
          "text": "Clarity of Urine"
        },
        "text": {
          "status": "generated",
          "div": "<div xmlns=\"http://www.w3.org/1999/xhtml\"><table class=\"hl7__eu__lab__report\"><tr><th>Test</th><th>28-Feb-2019</th><th>Reference&#xA0;Range</th><th>Unit</th></tr><tr><td>Clarity of Urine</td></tr></table></div>"
        },
        "status": "final",
        "subject": {
          "reference": "urn:uuid:2fc6100b-0069-40f8-92cd-72ea80d6d92c",
          "display": "Pelayo Casal"
        },
        "effectiveDateTime": "2019-02-28T05:38:59Z",
        "specimen": {
          "reference": "urn:uuid:13d63e68-28d8-4e34-a7da-9ee7c937171d"
        }
      }
    },
    {
      "fullUrl": "urn:uuid:a08b3bf4-1ff6-4b00-a3fc-dae22582570a",
      "resource": {
        "resourceType": "Observation",
        "id": "a08b3bf4-1ff6-4b00-a3fc-dae22582570a",
        "meta": {
          "profile": [
            "http://hl7.eu/fhir/laboratory/StructureDefinition/Observation-resultslab-eu-lab"
          ]
        },
        "performer": [
          {
            "display": "The Central European Lab"
          }
        ],
        "category": [
          {
            "coding": [
              {
                "system": "http://terminology.hl7.org/CodeSystem/observation-category",
                "code": "laboratory"
              }
            ]
          }
        ],
        "code": {
          "coding": [
            {
              "code": "5778-6",
              "system": "http://loinc.org",
              "display": "Color of Urine"
            }
          ],
          "text": "Color of Urine"
        },
        "text": {
          "status": "generated",
          "div": "<div xmlns=\"http://www.w3.org/1999/xhtml\"><table class=\"hl7__eu__lab__report\"><tr><th>Test</th><th>28-Feb-2019</th><th>Reference&#xA0;Range</th><th>Unit</th></tr><tr><td>Color of Urine</td></tr></table></div>"
        },
        "status": "final",
        "subject": {
          "reference": "urn:uuid:2fc6100b-0069-40f8-92cd-72ea80d6d92c",
          "display": "Pelayo Casal"
        },
        "effectiveDateTime": "2019-02-28T05:38:59Z",
        "specimen": {
          "reference": "urn:uuid:13d63e68-28d8-4e34-a7da-9ee7c937171d"
        }
      }
    },
    {
      "fullUrl": "urn:uuid:1d973537-3527-4012-9034-1ce68b502601",
      "resource": {
        "resourceType": "Observation",
        "id": "1d973537-3527-4012-9034-1ce68b502601",
        "meta": {
          "profile": [
            "http://hl7.eu/fhir/laboratory/StructureDefinition/Observation-resultslab-eu-lab"
          ]
        },
        "performer": [
          {
            "display": "The Central European Lab"
          }
        ],
        "category": [
          {
            "coding": [
              {
                "system": "http://terminology.hl7.org/CodeSystem/observation-category",
                "code": "laboratory"
              }
            ]
          }
        ],
        "code": {
          "coding": [
            {
              "code": "5792-7",
              "system": "http://loinc.org",
              "display": "Glucose [Mass/volume] in Urine by Test strip"
            }
          ],
          "text": "Glucose [Mass/volume] in Urine by Test strip"
        },
        "valueQuantity": {
          "system": "http://unitsofmeasure.org",
          "value": 1.4,
          "unit": "mg/dL",
          "code": "mg/dL"
        },
        "referenceRange": [
          {
            "low": {
              "value": 0.8,
              "code": "mg/dL",
              "system": "http://unitsofmeasure.org"
            }
          },
          {
            "high": {
              "value": 0,
              "code": "mg/dL",
              "system": "http://unitsofmeasure.org"
            }
          }
        ],
        "interpretation": [
          {
            "coding": [
              {
                "code": "H",
                "system": "http://terminology.hl7.org/CodeSystem/v3-ObservationInterpretation",
                "display": "High"
              }
            ]
          }
        ],
        "text": {
          "status": "generated",
          "div": "<div xmlns=\"http://www.w3.org/1999/xhtml\"><table class=\"hl7__eu__lab__report\"><tr><th>Test</th><th>28-Feb-2019</th><th>Reference&#xA0;Range</th><th>Unit</th></tr><tr><td>Glucose [Mass/volume] in Urine by Test strip</td><td>1.4</td><td>0.8 - 0</td><td>H</td><td>mg/dL</td></tr></table></div>"
        },
        "status": "final",
        "subject": {
          "reference": "urn:uuid:2fc6100b-0069-40f8-92cd-72ea80d6d92c",
          "display": "Pelayo Casal"
        },
        "effectiveDateTime": "2019-02-28T05:38:59Z",
        "specimen": {
          "reference": "urn:uuid:13d63e68-28d8-4e34-a7da-9ee7c937171d"
        }
      }
    },
    {
      "fullUrl": "urn:uuid:5f0fce35-8dce-43cd-b92b-94ae8d5cbe95",
      "resource": {
        "resourceType": "Observation",
        "id": "5f0fce35-8dce-43cd-b92b-94ae8d5cbe95",
        "meta": {
          "profile": [
            "http://hl7.eu/fhir/laboratory/StructureDefinition/Observation-resultslab-eu-lab"
          ]
        },
        "performer": [
          {
            "display": "The Central European Lab"
          }
        ],
        "category": [
          {
            "coding": [
              {
                "system": "http://terminology.hl7.org/CodeSystem/observation-category",
                "code": "laboratory"
              }
            ]
          }
        ],
        "code": {
          "coding": [
            {
              "code": "25428-4",
              "system": "http://loinc.org",
              "display": "Glucose [Presence] in Urine by Test strip"
            }
          ],
          "text": "Glucose [Presence] in Urine by Test strip"
        },
        "text": {
          "status": "generated",
          "div": "<div xmlns=\"http://www.w3.org/1999/xhtml\"><table class=\"hl7__eu__lab__report\"><tr><th>Test</th><th>28-Feb-2019</th><th>Reference&#xA0;Range</th><th>Unit</th></tr><tr><td>Glucose [Presence] in Urine by Test strip</td></tr></table></div>"
        },
        "status": "final",
        "subject": {
          "reference": "urn:uuid:2fc6100b-0069-40f8-92cd-72ea80d6d92c",
          "display": "Pelayo Casal"
        },
        "effectiveDateTime": "2019-02-28T05:38:59Z",
        "specimen": {
          "reference": "urn:uuid:13d63e68-28d8-4e34-a7da-9ee7c937171d"
        }
      }
    },
    {
      "fullUrl": "urn:uuid:f3eef355-50ee-41b5-adc9-140dd40a3cbb",
      "resource": {
        "resourceType": "Observation",
        "id": "f3eef355-50ee-41b5-adc9-140dd40a3cbb",
        "meta": {
          "profile": [
            "http://hl7.eu/fhir/laboratory/StructureDefinition/Observation-resultslab-eu-lab"
          ]
        },
        "performer": [
          {
            "display": "The Central European Lab"
          }
        ],
        "category": [
          {
            "coding": [
              {
                "system": "http://terminology.hl7.org/CodeSystem/observation-category",
                "code": "laboratory"
              }
            ]
          }
        ],
        "code": {
          "coding": [
            {
              "code": "20505-4",
              "system": "http://loinc.org",
              "display": "Bilirubin.total [Mass/volume] in Urine by Test strip"
            }
          ],
          "text": "Bilirubin.total [Mass/volume] in Urine by Test strip"
        },
        "valueQuantity": {
          "system": "http://unitsofmeasure.org",
          "value": 0.5,
          "unit": "mg/dL",
          "code": "mg/dL"
        },
        "referenceRange": [
          {
            "low": {
              "value": 0.2,
              "code": "mg/dL",
              "system": "http://unitsofmeasure.org"
            }
          },
          {
            "high": {
              "value": 1.5,
              "code": "mg/dL",
              "system": "http://unitsofmeasure.org"
            }
          }
        ],
        "text": {
          "status": "generated",
          "div": "<div xmlns=\"http://www.w3.org/1999/xhtml\"><table class=\"hl7__eu__lab__report\"><tr><th>Test</th><th>28-Feb-2019</th><th>Reference&#xA0;Range</th><th>Unit</th></tr><tr><td>Bilirubin.total [Mass/volume] in Urine by Test strip</td><td>0.5</td><td>0.2 - 1.5</td><td></td><td>mg/dL</td></tr></table></div>"
        },
        "status": "final",
        "subject": {
          "reference": "urn:uuid:2fc6100b-0069-40f8-92cd-72ea80d6d92c",
          "display": "Pelayo Casal"
        },
        "effectiveDateTime": "2019-02-28T05:38:59Z",
        "specimen": {
          "reference": "urn:uuid:13d63e68-28d8-4e34-a7da-9ee7c937171d"
        }
      }
    },
    {
      "fullUrl": "urn:uuid:37b009dc-cfb1-4250-95f7-a7a6b2e28971",
      "resource": {
        "resourceType": "Observation",
        "id": "37b009dc-cfb1-4250-95f7-a7a6b2e28971",
        "meta": {
          "profile": [
            "http://hl7.eu/fhir/laboratory/StructureDefinition/Observation-resultslab-eu-lab"
          ]
        },
        "performer": [
          {
            "display": "The Central European Lab"
          }
        ],
        "category": [
          {
            "coding": [
              {
                "system": "http://terminology.hl7.org/CodeSystem/observation-category",
                "code": "laboratory"
              }
            ]
          }
        ],
        "code": {
          "coding": [
            {
              "code": "5770-3",
              "system": "http://loinc.org",
              "display": "Bilirubin.total [Presence] in Urine by Test strip"
            }
          ],
          "text": "Bilirubin.total [Presence] in Urine by Test strip"
        },
        "text": {
          "status": "generated",
          "div": "<div xmlns=\"http://www.w3.org/1999/xhtml\"><table class=\"hl7__eu__lab__report\"><tr><th>Test</th><th>28-Feb-2019</th><th>Reference&#xA0;Range</th><th>Unit</th></tr><tr><td>Bilirubin.total [Presence] in Urine by Test strip</td></tr></table></div>"
        },
        "status": "final",
        "subject": {
          "reference": "urn:uuid:2fc6100b-0069-40f8-92cd-72ea80d6d92c",
          "display": "Pelayo Casal"
        },
        "effectiveDateTime": "2019-02-28T05:38:59Z",
        "specimen": {
          "reference": "urn:uuid:13d63e68-28d8-4e34-a7da-9ee7c937171d"
        }
      }
    },
    {
      "fullUrl": "urn:uuid:839c43bf-0cb6-4007-afc6-e36b9fb7e923",
      "resource": {
        "resourceType": "Observation",
        "id": "839c43bf-0cb6-4007-afc6-e36b9fb7e923",
        "meta": {
          "profile": [
            "http://hl7.eu/fhir/laboratory/StructureDefinition/Observation-resultslab-eu-lab"
          ]
        },
        "performer": [
          {
            "display": "The Central European Lab"
          }
        ],
        "category": [
          {
            "coding": [
              {
                "system": "http://terminology.hl7.org/CodeSystem/observation-category",
                "code": "laboratory"
              }
            ]
          }
        ],
        "code": {
          "coding": [
            {
              "code": "5797-6",
              "system": "http://loinc.org",
              "display": "Ketones [Mass/volume] in Urine by Test strip"
            }
          ],
          "text": "Ketones [Mass/volume] in Urine by Test strip"
        },
        "valueQuantity": {
          "system": "http://unitsofmeasure.org",
          "value": 1.7,
          "unit": "mg/dL",
          "code": "mg/dL"
        },
        "referenceRange": [
          {
            "low": {
              "value": 0,
              "code": "mg/dL",
              "system": "http://unitsofmeasure.org"
            }
          },
          {
            "high": {
              "value": 4,
              "code": "mg/dL",
              "system": "http://unitsofmeasure.org"
            }
          }
        ],
        "text": {
          "status": "generated",
          "div": "<div xmlns=\"http://www.w3.org/1999/xhtml\"><table class=\"hl7__eu__lab__report\"><tr><th>Test</th><th>28-Feb-2019</th><th>Reference&#xA0;Range</th><th>Unit</th></tr><tr><td>Ketones [Mass/volume] in Urine by Test strip</td><td>1.7</td><td>0 - 4</td><td></td><td>mg/dL</td></tr></table></div>"
        },
        "status": "final",
        "subject": {
          "reference": "urn:uuid:2fc6100b-0069-40f8-92cd-72ea80d6d92c",
          "display": "Pelayo Casal"
        },
        "effectiveDateTime": "2019-02-28T05:38:59Z",
        "specimen": {
          "reference": "urn:uuid:13d63e68-28d8-4e34-a7da-9ee7c937171d"
        }
      }
    },
    {
      "fullUrl": "urn:uuid:93490038-dcb9-42d0-9c96-686c97f7b592",
      "resource": {
        "resourceType": "Observation",
        "id": "93490038-dcb9-42d0-9c96-686c97f7b592",
        "meta": {
          "profile": [
            "http://hl7.eu/fhir/laboratory/StructureDefinition/Observation-resultslab-eu-lab"
          ]
        },
        "performer": [
          {
            "display": "The Central European Lab"
          }
        ],
        "category": [
          {
            "coding": [
              {
                "system": "http://terminology.hl7.org/CodeSystem/observation-category",
                "code": "laboratory"
              }
            ]
          }
        ],
        "code": {
          "coding": [
            {
              "code": "2514-8",
              "system": "http://loinc.org",
              "display": "Ketones [Presence] in Urine by Test strip"
            }
          ],
          "text": "Ketones [Presence] in Urine by Test strip"
        },
        "text": {
          "status": "generated",
          "div": "<div xmlns=\"http://www.w3.org/1999/xhtml\"><table class=\"hl7__eu__lab__report\"><tr><th>Test</th><th>28-Feb-2019</th><th>Reference&#xA0;Range</th><th>Unit</th></tr><tr><td>Ketones [Presence] in Urine by Test strip</td></tr></table></div>"
        },
        "status": "final",
        "subject": {
          "reference": "urn:uuid:2fc6100b-0069-40f8-92cd-72ea80d6d92c",
          "display": "Pelayo Casal"
        },
        "effectiveDateTime": "2019-02-28T05:38:59Z",
        "specimen": {
          "reference": "urn:uuid:13d63e68-28d8-4e34-a7da-9ee7c937171d"
        }
      }
    },
    {
      "fullUrl": "urn:uuid:2d1bc94d-a1e0-4849-ba1c-a60f63d312e7",
      "resource": {
        "resourceType": "Observation",
        "id": "2d1bc94d-a1e0-4849-ba1c-a60f63d312e7",
        "meta": {
          "profile": [
            "http://hl7.eu/fhir/laboratory/StructureDefinition/Observation-resultslab-eu-lab"
          ]
        },
        "performer": [
          {
            "display": "The Central European Lab"
          }
        ],
        "category": [
          {
            "coding": [
              {
                "system": "http://terminology.hl7.org/CodeSystem/observation-category",
                "code": "laboratory"
              }
            ]
          }
        ],
        "code": {
          "coding": [
            {
              "code": "5811-5",
              "system": "http://loinc.org",
              "display": "Specific gravity of Urine by Test strip"
            }
          ],
          "text": "Specific gravity of Urine by Test strip"
        },
        "valueQuantity": {
          "system": "http://unitsofmeasure.org",
          "value": 1,
          "unit": "{nominal}",
          "code": "{nominal}"
        },
        "referenceRange": [
          {
            "low": {
              "value": 1.01,
              "code": "g/mL",
              "system": "http://unitsofmeasure.org"
            }
          },
          {
            "high": {
              "value": 1.03,
              "code": "g/mL",
              "system": "http://unitsofmeasure.org"
            }
          }
        ],
        "interpretation": [
          {
            "coding": [
              {
                "code": "L",
                "system": "http://terminology.hl7.org/CodeSystem/v3-ObservationInterpretation",
                "display": "Low"
              }
            ]
          }
        ],
        "text": {
          "status": "generated",
          "div": "<div xmlns=\"http://www.w3.org/1999/xhtml\"><table class=\"hl7__eu__lab__report\"><tr><th>Test</th><th>28-Feb-2019</th><th>Reference&#xA0;Range</th><th>Unit</th></tr><tr><td>Specific gravity of Urine by Test strip</td><td>1.0</td><td>1.01 - 1.03</td><td>L</td><td>{nominal}</td></tr></table></div>"
        },
        "status": "final",
        "subject": {
          "reference": "urn:uuid:2fc6100b-0069-40f8-92cd-72ea80d6d92c",
          "display": "Pelayo Casal"
        },
        "effectiveDateTime": "2019-02-28T05:38:59Z",
        "specimen": {
          "reference": "urn:uuid:13d63e68-28d8-4e34-a7da-9ee7c937171d"
        }
      }
    },
    {
      "fullUrl": "urn:uuid:0ed2c0db-56f3-428b-babd-4fae92a905e5",
      "resource": {
        "resourceType": "Observation",
        "id": "0ed2c0db-56f3-428b-babd-4fae92a905e5",
        "meta": {
          "profile": [
            "http://hl7.eu/fhir/laboratory/StructureDefinition/Observation-resultslab-eu-lab"
          ]
        },
        "performer": [
          {
            "display": "The Central European Lab"
          }
        ],
        "category": [
          {
            "coding": [
              {
                "system": "http://terminology.hl7.org/CodeSystem/observation-category",
                "code": "laboratory"
              }
            ]
          }
        ],
        "code": {
          "coding": [
            {
              "code": "5803-2",
              "system": "http://loinc.org",
              "display": "pH of Urine by Test strip"
            }
          ],
          "text": "pH of Urine by Test strip"
        },
        "valueQuantity": {
          "system": "http://unitsofmeasure.org",
          "value": 6.2,
          "unit": "pH",
          "code": "pH"
        },
        "referenceRange": [
          {
            "low": {
              "value": 4.5,
              "code": "pH",
              "system": "http://unitsofmeasure.org"
            }
          },
          {
            "high": {
              "value": 7.5,
              "code": "pH",
              "system": "http://unitsofmeasure.org"
            }
          }
        ],
        "text": {
          "status": "generated",
          "div": "<div xmlns=\"http://www.w3.org/1999/xhtml\"><table class=\"hl7__eu__lab__report\"><tr><th>Test</th><th>28-Feb-2019</th><th>Reference&#xA0;Range</th><th>Unit</th></tr><tr><td>pH of Urine by Test strip</td><td>6.2</td><td>4.5 - 7.5</td><td></td><td>pH</td></tr></table></div>"
        },
        "status": "final",
        "subject": {
          "reference": "urn:uuid:2fc6100b-0069-40f8-92cd-72ea80d6d92c",
          "display": "Pelayo Casal"
        },
        "effectiveDateTime": "2019-02-28T05:38:59Z",
        "specimen": {
          "reference": "urn:uuid:13d63e68-28d8-4e34-a7da-9ee7c937171d"
        }
      }
    },
    {
      "fullUrl": "urn:uuid:5e62952a-6c59-4e4f-a5a9-f8ff4ef6b505",
      "resource": {
        "resourceType": "Observation",
        "id": "5e62952a-6c59-4e4f-a5a9-f8ff4ef6b505",
        "meta": {
          "profile": [
            "http://hl7.eu/fhir/laboratory/StructureDefinition/Observation-resultslab-eu-lab"
          ]
        },
        "performer": [
          {
            "display": "The Central European Lab"
          }
        ],
        "category": [
          {
            "coding": [
              {
                "system": "http://terminology.hl7.org/CodeSystem/observation-category",
                "code": "laboratory"
              }
            ]
          }
        ],
        "code": {
          "coding": [
            {
              "code": "5804-0",
              "system": "http://loinc.org",
              "display": "Protein [Mass/volume] in Urine by Test strip"
            }
          ],
          "text": "Protein [Mass/volume] in Urine by Test strip"
        },
        "valueQuantity": {
          "system": "http://unitsofmeasure.org",
          "value": 105.8,
          "unit": "mg/dL",
          "code": "mg/dL"
        },
        "referenceRange": [
          {
            "low": {
              "value": 0,
              "code": "mg/dL",
              "system": "http://unitsofmeasure.org"
            }
          },
          {
            "high": {
              "value": 150,
              "code": "mg/dL",
              "system": "http://unitsofmeasure.org"
            }
          }
        ],
        "text": {
          "status": "generated",
          "div": "<div xmlns=\"http://www.w3.org/1999/xhtml\"><table class=\"hl7__eu__lab__report\"><tr><th>Test</th><th>28-Feb-2019</th><th>Reference&#xA0;Range</th><th>Unit</th></tr><tr><td>Protein [Mass/volume] in Urine by Test strip</td><td>105.8</td><td>0 - 150</td><td></td><td>mg/dL</td></tr></table></div>"
        },
        "status": "final",
        "subject": {
          "reference": "urn:uuid:2fc6100b-0069-40f8-92cd-72ea80d6d92c",
          "display": "Pelayo Casal"
        },
        "effectiveDateTime": "2019-02-28T05:38:59Z",
        "specimen": {
          "reference": "urn:uuid:13d63e68-28d8-4e34-a7da-9ee7c937171d"
        }
      }
    },
    {
      "fullUrl": "urn:uuid:83bfd927-d569-4f21-bc1c-65b5f4713343",
      "resource": {
        "resourceType": "Observation",
        "id": "83bfd927-d569-4f21-bc1c-65b5f4713343",
        "meta": {
          "profile": [
            "http://hl7.eu/fhir/laboratory/StructureDefinition/Observation-resultslab-eu-lab"
          ]
        },
        "performer": [
          {
            "display": "The Central European Lab"
          }
        ],
        "category": [
          {
            "coding": [
              {
                "system": "http://terminology.hl7.org/CodeSystem/observation-category",
                "code": "laboratory"
              }
            ]
          }
        ],
        "code": {
          "coding": [
            {
              "code": "20454-5",
              "system": "http://loinc.org",
              "display": "Protein [Presence] in Urine by Test strip"
            }
          ],
          "text": "Protein [Presence] in Urine by Test strip"
        },
        "text": {
          "status": "generated",
          "div": "<div xmlns=\"http://www.w3.org/1999/xhtml\"><table class=\"hl7__eu__lab__report\"><tr><th>Test</th><th>28-Feb-2019</th><th>Reference&#xA0;Range</th><th>Unit</th></tr><tr><td>Protein [Presence] in Urine by Test strip</td></tr></table></div>"
        },
        "status": "final",
        "subject": {
          "reference": "urn:uuid:2fc6100b-0069-40f8-92cd-72ea80d6d92c",
          "display": "Pelayo Casal"
        },
        "effectiveDateTime": "2019-02-28T05:38:59Z",
        "specimen": {
          "reference": "urn:uuid:13d63e68-28d8-4e34-a7da-9ee7c937171d"
        }
      }
    },
    {
      "fullUrl": "urn:uuid:318b87e3-8361-406d-82fa-cc733106f341",
      "resource": {
        "resourceType": "Observation",
        "id": "318b87e3-8361-406d-82fa-cc733106f341",
        "meta": {
          "profile": [
            "http://hl7.eu/fhir/laboratory/StructureDefinition/Observation-resultslab-eu-lab"
          ]
        },
        "performer": [
          {
            "display": "The Central European Lab"
          }
        ],
        "category": [
          {
            "coding": [
              {
                "system": "http://terminology.hl7.org/CodeSystem/observation-category",
                "code": "laboratory"
              }
            ]
          }
        ],
        "code": {
          "coding": [
            {
              "code": "5802-4",
              "system": "http://loinc.org",
              "display": "Nitrite [Presence] in Urine by Test strip"
            }
          ],
          "text": "Nitrite [Presence] in Urine by Test strip"
        },
        "text": {
          "status": "generated",
          "div": "<div xmlns=\"http://www.w3.org/1999/xhtml\"><table class=\"hl7__eu__lab__report\"><tr><th>Test</th><th>28-Feb-2019</th><th>Reference&#xA0;Range</th><th>Unit</th></tr><tr><td>Nitrite [Presence] in Urine by Test strip</td></tr></table></div>"
        },
        "status": "final",
        "subject": {
          "reference": "urn:uuid:2fc6100b-0069-40f8-92cd-72ea80d6d92c",
          "display": "Pelayo Casal"
        },
        "effectiveDateTime": "2019-02-28T05:38:59Z",
        "specimen": {
          "reference": "urn:uuid:13d63e68-28d8-4e34-a7da-9ee7c937171d"
        }
      }
    },
    {
      "fullUrl": "urn:uuid:af162fda-6b50-4b42-8373-e88c57929b56",
      "resource": {
        "resourceType": "Observation",
        "id": "af162fda-6b50-4b42-8373-e88c57929b56",
        "meta": {
          "profile": [
            "http://hl7.eu/fhir/laboratory/StructureDefinition/Observation-resultslab-eu-lab"
          ]
        },
        "performer": [
          {
            "display": "The Central European Lab"
          }
        ],
        "category": [
          {
            "coding": [
              {
                "system": "http://terminology.hl7.org/CodeSystem/observation-category",
                "code": "laboratory"
              }
            ]
          }
        ],
        "code": {
          "coding": [
            {
              "code": "5794-3",
              "system": "http://loinc.org",
              "display": "Hemoglobin [Presence] in Urine by Test strip"
            }
          ],
          "text": "Hemoglobin [Presence] in Urine by Test strip"
        },
        "text": {
          "status": "generated",
          "div": "<div xmlns=\"http://www.w3.org/1999/xhtml\"><table class=\"hl7__eu__lab__report\"><tr><th>Test</th><th>28-Feb-2019</th><th>Reference&#xA0;Range</th><th>Unit</th></tr><tr><td>Hemoglobin [Presence] in Urine by Test strip</td></tr></table></div>"
        },
        "status": "final",
        "subject": {
          "reference": "urn:uuid:2fc6100b-0069-40f8-92cd-72ea80d6d92c",
          "display": "Pelayo Casal"
        },
        "effectiveDateTime": "2019-02-28T05:38:59Z",
        "specimen": {
          "reference": "urn:uuid:13d63e68-28d8-4e34-a7da-9ee7c937171d"
        }
      }
    },
    {
      "fullUrl": "urn:uuid:2b6fdf74-5c6b-45db-9eb7-a3bfdef37efe",
      "resource": {
        "resourceType": "Observation",
        "id": "2b6fdf74-5c6b-45db-9eb7-a3bfdef37efe",
        "meta": {
          "profile": [
            "http://hl7.eu/fhir/laboratory/StructureDefinition/Observation-resultslab-eu-lab"
          ]
        },
        "performer": [
          {
            "display": "The Central European Lab"
          }
        ],
        "category": [
          {
            "coding": [
              {
                "system": "http://terminology.hl7.org/CodeSystem/observation-category",
                "code": "laboratory"
              }
            ]
          }
        ],
        "code": {
          "coding": [
            {
              "code": "5799-2",
              "system": "http://loinc.org",
              "display": "Leukocyte esterase [Presence] in Urine by Test strip"
            }
          ],
          "text": "Leukocyte esterase [Presence] in Urine by Test strip"
        },
        "text": {
          "status": "generated",
          "div": "<div xmlns=\"http://www.w3.org/1999/xhtml\"><table class=\"hl7__eu__lab__report\"><tr><th>Test</th><th>28-Feb-2019</th><th>Reference&#xA0;Range</th><th>Unit</th></tr><tr><td>Leukocyte esterase [Presence] in Urine by Test strip</td></tr></table></div>"
        },
        "status": "final",
        "subject": {
          "reference": "urn:uuid:2fc6100b-0069-40f8-92cd-72ea80d6d92c",
          "display": "Pelayo Casal"
        },
        "effectiveDateTime": "2019-02-28T05:38:59Z",
        "specimen": {
          "reference": "urn:uuid:13d63e68-28d8-4e34-a7da-9ee7c937171d"
        }
      }
    },
    {
      "fullUrl": "urn:uuid:d97ec35e-c2c8-4318-b24a-23d4e886b10b",
      "resource": {
        "resourceType": "Observation",
        "id": "d97ec35e-c2c8-4318-b24a-23d4e886b10b",
        "meta": {
          "profile": [
            "http://hl7.eu/fhir/laboratory/StructureDefinition/Observation-resultslab-eu-lab"
          ]
        },
        "performer": [
          {
            "display": "The Central European Lab"
          }
        ],
        "category": [
          {
            "coding": [
              {
                "system": "http://terminology.hl7.org/CodeSystem/observation-category",
                "code": "laboratory"
              }
            ]
          }
        ],
        "code": {
          "coding": [
            {
              "code": "4548-4",
              "system": "http://loinc.org",
              "display": "Hemoglobin A1c/Hemoglobin.total in Blood"
            }
          ],
          "text": "Hemoglobin A1c/Hemoglobin.total in Blood"
        },
        "valueQuantity": {
          "system": "http://unitsofmeasure.org",
          "value": 3.2,
          "unit": "%",
          "code": "%"
        },
        "referenceRange": [
          {
            "low": {
              "value": 4.5,
              "code": "%",
              "system": "http://unitsofmeasure.org"
            }
          },
          {
            "high": {
              "value": 6.4,
              "code": "%",
              "system": "http://unitsofmeasure.org"
            }
          }
        ],
        "interpretation": [
          {
            "coding": [
              {
                "code": "L",
                "system": "http://terminology.hl7.org/CodeSystem/v3-ObservationInterpretation",
                "display": "Low"
              }
            ]
          }
        ],
        "text": {
          "status": "generated",
          "div": "<div xmlns=\"http://www.w3.org/1999/xhtml\"><table class=\"hl7__eu__lab__report\"><tr><th>Test</th><th>28-Feb-2019</th><th>Reference&#xA0;Range</th><th>Unit</th></tr><tr><td>Hemoglobin A1c/Hemoglobin.total in Blood</td><td>3.2</td><td>4.5 - 6.4</td><td>L</td><td>%</td></tr></table></div>"
        },
        "status": "final",
        "subject": {
          "reference": "urn:uuid:2fc6100b-0069-40f8-92cd-72ea80d6d92c",
          "display": "Pelayo Casal"
        },
        "effectiveDateTime": "2019-02-28T05:38:59Z",
        "specimen": {
          "reference": "urn:uuid:940e1494-c494-4b82-b085-e8a617556ab0"
        }
      }
    },
    {
      "fullUrl": "urn:uuid:45be45f9-505b-4e8d-bc24-102fe9d13bb9",
      "resource": {
        "resourceType": "Observation",
        "id": "45be45f9-505b-4e8d-bc24-102fe9d13bb9",
        "meta": {
          "profile": [
            "http://hl7.eu/fhir/laboratory/StructureDefinition/Observation-resultslab-eu-lab"
          ]
        },
        "performer": [
          {
            "display": "The Central European Lab"
          }
        ],
        "category": [
          {
            "coding": [
              {
                "system": "http://terminology.hl7.org/CodeSystem/observation-category",
                "code": "laboratory"
              }
            ]
          }
        ],
        "code": {
          "coding": [
            {
              "code": "2339-0",
              "system": "http://loinc.org",
              "display": "Glucose [Mass/volume] in Blood"
            }
          ],
          "text": "Glucose [Mass/volume] in Blood"
        },
        "valueQuantity": {
          "system": "http://unitsofmeasure.org",
          "value": 91.2,
          "unit": "mg/dL",
          "code": "mg/dL"
        },
        "referenceRange": [
          {
            "low": {
              "value": 70,
              "code": "mg/dL",
              "system": "http://unitsofmeasure.org"
            }
          },
          {
            "high": {
              "value": 140,
              "code": "mg/dL",
              "system": "http://unitsofmeasure.org"
            }
          }
        ],
        "text": {
          "status": "generated",
          "div": "<div xmlns=\"http://www.w3.org/1999/xhtml\"><table class=\"hl7__eu__lab__report\"><tr><th>Test</th><th>28-Feb-2019</th><th>Reference&#xA0;Range</th><th>Unit</th></tr><tr><td>Glucose [Mass/volume] in Blood</td><td>91.2</td><td>70 - 140</td><td></td><td>mg/dL</td></tr></table></div>"
        },
        "status": "final",
        "subject": {
          "reference": "urn:uuid:2fc6100b-0069-40f8-92cd-72ea80d6d92c",
          "display": "Pelayo Casal"
        },
        "effectiveDateTime": "2019-02-28T05:38:59Z",
        "specimen": {
          "reference": "urn:uuid:940e1494-c494-4b82-b085-e8a617556ab0"
        }
      }
    },
    {
      "fullUrl": "urn:uuid:0468dccb-ac95-462f-8330-af6c09dc7756",
      "resource": {
        "resourceType": "Observation",
        "id": "0468dccb-ac95-462f-8330-af6c09dc7756",
        "meta": {
          "profile": [
            "http://hl7.eu/fhir/laboratory/StructureDefinition/Observation-resultslab-eu-lab"
          ]
        },
        "performer": [
          {
            "display": "The Central European Lab"
          }
        ],
        "category": [
          {
            "coding": [
              {
                "system": "http://terminology.hl7.org/CodeSystem/observation-category",
                "code": "laboratory"
              }
            ]
          }
        ],
        "code": {
          "coding": [
            {
              "code": "6299-2",
              "system": "http://loinc.org",
              "display": "Urea nitrogen [Mass/volume] in Blood"
            }
          ],
          "text": "Urea nitrogen [Mass/volume] in Blood"
        },
        "valueQuantity": {
          "system": "http://unitsofmeasure.org",
          "value": 11.3,
          "unit": "mg/dL",
          "code": "mg/dL"
        },
        "referenceRange": [
          {
            "low": {
              "value": 7,
              "code": "mg/dL",
              "system": "http://unitsofmeasure.org"
            }
          },
          {
            "high": {
              "value": 25,
              "code": "mg/dL",
              "system": "http://unitsofmeasure.org"
            }
          }
        ],
        "text": {
          "status": "generated",
          "div": "<div xmlns=\"http://www.w3.org/1999/xhtml\"><table class=\"hl7__eu__lab__report\"><tr><th>Test</th><th>28-Feb-2019</th><th>Reference&#xA0;Range</th><th>Unit</th></tr><tr><td>Urea nitrogen [Mass/volume] in Blood</td><td>11.3</td><td>7 - 25</td><td></td><td>mg/dL</td></tr></table></div>"
        },
        "status": "final",
        "subject": {
          "reference": "urn:uuid:2fc6100b-0069-40f8-92cd-72ea80d6d92c",
          "display": "Pelayo Casal"
        },
        "effectiveDateTime": "2019-02-28T05:38:59Z",
        "specimen": {
          "reference": "urn:uuid:940e1494-c494-4b82-b085-e8a617556ab0"
        }
      }
    },
    {
      "fullUrl": "urn:uuid:c8ff8500-845f-4582-b276-9aa44adf0329",
      "resource": {
        "resourceType": "Observation",
        "id": "c8ff8500-845f-4582-b276-9aa44adf0329",
        "meta": {
          "profile": [
            "http://hl7.eu/fhir/laboratory/StructureDefinition/Observation-resultslab-eu-lab"
          ]
        },
        "performer": [
          {
            "display": "The Central European Lab"
          }
        ],
        "category": [
          {
            "coding": [
              {
                "system": "http://terminology.hl7.org/CodeSystem/observation-category",
                "code": "laboratory"
              }
            ]
          }
        ],
        "code": {
          "coding": [
            {
              "code": "38483-4",
              "system": "http://loinc.org",
              "display": "Creatinine [Mass/volume] in Blood"
            }
          ],
          "text": "Creatinine [Mass/volume] in Blood"
        },
        "valueQuantity": {
          "system": "http://unitsofmeasure.org",
          "value": 1.1,
          "unit": "mg/dL",
          "code": "mg/dL"
        },
        "referenceRange": [
          {
            "low": {
              "value": 0.9,
              "code": "mg/dL",
              "system": "http://unitsofmeasure.org"
            }
          },
          {
            "high": {
              "value": 1.3,
              "code": "mg/dL",
              "system": "http://unitsofmeasure.org"
            }
          }
        ],
        "text": {
          "status": "generated",
          "div": "<div xmlns=\"http://www.w3.org/1999/xhtml\"><table class=\"hl7__eu__lab__report\"><tr><th>Test</th><th>28-Feb-2019</th><th>Reference&#xA0;Range</th><th>Unit</th></tr><tr><td>Creatinine [Mass/volume] in Blood</td><td>1.1</td><td>0.9 - 1.3</td><td></td><td>mg/dL</td></tr></table></div>"
        },
        "status": "final",
        "subject": {
          "reference": "urn:uuid:2fc6100b-0069-40f8-92cd-72ea80d6d92c",
          "display": "Pelayo Casal"
        },
        "effectiveDateTime": "2019-02-28T05:38:59Z",
        "specimen": {
          "reference": "urn:uuid:940e1494-c494-4b82-b085-e8a617556ab0"
        }
      }
    },
    {
      "fullUrl": "urn:uuid:ccb71b81-a78b-43b2-b57b-32101de13545",
      "resource": {
        "resourceType": "Observation",
        "id": "ccb71b81-a78b-43b2-b57b-32101de13545",
        "meta": {
          "profile": [
            "http://hl7.eu/fhir/laboratory/StructureDefinition/Observation-resultslab-eu-lab"
          ]
        },
        "performer": [
          {
            "display": "The Central European Lab"
          }
        ],
        "category": [
          {
            "coding": [
              {
                "system": "http://terminology.hl7.org/CodeSystem/observation-category",
                "code": "laboratory"
              }
            ]
          }
        ],
        "code": {
          "coding": [
            {
              "code": "49765-1",
              "system": "http://loinc.org",
              "display": "Calcium [Mass/volume] in Blood"
            }
          ],
          "text": "Calcium [Mass/volume] in Blood"
        },
        "valueQuantity": {
          "system": "http://unitsofmeasure.org",
          "value": 9.1,
          "unit": "mg/dL",
          "code": "mg/dL"
        },
        "referenceRange": [
          {
            "low": {
              "value": 8.6,
              "code": "mg/dL",
              "system": "http://unitsofmeasure.org"
            }
          },
          {
            "high": {
              "value": 10.2,
              "code": "mg/dL",
              "system": "http://unitsofmeasure.org"
            }
          }
        ],
        "text": {
          "status": "generated",
          "div": "<div xmlns=\"http://www.w3.org/1999/xhtml\"><table class=\"hl7__eu__lab__report\"><tr><th>Test</th><th>28-Feb-2019</th><th>Reference&#xA0;Range</th><th>Unit</th></tr><tr><td>Calcium [Mass/volume] in Blood</td><td>9.1</td><td>8.6 - 10.2</td><td></td><td>mg/dL</td></tr></table></div>"
        },
        "status": "final",
        "subject": {
          "reference": "urn:uuid:2fc6100b-0069-40f8-92cd-72ea80d6d92c",
          "display": "Pelayo Casal"
        },
        "effectiveDateTime": "2019-02-28T05:38:59Z",
        "specimen": {
          "reference": "urn:uuid:940e1494-c494-4b82-b085-e8a617556ab0"
        }
      }
    },
    {
      "fullUrl": "urn:uuid:3ad1f4be-4f6e-44b6-b388-80cf2af886c8",
      "resource": {
        "resourceType": "Observation",
        "id": "3ad1f4be-4f6e-44b6-b388-80cf2af886c8",
        "meta": {
          "profile": [
            "http://hl7.eu/fhir/laboratory/StructureDefinition/Observation-resultslab-eu-lab"
          ]
        },
        "performer": [
          {
            "display": "The Central European Lab"
          }
        ],
        "category": [
          {
            "coding": [
              {
                "system": "http://terminology.hl7.org/CodeSystem/observation-category",
                "code": "laboratory"
              }
            ]
          }
        ],
        "code": {
          "coding": [
            {
              "code": "2947-0",
              "system": "http://loinc.org",
              "display": "Sodium [Moles/volume] in Blood"
            }
          ],
          "text": "Sodium [Moles/volume] in Blood"
        },
        "valueQuantity": {
          "system": "http://unitsofmeasure.org",
          "value": 137.2,
          "unit": "mmol/L",
          "code": "mmol/L"
        },
        "referenceRange": [
          {
            "low": {
              "value": 135,
              "code": "mmol/L",
              "system": "http://unitsofmeasure.org"
            }
          },
          {
            "high": {
              "value": 145,
              "code": "mmol/L",
              "system": "http://unitsofmeasure.org"
            }
          }
        ],
        "text": {
          "status": "generated",
          "div": "<div xmlns=\"http://www.w3.org/1999/xhtml\"><table class=\"hl7__eu__lab__report\"><tr><th>Test</th><th>28-Feb-2019</th><th>Reference&#xA0;Range</th><th>Unit</th></tr><tr><td>Sodium [Moles/volume] in Blood</td><td>137.2</td><td>135 - 145</td><td></td><td>mmol/L</td></tr></table></div>"
        },
        "status": "final",
        "subject": {
          "reference": "urn:uuid:2fc6100b-0069-40f8-92cd-72ea80d6d92c",
          "display": "Pelayo Casal"
        },
        "effectiveDateTime": "2019-02-28T05:38:59Z",
        "specimen": {
          "reference": "urn:uuid:940e1494-c494-4b82-b085-e8a617556ab0"
        }
      }
    },
    {
      "fullUrl": "urn:uuid:2ffafb4a-5bd3-4769-bd79-07cc689e56c9",
      "resource": {
        "resourceType": "Observation",
        "id": "2ffafb4a-5bd3-4769-bd79-07cc689e56c9",
        "meta": {
          "profile": [
            "http://hl7.eu/fhir/laboratory/StructureDefinition/Observation-resultslab-eu-lab"
          ]
        },
        "performer": [
          {
            "display": "The Central European Lab"
          }
        ],
        "category": [
          {
            "coding": [
              {
                "system": "http://terminology.hl7.org/CodeSystem/observation-category",
                "code": "laboratory"
              }
            ]
          }
        ],
        "code": {
          "coding": [
            {
              "code": "6298-4",
              "system": "http://loinc.org",
              "display": "Potassium [Moles/volume] in Blood"
            }
          ],
          "text": "Potassium [Moles/volume] in Blood"
        },
        "valueQuantity": {
          "system": "http://unitsofmeasure.org",
          "value": 5,
          "unit": "mmol/L",
          "code": "mmol/L"
        },
        "referenceRange": [
          {
            "low": {
              "value": 3.5,
              "code": "mmol/L",
              "system": "http://unitsofmeasure.org"
            }
          },
          {
            "high": {
              "value": 5.1,
              "code": "mmol/L",
              "system": "http://unitsofmeasure.org"
            }
          }
        ],
        "text": {
          "status": "generated",
          "div": "<div xmlns=\"http://www.w3.org/1999/xhtml\"><table class=\"hl7__eu__lab__report\"><tr><th>Test</th><th>28-Feb-2019</th><th>Reference&#xA0;Range</th><th>Unit</th></tr><tr><td>Potassium [Moles/volume] in Blood</td><td>5.0</td><td>3.5 - 5.1</td><td></td><td>mmol/L</td></tr></table></div>"
        },
        "status": "final",
        "subject": {
          "reference": "urn:uuid:2fc6100b-0069-40f8-92cd-72ea80d6d92c",
          "display": "Pelayo Casal"
        },
        "effectiveDateTime": "2019-02-28T05:38:59Z",
        "specimen": {
          "reference": "urn:uuid:940e1494-c494-4b82-b085-e8a617556ab0"
        }
      }
    },
    {
      "fullUrl": "urn:uuid:7a6898a8-adc4-4690-9ad1-de9be95e4178",
      "resource": {
        "resourceType": "Observation",
        "id": "7a6898a8-adc4-4690-9ad1-de9be95e4178",
        "meta": {
          "profile": [
            "http://hl7.eu/fhir/laboratory/StructureDefinition/Observation-resultslab-eu-lab"
          ]
        },
        "performer": [
          {
            "display": "The Central European Lab"
          }
        ],
        "category": [
          {
            "coding": [
              {
                "system": "http://terminology.hl7.org/CodeSystem/observation-category",
                "code": "laboratory"
              }
            ]
          }
        ],
        "code": {
          "coding": [
            {
              "code": "2069-3",
              "system": "http://loinc.org",
              "display": "Chloride [Moles/volume] in Blood"
            }
          ],
          "text": "Chloride [Moles/volume] in Blood"
        },
        "valueQuantity": {
          "system": "http://unitsofmeasure.org",
          "value": 108.8,
          "unit": "mmol/L",
          "code": "mmol/L"
        },
        "referenceRange": [
          {
            "low": {
              "value": 98,
              "code": "mmol/L",
              "system": "http://unitsofmeasure.org"
            }
          },
          {
            "high": {
              "value": 108,
              "code": "mmol/L",
              "system": "http://unitsofmeasure.org"
            }
          }
        ],
        "interpretation": [
          {
            "coding": [
              {
                "code": "H",
                "system": "http://terminology.hl7.org/CodeSystem/v3-ObservationInterpretation",
                "display": "High"
              }
            ]
          }
        ],
        "text": {
          "status": "generated",
          "div": "<div xmlns=\"http://www.w3.org/1999/xhtml\"><table class=\"hl7__eu__lab__report\"><tr><th>Test</th><th>28-Feb-2019</th><th>Reference&#xA0;Range</th><th>Unit</th></tr><tr><td>Chloride [Moles/volume] in Blood</td><td>108.8</td><td>98 - 108</td><td>H</td><td>mmol/L</td></tr></table></div>"
        },
        "status": "final",
        "subject": {
          "reference": "urn:uuid:2fc6100b-0069-40f8-92cd-72ea80d6d92c",
          "display": "Pelayo Casal"
        },
        "effectiveDateTime": "2019-02-28T05:38:59Z",
        "specimen": {
          "reference": "urn:uuid:940e1494-c494-4b82-b085-e8a617556ab0"
        }
      }
    },
    {
      "fullUrl": "urn:uuid:49b3f1ca-b3eb-4f2d-9f31-f0496cbae68f",
      "resource": {
        "resourceType": "Observation",
        "id": "49b3f1ca-b3eb-4f2d-9f31-f0496cbae68f",
        "meta": {
          "profile": [
            "http://hl7.eu/fhir/laboratory/StructureDefinition/Observation-resultslab-eu-lab"
          ]
        },
        "performer": [
          {
            "display": "The Central European Lab"
          }
        ],
        "category": [
          {
            "coding": [
              {
                "system": "http://terminology.hl7.org/CodeSystem/observation-category",
                "code": "laboratory"
              }
            ]
          }
        ],
        "code": {
          "coding": [
            {
              "code": "20565-8",
              "system": "http://loinc.org",
              "display": "Carbon dioxide, total [Moles/volume] in Blood"
            }
          ],
          "text": "Carbon dioxide, total [Moles/volume] in Blood"
        },
        "valueQuantity": {
          "system": "http://unitsofmeasure.org",
          "value": 20.6,
          "unit": "mmol/L",
          "code": "mmol/L"
        },
        "referenceRange": [
          {
            "low": {
              "value": 22,
              "code": "mmol/L",
              "system": "http://unitsofmeasure.org"
            }
          },
          {
            "high": {
              "value": 32,
              "code": "mmol/L",
              "system": "http://unitsofmeasure.org"
            }
          }
        ],
        "interpretation": [
          {
            "coding": [
              {
                "code": "L",
                "system": "http://terminology.hl7.org/CodeSystem/v3-ObservationInterpretation",
                "display": "Low"
              }
            ]
          }
        ],
        "text": {
          "status": "generated",
          "div": "<div xmlns=\"http://www.w3.org/1999/xhtml\"><table class=\"hl7__eu__lab__report\"><tr><th>Test</th><th>28-Feb-2019</th><th>Reference&#xA0;Range</th><th>Unit</th></tr><tr><td>Carbon dioxide, total [Moles/volume] in Blood</td><td>20.6</td><td>22 - 32</td><td>L</td><td>mmol/L</td></tr></table></div>"
        },
        "status": "final",
        "subject": {
          "reference": "urn:uuid:2fc6100b-0069-40f8-92cd-72ea80d6d92c",
          "display": "Pelayo Casal"
        },
        "effectiveDateTime": "2019-02-28T05:38:59Z",
        "specimen": {
          "reference": "urn:uuid:940e1494-c494-4b82-b085-e8a617556ab0"
        }
      }
    },
    {
      "fullUrl": "urn:uuid:109d2adb-cedd-49d9-8c39-6c0bd72d7d94",
      "resource": {
        "resourceType": "Observation",
        "id": "109d2adb-cedd-49d9-8c39-6c0bd72d7d94",
        "meta": {
          "profile": [
            "http://hl7.eu/fhir/laboratory/StructureDefinition/Observation-resultslab-eu-lab"
          ]
        },
        "performer": [
          {
            "display": "The Central European Lab"
          }
        ],
        "category": [
          {
            "coding": [
              {
                "system": "http://terminology.hl7.org/CodeSystem/observation-category",
                "code": "laboratory"
              }
            ]
          }
        ],
        "code": {
          "coding": [
            {
              "code": "2093-3",
              "system": "http://loinc.org",
              "display": "Cholesterol [Mass/volume] in Serum or Plasma"
            }
          ],
          "text": "Cholesterol [Mass/volume] in Serum or Plasma"
        },
        "valueQuantity": {
          "system": "http://unitsofmeasure.org",
          "value": 132.6,
          "unit": "mg/dL",
          "code": "mg/dL"
        },
        "referenceRange": [
          {
            "low": {
              "value": 0,
              "code": "mg/dL",
              "system": "http://unitsofmeasure.org"
            }
          },
          {
            "high": {
              "value": 200,
              "code": "mg/dL",
              "system": "http://unitsofmeasure.org"
            }
          }
        ],
        "text": {
          "status": "generated",
          "div": "<div xmlns=\"http://www.w3.org/1999/xhtml\"><table class=\"hl7__eu__lab__report\"><tr><th>Test</th><th>28-Feb-2019</th><th>Reference&#xA0;Range</th><th>Unit</th></tr><tr><td>Cholesterol [Mass/volume] in Serum or Plasma</td><td>132.6</td><td>0 - 200</td><td></td><td>mg/dL</td></tr></table></div>"
        },
        "status": "final",
        "subject": {
          "reference": "urn:uuid:2fc6100b-0069-40f8-92cd-72ea80d6d92c",
          "display": "Pelayo Casal"
        },
        "effectiveDateTime": "2019-02-28T05:38:59Z",
        "specimen": {
          "reference": "urn:uuid:5ff73f60-67c2-4fe5-95b3-0eda157d37b7"
        }
      }
    },
    {
      "fullUrl": "urn:uuid:db59b950-54ee-4799-8985-202f0a78633e",
      "resource": {
        "resourceType": "Observation",
        "id": "db59b950-54ee-4799-8985-202f0a78633e",
        "meta": {
          "profile": [
            "http://hl7.eu/fhir/laboratory/StructureDefinition/Observation-resultslab-eu-lab"
          ]
        },
        "performer": [
          {
            "display": "The Central European Lab"
          }
        ],
        "category": [
          {
            "coding": [
              {
                "system": "http://terminology.hl7.org/CodeSystem/observation-category",
                "code": "laboratory"
              }
            ]
          }
        ],
        "code": {
          "coding": [
            {
              "code": "2571-8",
              "system": "http://loinc.org",
              "display": "Triglyceride [Mass/volume] in Serum or Plasma"
            }
          ],
          "text": "Triglyceride [Mass/volume] in Serum or Plasma"
        },
        "valueQuantity": {
          "system": "http://unitsofmeasure.org",
          "value": 100.6,
          "unit": "mg/dL",
          "code": "mg/dL"
        },
        "referenceRange": [
          {
            "low": {
              "value": 0,
              "code": "mg/dL",
              "system": "http://unitsofmeasure.org"
            }
          },
          {
            "high": {
              "value": 199,
              "code": "mg/dL",
              "system": "http://unitsofmeasure.org"
            }
          }
        ],
        "text": {
          "status": "generated",
          "div": "<div xmlns=\"http://www.w3.org/1999/xhtml\"><table class=\"hl7__eu__lab__report\"><tr><th>Test</th><th>28-Feb-2019</th><th>Reference&#xA0;Range</th><th>Unit</th></tr><tr><td>Triglyceride [Mass/volume] in Serum or Plasma</td><td>100.6</td><td>0 - 199</td><td></td><td>mg/dL</td></tr></table></div>"
        },
        "status": "final",
        "subject": {
          "reference": "urn:uuid:2fc6100b-0069-40f8-92cd-72ea80d6d92c",
          "display": "Pelayo Casal"
        },
        "effectiveDateTime": "2019-02-28T05:38:59Z",
        "specimen": {
          "reference": "urn:uuid:5ff73f60-67c2-4fe5-95b3-0eda157d37b7"
        }
      }
    },
    {
      "fullUrl": "urn:uuid:20805dc0-fbde-4c9d-bc8f-83c2965ee292",
      "resource": {
        "resourceType": "Observation",
        "id": "20805dc0-fbde-4c9d-bc8f-83c2965ee292",
        "meta": {
          "profile": [
            "http://hl7.eu/fhir/laboratory/StructureDefinition/Observation-resultslab-eu-lab"
          ]
        },
        "performer": [
          {
            "display": "The Central European Lab"
          }
        ],
        "category": [
          {
            "coding": [
              {
                "system": "http://terminology.hl7.org/CodeSystem/observation-category",
                "code": "laboratory"
              }
            ]
          }
        ],
        "code": {
          "coding": [
            {
              "code": "18262-6",
              "system": "http://loinc.org",
              "display": "Cholesterol in LDL [Mass/volume] in Serum or Plasma by Direct assay"
            }
          ],
          "text": "Cholesterol in LDL [Mass/volume] in Serum or Plasma by Direct assay"
        },
        "valueQuantity": {
          "system": "http://unitsofmeasure.org",
          "value": 54.9,
          "unit": "mg/dL",
          "code": "mg/dL"
        },
        "referenceRange": [
          {
            "low": {
              "value": 0,
              "code": "mg/dL",
              "system": "http://unitsofmeasure.org"
            }
          },
          {
            "high": {
              "value": 130,
              "code": "mg/dL",
              "system": "http://unitsofmeasure.org"
            }
          }
        ],
        "text": {
          "status": "generated",
          "div": "<div xmlns=\"http://www.w3.org/1999/xhtml\"><table class=\"hl7__eu__lab__report\"><tr><th>Test</th><th>28-Feb-2019</th><th>Reference&#xA0;Range</th><th>Unit</th></tr><tr><td>Cholesterol in LDL [Mass/volume] in Serum or Plasma by Direct assay</td><td>54.9</td><td>0 - 130</td><td></td><td>mg/dL</td></tr></table></div>"
        },
        "status": "final",
        "subject": {
          "reference": "urn:uuid:2fc6100b-0069-40f8-92cd-72ea80d6d92c",
          "display": "Pelayo Casal"
        },
        "effectiveDateTime": "2019-02-28T05:38:59Z",
        "specimen": {
          "reference": "urn:uuid:5ff73f60-67c2-4fe5-95b3-0eda157d37b7"
        }
      }
    },
    {
      "fullUrl": "urn:uuid:b77e1614-df93-42a3-a13a-09d65478ac71",
      "resource": {
        "resourceType": "Observation",
        "id": "b77e1614-df93-42a3-a13a-09d65478ac71",
        "meta": {
          "profile": [
            "http://hl7.eu/fhir/laboratory/StructureDefinition/Observation-resultslab-eu-lab"
          ]
        },
        "performer": [
          {
            "display": "The Central European Lab"
          }
        ],
        "category": [
          {
            "coding": [
              {
                "system": "http://terminology.hl7.org/CodeSystem/observation-category",
                "code": "laboratory"
              }
            ]
          }
        ],
        "code": {
          "coding": [
            {
              "code": "2085-9",
              "system": "http://loinc.org",
              "display": "Cholesterol in HDL [Mass/volume] in Serum or Plasma"
            }
          ],
          "text": "Cholesterol in HDL [Mass/volume] in Serum or Plasma"
        },
        "valueQuantity": {
          "system": "http://unitsofmeasure.org",
          "value": 57.5,
          "unit": "mg/dL",
          "code": "mg/dL"
        },
        "referenceRange": [
          {
            "low": {
              "value": 40,
              "code": "mg/dL",
              "system": "http://unitsofmeasure.org"
            }
          },
          {
            "high": {
              "value": 65,
              "code": "mg/dL",
              "system": "http://unitsofmeasure.org"
            }
          }
        ],
        "text": {
          "status": "generated",
          "div": "<div xmlns=\"http://www.w3.org/1999/xhtml\"><table class=\"hl7__eu__lab__report\"><tr><th>Test</th><th>28-Feb-2019</th><th>Reference&#xA0;Range</th><th>Unit</th></tr><tr><td>Cholesterol in HDL [Mass/volume] in Serum or Plasma</td><td>57.5</td><td>40 - 65</td><td></td><td>mg/dL</td></tr></table></div>"
        },
        "status": "final",
        "subject": {
          "reference": "urn:uuid:2fc6100b-0069-40f8-92cd-72ea80d6d92c",
          "display": "Pelayo Casal"
        },
        "effectiveDateTime": "2019-02-28T05:38:59Z",
        "specimen": {
          "reference": "urn:uuid:5ff73f60-67c2-4fe5-95b3-0eda157d37b7"
        }
      }
    },
    {
      "fullUrl": "urn:uuid:40f9a0a0-4143-4e03-8a5c-a8b8482336a7",
      "resource": {
        "resourceType": "Device",
        "id": "40f9a0a0-4143-4e03-8a5c-a8b8482336a7",
        "deviceName": [
          {
            "name": "SYNDERAI Synthetic Generator",
            "type": "manufacturer-name"
          }
        ],
        "version": [
          {
            "value": "5.0"
          }
        ],
        "text": {
          "status": "generated",
          "div": "<div xmlns=\"http://www.w3.org/1999/xhtml\">SYNDERAI Synthetic Generator v5.0</div>"
        },
        "status": "active\"",
        "distinctIdentifier": "synderai-generator-50",
        "manufacturer": "SYNDERAI Project"
      }
    },
    {
      "fullUrl": "urn:uuid:15c6db21-916d-494f-a947-fa84909b3679",
      "resource": {
        "resourceType": "Provenance",
        "id": "15c6db21-916d-494f-a947-fa84909b3679",
        "target": [
          {
            "reference": "Patient/2fc6100b-0069-40f8-92cd-72ea80d6d92c"
          },
          {
            "reference": "Bundle/d1cf1590-bd7a-445b-a4b1-c55dda98103b"
          },
          {
            "reference": "Composition/6cf1d4c2-69bd-420d-904c-6e07b31a3b09"
          },
          {
            "reference": "PractitionerRole/09cdc6ac-daa7-4872-8dde-ce179a12b2ce"
          },
          {
            "reference": "Practitioner/0c67c587-0220-400b-8aca-b90c05fd48a3"
          },
          {
            "reference": "PractitionerRole/ae3f0b32-240a-4a40-8f6e-af277accffe5"
          },
          {
            "reference": "Organization/d61b929c-f71e-45e8-b9b1-fe408fa62bf4"
          }
        ],
        "activity": {
          "text": "Synthetic Example Data Generation"
        },
        "policy": [
          "https://synderai.net/synderai-synthetic-data-policy"
        ],
        "agent": [
          {
            "type": {
              "text": "author"
            },
            "who": {
              "reference": "Device/40f9a0a0-4143-4e03-8a5c-a8b8482336a7"
            }
          }
        ],
        "reason": [
          {
            "text": "Interoperability Testing and Training (non-clinical use)"
          }
        ],
        "text": {
          "status": "generated",
          "div": "<div xmlns=\"http://www.w3.org/1999/xhtml\">Provenance for SYNDERAI Synthetic Example Data Resource</div>"
        },
        "recorded": "2019-02-28T06:38:59Z"
      }
    },
    {
      "fullUrl": "urn:uuid:09cdc6ac-daa7-4872-8dde-ce179a12b2ce",
      "resource": {
        "resourceType": "PractitionerRole",
        "id": "09cdc6ac-daa7-4872-8dde-ce179a12b2ce",
        "meta": {
          "profile": [
            "http://hl7.eu/fhir/base/StructureDefinition/practitionerRole-eu"
          ]
        },
        "text": {
          "status": "generated",
          "div": "<div xmlns=\"http://www.w3.org/1999/xhtml\">Laboratory Role Id: 09cdc6ac-daa7-4872-8dde-ce179a12b2ce</div>"
        },
        "practitioner": {
          "reference": "urn:uuid:0c67c587-0220-400b-8aca-b90c05fd48a3"
        }
      }
    },
    {
      "fullUrl": "urn:uuid:0c67c587-0220-400b-8aca-b90c05fd48a3",
      "resource": {
        "resourceType": "Practitioner",
        "id": "0c67c587-0220-400b-8aca-b90c05fd48a3",
        "meta": {
          "profile": [
            "http://hl7.eu/fhir/base/StructureDefinition/practitioner-eu"
          ]
        },
        "identifier": [
          {
            "assigner": {
              "display": "HL7 Europe"
            },
            "system": "urn:oid:2.16.840.1.113883.2.51.999",
            "value": "98db18ea-599a-40e3-83b7-1dd3af73a9c6"
          }
        ],
        "name": [
          {
            "prefix": [
              "dr"
            ],
            "given": [
              "Ex"
            ],
            "family": "Ample"
          }
        ],
        "address": [
          {
            "line": [
              "Laboratoire Central Européenne",
              "Boulevard du Jardin Botanique 32"
            ],
            "postalCode": "1000",
            "city": "Brussels",
            "country": "Belgium"
          }
        ],
        "text": {
          "status": "generated",
          "div": "<div xmlns=\"http://www.w3.org/1999/xhtml\">Laboratory: Laboratoire Central Européenne, 1000 Brussels, Belgium</div>"
        }
      }
    }
  ],
  "type": "document",
  "timestamp": "2019-02-28T06:38:59Z"
}
