<Bundle xmlns="http://hl7.org/fhir">
   <id value="699be0d3-5cc9-4d22-aeb0-83905d225218"/>
   <meta>
      <profile value="http://hl7.eu/fhir/laboratory/StructureDefinition/Bundle-eu-lab"/>
   </meta>
   <identifier>
      <system value="urn:oid:2.16.840.1.113883.2.51.999"/>
      <value value="4b422c02-d3a9-41b2-8207-488aa57860f2"/>
      <assigner>
         <display value="HL7 Europe"/>
      </assigner>
   </identifier>
   <type value="document"/>
   <timestamp value="2021-06-08T00:11:04Z"/>
   <entry>
      <fullUrl value="urn:uuid:f2efe11d-ffbe-4b0e-bab1-38d9f284ef14"/>
      <resource>
         <Composition>
            <id value="f2efe11d-ffbe-4b0e-bab1-38d9f284ef14"/>
            <meta>
               <profile value="http://hl7.eu/fhir/laboratory/StructureDefinition/Composition-eu-lab"/>
            </meta>
            <identifier>
               <system value="urn:oid:2.16.840.1.113883.2.51.999"/>
               <value value="e369a42f-78d2-4393-868a-da775c5c58cf"/>
               <assigner>
                  <display value="HL7 Europe"/>
               </assigner>
            </identifier>
            <status value="final"/>
            <type>
               <coding>
                  <system value="http://loinc.org"/>
                  <code value="11502-2"/>
                  <display value="Laboratory report"/>
               </coding>
               <text value="Laboratory Report"/>
            </type>
            <category>
               <coding>
                  <system value="http://loinc.org"/>
                  <code value="26436-6"/>
                  <display value="Laboratory studies (set)"/>
               </coding>
            </category>
            <subject>
               <reference value="urn:uuid:30e7bdd5-13ff-4a27-95f7-8960682630da"/>
               <display value="Meaghan Neary"/>
            </subject>
            <date value="2021-06-08T00:11:04Z"/>
            <author>
               <reference value="urn:uuid:8c6e5e0d-781f-47b7-9a43-38893dbfee40"/>
            </author>
            <title value="Laboratory Report"/>
            <confidentiality value="N"/>
            <section>
               <title value="Laboratory Report"/>
               <code>
                  <coding>
                     <system value="http://loinc.org"/>
                     <code value="26436-6"/>
                     <display value="Laboratory studies (set)"/>
                  </coding>
                  <text value="Laboratory studies"/>
               </code>
               <section>
                  <title value="Chemistry"/>
                  <code>
                     <coding>
                        <system value="http://loinc.org"/>
                        <code value="$18719-5"/>
                        <display value="Chemistry studies (set)"/>
                     </coding>
                     <text value="Chemistry"/>
                  </code>
                  <text>
                     <status value="generated"/>
                     <div xmlns="http://www.w3.org/1999/xhtml">
                        <h3>Chemistry</h3>
                        <table class="hl7__eu__lab__report">
                           <thead>
                              <tr>
                                 <th>Test</th>
                                 <th>08-JUN-2021</th>
                                 <th>Reference Range</th>
                                 <th>Unit</th>
                              </tr>
                           </thead>
                           <tbody>
                              <tr>
                                 <td>Glucose [Mass/volume] in Serum or Plasma</td>
                                 <td>78.6</td>
                                 <td>70 - 99</td>
                                 <td>mg/dL</td>
                              </tr>
                              <tr>
                                 <td>Urea nitrogen [Mass/volume] in Serum or Plasma</td>
                                 <td>12.8</td>
                                 <td>7 - 50</td>
                                 <td>mg/dL</td>
                              </tr>
                              <tr>
                                 <td>Creatinine [Mass/volume] in Serum or Plasma</td>
                                 <td>
                                    <strong>2.1 H</strong>
                                 </td>
                                 <td>0.6 - 1.1</td>
                                 <td>mg/dL</td>
                              </tr>
                              <tr>
                                 <td>Calcium [Mass/volume] in Serum or Plasma</td>
                                 <td>8.9</td>
                                 <td>8.6 - 10.4</td>
                                 <td>mg/dL</td>
                              </tr>
                              <tr>
                                 <td>Sodium [Moles/volume] in Serum or Plasma</td>
                                 <td>137.7</td>
                                 <td>135 - 145</td>
                                 <td>mmol/L</td>
                              </tr>
                              <tr>
                                 <td>Potassium [Moles/volume] in Serum or Plasma</td>
                                 <td>4.5</td>
                                 <td>3.5 - 5.1</td>
                                 <td>mmol/L</td>
                              </tr>
                              <tr>
                                 <td>Chloride [Moles/volume] in Serum or Plasma</td>
                                 <td>
                                    <strong>110.4 H</strong>
                                 </td>
                                 <td>98 - 108</td>
                                 <td>mmol/L</td>
                              </tr>
                              <tr>
                                 <td>Carbon dioxide, total [Moles/volume] in Serum or Plasma</td>
                                 <td>
                                    <strong>21.6 L</strong>
                                 </td>
                                 <td>22 - 32</td>
                                 <td>mmol/L</td>
                              </tr>
                              <tr>
                                 <td>Ketones [Presence] in Urine by Test strip</td>
                                 <td>Urine ketone test = ++</td>
                                 <td/>
                                 <td/>
                              </tr>
                              <tr>
                                 <td>Hemoglobin A1c/Hemoglobin.total in Blood</td>
                                 <td>
                                    <strong>3.1 L</strong>
                                 </td>
                                 <td>4 - 6.4</td>
                                 <td>%</td>
                              </tr>
                              <tr>
                                 <td>Glucose [Mass/volume] in Blood</td>
                                 <td>78.6</td>
                                 <td>70 - 100</td>
                                 <td>mg/dL</td>
                              </tr>
                              <tr>
                                 <td>Urea nitrogen [Mass/volume] in Blood</td>
                                 <td>12.8</td>
                                 <td>7 - 43</td>
                                 <td>mg/dL</td>
                              </tr>
                              <tr>
                                 <td>Creatinine [Mass/volume] in Blood</td>
                                 <td>
                                    <strong>3.8 H</strong>
                                 </td>
                                 <td>0.6 - 1.1</td>
                                 <td>mg/dL</td>
                              </tr>
                              <tr>
                                 <td>Calcium [Mass/volume] in Blood</td>
                                 <td>8.9</td>
                                 <td>8.5 - 10.5</td>
                                 <td>mg/dL</td>
                              </tr>
                              <tr>
                                 <td>Sodium [Moles/volume] in Blood</td>
                                 <td>137.7</td>
                                 <td>135 - 145</td>
                                 <td>mmol/L</td>
                              </tr>
                              <tr>
                                 <td>Potassium [Moles/volume] in Blood</td>
                                 <td>4.5</td>
                                 <td>3.5 - 5.1</td>
                                 <td>mmol/L</td>
                              </tr>
                              <tr>
                                 <td>Chloride [Moles/volume] in Blood</td>
                                 <td>
                                    <strong>110.4 H</strong>
                                 </td>
                                 <td>98 - 108</td>
                                 <td>mmol/L</td>
                              </tr>
                              <tr>
                                 <td>Carbon dioxide, total [Moles/volume] in Blood</td>
                                 <td>
                                    <strong>21.6 L</strong>
                                 </td>
                                 <td>22 - 29</td>
                                 <td>mmol/L</td>
                              </tr>
                           </tbody>
                        </table>
                     </div>
                  </text>
                  <entry>
                     <reference value="urn:uuid:cedc5f64-29a8-4bf4-9d5d-a6b1e8691ae0"/>
                  </entry>
                  <entry>
                     <reference value="urn:uuid:ef19aecf-9f76-4074-a759-0062184d89b0"/>
                  </entry>
                  <entry>
                     <reference value="urn:uuid:895b3780-9ff4-4d22-a99d-28e44900dadd"/>
                  </entry>
                  <entry>
                     <reference value="urn:uuid:95bded2c-155d-40fa-9195-c4664700300b"/>
                  </entry>
                  <entry>
                     <reference value="urn:uuid:e132d3fb-3a62-442f-9007-76932e49f4d8"/>
                  </entry>
                  <entry>
                     <reference value="urn:uuid:47be4c15-e83c-4044-9d27-84d7f0f953e4"/>
                  </entry>
                  <entry>
                     <reference value="urn:uuid:24c0253a-1258-491a-acca-c40edb19ef71"/>
                  </entry>
                  <entry>
                     <reference value="urn:uuid:9c5863a0-435c-4c51-8ef7-03f28bba4779"/>
                  </entry>
                  <entry>
                     <reference value="urn:uuid:cd07ca14-3b9a-40a7-a731-e2b16ae66efc"/>
                  </entry>
                  <entry>
                     <reference value="urn:uuid:446f9a77-06a9-474c-b4dc-3f42d50b9419"/>
                  </entry>
                  <entry>
                     <reference value="urn:uuid:ea0543ef-2b52-4770-ad31-f95502acb18d"/>
                  </entry>
                  <entry>
                     <reference value="urn:uuid:1d662749-6fe1-49c0-95ad-6d193f3c5840"/>
                  </entry>
                  <entry>
                     <reference value="urn:uuid:e4dfd2ea-5e08-4181-8a3a-569a516831b8"/>
                  </entry>
                  <entry>
                     <reference value="urn:uuid:abe6df77-7f40-4f6b-bbc9-a2a43e51d40e"/>
                  </entry>
                  <entry>
                     <reference value="urn:uuid:4d49b843-6525-43c0-a315-3aa97c843bbc"/>
                  </entry>
                  <entry>
                     <reference value="urn:uuid:56c8ebe8-4f30-49c2-967a-3bc5d5c0ddc1"/>
                  </entry>
                  <entry>
                     <reference value="urn:uuid:955acd42-dc23-47d2-9990-0dbfe98cea85"/>
                  </entry>
                  <entry>
                     <reference value="urn:uuid:c9ddaa6d-1815-4a52-a135-b6a64b5cc833"/>
                  </entry>
               </section>
               <section>
                  <title value="Urinalysis"/>
                  <code>
                     <coding>
                        <system value="http://loinc.org"/>
                        <code value="$18729-4"/>
                        <display value="Urinalysis studies (set)"/>
                     </coding>
                     <text value="Urinalysis"/>
                  </code>
                  <text>
                     <status value="generated"/>
                     <div xmlns="http://www.w3.org/1999/xhtml">
                        <h3>Urinalysis</h3>
                        <table class="hl7__eu__lab__report">
                           <thead>
                              <tr>
                                 <th>Test</th>
                                 <th>08-JUN-2021</th>
                                 <th>Reference Range</th>
                                 <th>Unit</th>
                              </tr>
                           </thead>
                           <tbody>
                              <tr>
                                 <td>Glucose [Mass/volume] in Urine by Test strip</td>
                                 <td>
                                    <strong>0.6 L</strong>
                                 </td>
                                 <td>0.8 - 0</td>
                                 <td>mg/dL</td>
                              </tr>
                              <tr>
                                 <td>Glucose [Presence] in Urine by Test strip</td>
                                 <td>++</td>
                                 <td/>
                                 <td/>
                              </tr>
                              <tr>
                                 <td>Bilirubin.total [Mass/volume] in Urine by Test strip</td>
                                 <td>0.4</td>
                                 <td>0 - 1</td>
                                 <td>mg/dL</td>
                              </tr>
                              <tr>
                                 <td>Bilirubin.total [Presence] in Urine by Test strip</td>
                                 <td>Finding of bilirubin in urine</td>
                                 <td/>
                                 <td/>
                              </tr>
                              <tr>
                                 <td>Ketones [Mass/volume] in Urine by Test strip</td>
                                 <td>1.7</td>
                                 <td>0 - 4</td>
                                 <td>mg/dL</td>
                              </tr>
                              <tr>
                                 <td>Specific gravity of Urine by Test strip</td>
                                 <td>
                                    <strong>1.0 L</strong>
                                 </td>
                                 <td>1.005 - 1.03</td>
                                 <td>{nominal}</td>
                              </tr>
                              <tr>
                                 <td>pH of Urine by Test strip</td>
                                 <td>6.0</td>
                                 <td>4.6 - 7</td>
                                 <td>pH</td>
                              </tr>
                              <tr>
                                 <td>Protein [Mass/volume] in Urine by Test strip</td>
                                 <td>
                                    <strong>260.6 H</strong>
                                 </td>
                                 <td>0 - 14</td>
                                 <td>mg/dL</td>
                              </tr>
                              <tr>
                                 <td>Protein [Presence] in Urine by Test strip</td>
                                 <td>Urine protein test = ++</td>
                                 <td/>
                                 <td/>
                              </tr>
                              <tr>
                                 <td>Nitrite [Presence] in Urine by Test strip</td>
                                 <td>Urine nitrite negative</td>
                                 <td/>
                                 <td/>
                              </tr>
                              <tr>
                                 <td>Hemoglobin [Presence] in Urine by Test strip</td>
                                 <td>Urine blood test = negative</td>
                                 <td/>
                                 <td/>
                              </tr>
                              <tr>
                                 <td>Leukocyte esterase [Presence] in Urine by Test strip</td>
                                 <td>Urine leukocyte test negative</td>
                                 <td/>
                                 <td/>
                              </tr>
                           </tbody>
                        </table>
                     </div>
                  </text>
                  <entry>
                     <reference value="urn:uuid:b068b23b-e62e-4688-bc76-2c9e4c7a659a"/>
                  </entry>
                  <entry>
                     <reference value="urn:uuid:74b4fc4b-ca06-4678-a2b6-ff9db5710c53"/>
                  </entry>
                  <entry>
                     <reference value="urn:uuid:5f568a86-a41f-4623-a69b-b9e396f114ad"/>
                  </entry>
                  <entry>
                     <reference value="urn:uuid:bde3fa12-a3e0-4554-817e-ddc09a4a9206"/>
                  </entry>
                  <entry>
                     <reference value="urn:uuid:75f7a035-98bb-430a-96c7-c15f464dd8eb"/>
                  </entry>
                  <entry>
                     <reference value="urn:uuid:aa21ee59-43c0-45f6-8a59-1589bd944026"/>
                  </entry>
                  <entry>
                     <reference value="urn:uuid:d8ef78b8-ce4a-4611-a7bb-d7ce5413981f"/>
                  </entry>
                  <entry>
                     <reference value="urn:uuid:95e66975-db0d-4956-a57e-bf334a5c8038"/>
                  </entry>
                  <entry>
                     <reference value="urn:uuid:cdca43f9-961a-42e0-b6e4-93a165a28422"/>
                  </entry>
                  <entry>
                     <reference value="urn:uuid:8885e884-93b6-46af-9c31-1b376759e71e"/>
                  </entry>
                  <entry>
                     <reference value="urn:uuid:abf0efaa-ee61-45d1-be73-752e1dd065b8"/>
                  </entry>
                  <entry>
                     <reference value="urn:uuid:4bcb4f04-2e61-4ebc-a6c8-788eee8ba998"/>
                  </entry>
               </section>
               <section>
                  <title value="Specimen information"/>
                  <code>
                     <coding>
                        <system value="http://loinc.org"/>
                        <code value="$LP7846-1"/>
                        <display value="Specimen information"/>
                     </coding>
                     <text value="Specimen information"/>
                  </code>
                  <text>
                     <status value="generated"/>
                     <div xmlns="http://www.w3.org/1999/xhtml">
                        <h3>Specimen information</h3>
                        <table class="hl7__eu__lab__report">
                           <thead>
                              <tr>
                                 <th>Test</th>
                                 <th>08-JUN-2021</th>
                                 <th>Specimen</th>
                                 <th/>
                              </tr>
                           </thead>
                           <tbody>
                              <tr>
                                 <td>Appearance of Urine</td>
                                 <td>Cloudy urine</td>
                                 <td>Urine</td>
                                 <td/>
                              </tr>
                              <tr>
                                 <td>Odor of Urine</td>
                                 <td>Urine smell ammoniacal</td>
                                 <td>Urine</td>
                                 <td/>
                              </tr>
                              <tr>
                                 <td>Clarity of Urine</td>
                                 <td>Translucent</td>
                                 <td>Urine</td>
                                 <td/>
                              </tr>
                              <tr>
                                 <td>Color of Urine</td>
                                 <td>Brown color</td>
                                 <td>Urine</td>
                                 <td/>
                              </tr>
                           </tbody>
                        </table>
                     </div>
                  </text>
                  <entry>
                     <reference value="urn:uuid:f2e141fe-7f0c-410e-b903-61816ac8eee3"/>
                  </entry>
                  <entry>
                     <reference value="urn:uuid:33d2b1c2-b440-450c-8ab9-731d85b861a2"/>
                  </entry>
                  <entry>
                     <reference value="urn:uuid:569a195d-df97-4937-9117-d3be3f820775"/>
                  </entry>
                  <entry>
                     <reference value="urn:uuid:63149b54-35e1-4124-a0cd-c057baa70751"/>
                  </entry>
               </section>
            </section>
            <section>
               <title value="Annotation comment"/>
               <code>
                  <coding>
                     <system value="http://loinc.org"/>
                     <code value="48767-8"/>
                     <display value="Annotation comment"/>
                  </coding>
               </code>
               <text>
                  <status value="generated"/>
                  <div xmlns="http://www.w3.org/1999/xhtml">
                     <h3>Annotation</h3>
                     <table class="hl7__eu__lab__report">
                        <tr>
                           <th>Conclusion and Recommendations based on this report and previous findings known to us</th>
                        </tr>
                        <tr>
                           <td>The patient shows markedly elevated creatinine, proteinuria, low urine specific gravity, and abnormal urine appearance, suggesting significant renal impairment, possibly chronic kidney disease. Metabolic acidosis is indicated by low CO₂ and high chloride. There is also glucosuria and ketonuria despite low-normal blood glucose and low HbA1c, which may suggest renal glycosuria or tubular dysfunction. Further nephrological evaluation is strongly recommended.</td>
                        </tr>
                     </table>
                  </div>
               </text>
            </section>
         </Composition>
      </resource>
   </entry>
   <entry>
      <fullUrl value="urn:uuid:3861f245-af97-4a6c-8293-25fd7d9052ae"/>
      <resource>
         <DiagnosticReport>
            <id value="3861f245-af97-4a6c-8293-25fd7d9052ae"/>
            <meta>
               <profile value="http://hl7.eu/fhir/laboratory/StructureDefinition/DiagnosticReport-eu-lab"/>
            </meta>
            <extension url="http://hl7.org/fhir/5.0/StructureDefinition/extension-DiagnosticReport.composition">
               <valueReference>
                  <reference value="urn:uuid:e369a42f-78d2-4393-868a-da775c5c58cf"/>
               </valueReference>
            </extension>
            <identifier>
               <system value="urn:oid:2.16.840.1.113883.2.51.999"/>
               <value value="8a099771-f800-4c4a-877b-e4ec24b5280a"/>
               <assigner>
                  <display value="HL7 Europe"/>
               </assigner>
            </identifier>
            <status value="registered"/>
            <category>
               <coding>
                  <system value="http://loinc.org"/>
                  <code value="26436-6"/>
                  <display value="Laboratory studies (set)"/>
               </coding>
            </category>
            <code>
               <coding>
                  <system value="http://loinc.org"/>
                  <code value="11502-2"/>
                  <display value="Laboratory report"/>
               </coding>
            </code>
            <subject>
               <reference value="urn:uuid:30e7bdd5-13ff-4a27-95f7-8960682630da"/>
               <display value="Meaghan Neary"/>
            </subject>
            <specimen>
               <reference value="urn:uuid:052cf5a3-8c0d-437a-9588-06d56c8cd972"/>
            </specimen>
            <specimen>
               <reference value="urn:uuid:e32346cb-a98b-4e64-861e-1807c02dd650"/>
            </specimen>
            <specimen>
               <reference value="urn:uuid:0d85154e-1ee6-4629-bc4d-a6eac184a8fa"/>
            </specimen>
            <result>
               <reference value="urn:uuid:cedc5f64-29a8-4bf4-9d5d-a6b1e8691ae0"/>
            </result>
            <result>
               <reference value="urn:uuid:ef19aecf-9f76-4074-a759-0062184d89b0"/>
            </result>
            <result>
               <reference value="urn:uuid:895b3780-9ff4-4d22-a99d-28e44900dadd"/>
            </result>
            <result>
               <reference value="urn:uuid:95bded2c-155d-40fa-9195-c4664700300b"/>
            </result>
            <result>
               <reference value="urn:uuid:e132d3fb-3a62-442f-9007-76932e49f4d8"/>
            </result>
            <result>
               <reference value="urn:uuid:47be4c15-e83c-4044-9d27-84d7f0f953e4"/>
            </result>
            <result>
               <reference value="urn:uuid:24c0253a-1258-491a-acca-c40edb19ef71"/>
            </result>
            <result>
               <reference value="urn:uuid:9c5863a0-435c-4c51-8ef7-03f28bba4779"/>
            </result>
            <result>
               <reference value="urn:uuid:f2e141fe-7f0c-410e-b903-61816ac8eee3"/>
            </result>
            <result>
               <reference value="urn:uuid:33d2b1c2-b440-450c-8ab9-731d85b861a2"/>
            </result>
            <result>
               <reference value="urn:uuid:569a195d-df97-4937-9117-d3be3f820775"/>
            </result>
            <result>
               <reference value="urn:uuid:63149b54-35e1-4124-a0cd-c057baa70751"/>
            </result>
            <result>
               <reference value="urn:uuid:b068b23b-e62e-4688-bc76-2c9e4c7a659a"/>
            </result>
            <result>
               <reference value="urn:uuid:74b4fc4b-ca06-4678-a2b6-ff9db5710c53"/>
            </result>
            <result>
               <reference value="urn:uuid:5f568a86-a41f-4623-a69b-b9e396f114ad"/>
            </result>
            <result>
               <reference value="urn:uuid:bde3fa12-a3e0-4554-817e-ddc09a4a9206"/>
            </result>
            <result>
               <reference value="urn:uuid:75f7a035-98bb-430a-96c7-c15f464dd8eb"/>
            </result>
            <result>
               <reference value="urn:uuid:cd07ca14-3b9a-40a7-a731-e2b16ae66efc"/>
            </result>
            <result>
               <reference value="urn:uuid:aa21ee59-43c0-45f6-8a59-1589bd944026"/>
            </result>
            <result>
               <reference value="urn:uuid:d8ef78b8-ce4a-4611-a7bb-d7ce5413981f"/>
            </result>
            <result>
               <reference value="urn:uuid:95e66975-db0d-4956-a57e-bf334a5c8038"/>
            </result>
            <result>
               <reference value="urn:uuid:cdca43f9-961a-42e0-b6e4-93a165a28422"/>
            </result>
            <result>
               <reference value="urn:uuid:8885e884-93b6-46af-9c31-1b376759e71e"/>
            </result>
            <result>
               <reference value="urn:uuid:abf0efaa-ee61-45d1-be73-752e1dd065b8"/>
            </result>
            <result>
               <reference value="urn:uuid:4bcb4f04-2e61-4ebc-a6c8-788eee8ba998"/>
            </result>
            <result>
               <reference value="urn:uuid:446f9a77-06a9-474c-b4dc-3f42d50b9419"/>
            </result>
            <result>
               <reference value="urn:uuid:ea0543ef-2b52-4770-ad31-f95502acb18d"/>
            </result>
            <result>
               <reference value="urn:uuid:1d662749-6fe1-49c0-95ad-6d193f3c5840"/>
            </result>
            <result>
               <reference value="urn:uuid:e4dfd2ea-5e08-4181-8a3a-569a516831b8"/>
            </result>
            <result>
               <reference value="urn:uuid:abe6df77-7f40-4f6b-bbc9-a2a43e51d40e"/>
            </result>
            <result>
               <reference value="urn:uuid:4d49b843-6525-43c0-a315-3aa97c843bbc"/>
            </result>
            <result>
               <reference value="urn:uuid:56c8ebe8-4f30-49c2-967a-3bc5d5c0ddc1"/>
            </result>
            <result>
               <reference value="urn:uuid:955acd42-dc23-47d2-9990-0dbfe98cea85"/>
            </result>
            <result>
               <reference value="urn:uuid:c9ddaa6d-1815-4a52-a135-b6a64b5cc833"/>
            </result>
         </DiagnosticReport>
      </resource>
   </entry>
   <entry>
      <fullUrl value="urn:uuid:30e7bdd5-13ff-4a27-95f7-8960682630da"/>
      <resource>
         <Patient>
            <id value="30e7bdd5-13ff-4a27-95f7-8960682630da"/>
            <meta>
               <profile value="http://hl7.eu/fhir/base/StructureDefinition/patient-eu-core"/>
               <security>
                  <system value="http://terminology.hl7.org/CodeSystem/v3-ActReason"/>
                  <code value="HTEST"/>
               </security>
               <security>
                  <system value="http://terminology.hl7.org/CodeSystem/v3-ActReason"/>
                  <code value="TRAIN"/>
               </security>
               <tag>
                  <system value="https://synderai.net/fhir/CodeSystem/tags"/>
                  <code value="synthetic"/>
                  <display value="SYNDERAI Synthetic data"/>
               </tag>
            </meta>
            <text>
               <status value="generated"/>
               <div xmlns="http://www.w3.org/1999/xhtml">
                  <table class="hl7__ips">
                     <tr>
                        <td>Meaghan Neary</td>
                        <td>female</td>
                        <td>19-Dec-1960</td>
                     </tr>
                  </table>
               </div>
            </text>
            <extension url="http://hl7.org/fhir/StructureDefinition/patient-nationality">
               <valueCodeableConcept>
                  <coding>
                     <system value="http://hl7.org/fhir/ValueSet/country"/>
                     <code value="IE"/>
                  </coding>
               </valueCodeableConcept>
            </extension>
            <identifier>
               <type>
                  <coding>
                     <system value="http://terminology.hl7.org/CodeSystem/v2-0203"/>
                     <code value="PT"/>
                  </coding>
               </type>
               <system value="http://ec.europa.eu/identifier/eci"/>
               <value value="1586-567257-8"/>
            </identifier>
            <identifier>
               <type>
                  <coding>
                     <system value="http://terminology.hl7.org/CodeSystem/v2-0203"/>
                     <code value="MR"/>
                  </coding>
               </type>
               <system value="http://local.setting.eu/identifier"/>
               <value value="443e6379-f231-b364-3ccb-644740a1aa2a"/>
            </identifier>
            <name>
               <family value="Neary"/>
            </name>
            <name>
               <given value="Meaghan"/>
            </name>
            <name>
               <text value="Meaghan Neary"/>
            </name>
            <telecom>
               <system value="phone"/>
               <value value="001-967-573-0911x465"/>
            </telecom>
            <gender value="female"/>
            <birthDate value="1960-12-19"/>
            <address>
               <use value="home"/>
               <type value="physical"/>
               <line value="64 Linskey Street"/>
               <city value="Dublin"/>
               <postalCode value="D02"/>
               <country value="Ireland"/>
            </address>
         </Patient>
      </resource>
   </entry>
   <entry>
      <fullUrl value="urn:uuid:9641e323-d67c-493a-a1b9-6eb3a439f4a7"/>
      <resource>
         <ServiceRequest>
            <id value="9641e323-d67c-493a-a1b9-6eb3a439f4a7"/>
            <meta>
               <profile value="http://hl7.eu/fhir/laboratory/StructureDefinition/ServiceRequest-eu-lab"/>
            </meta>
            <identifier>
               <system value="http://example.org"/>
               <value value="0c110739-4459-4e16-8452-012932d1590d"/>
            </identifier>
            <status value="active"/>
            <intent value="order"/>
            <code>
               <coding>
                  <system value="http://snomed.info/sct"/>
                  <code value="108252007"/>
                  <display value="Laboratory procedure"/>
               </coding>
            </code>
            <subject>
               <reference value="urn:uuid:30e7bdd5-13ff-4a27-95f7-8960682630da"/>
               <display value="Meaghan Neary"/>
            </subject>
            <requester>
               <reference value="urn:uuid:b40fbc9e-f54b-4b84-8c7b-fa9a9e6358c7"/>
            </requester>
            <reasonCode>
               <coding>
                  <system value="http://snomed.info/sct"/>
                  <code value="55822004"/>
                  <display value="Hyperlipidemia"/>
               </coding>
            </reasonCode>
            <reasonCode>
               <coding>
                  <system value="http://snomed.info/sct"/>
                  <code value="433144002"/>
                  <display value="Chronic kidney disease stage 3"/>
               </coding>
            </reasonCode>
            <reasonCode>
               <coding>
                  <system value="http://snomed.info/sct"/>
                  <code value="157141000119108"/>
                  <display value="Proteinuria due to type 2 diabetes mellitus"/>
               </coding>
            </reasonCode>
            <reasonCode>
               <coding>
                  <system value="http://snomed.info/sct"/>
                  <code value="431856006"/>
                  <display value="Chronic kidney disease stage 2"/>
               </coding>
            </reasonCode>
            <reasonCode>
               <coding>
                  <system value="http://snomed.info/sct"/>
                  <code value="90781000119102"/>
                  <display value="Microalbuminuria due to type 2 diabetes mellitus"/>
               </coding>
            </reasonCode>
            <reasonCode>
               <coding>
                  <system value="http://snomed.info/sct"/>
                  <code value="127013003"/>
                  <display value="Disorder of kidney due to diabetes mellitus"/>
               </coding>
            </reasonCode>
            <reasonCode>
               <coding>
                  <system value="http://snomed.info/sct"/>
                  <code value="431855005"/>
                  <display value="Chronic kidney disease stage 1"/>
               </coding>
            </reasonCode>
            <reasonCode>
               <coding>
                  <system value="http://snomed.info/sct"/>
                  <code value="237602007"/>
                  <display value="Metabolic syndrome X"/>
               </coding>
            </reasonCode>
            <reasonCode>
               <coding>
                  <system value="http://snomed.info/sct"/>
                  <code value="271737000"/>
                  <display value="Anemia"/>
               </coding>
            </reasonCode>
            <reasonCode>
               <coding>
                  <system value="http://snomed.info/sct"/>
                  <code value="15777000"/>
                  <display value="Prediabetes"/>
               </coding>
            </reasonCode>
            <reasonCode>
               <coding>
                  <system value="http://snomed.info/sct"/>
                  <code value="59621000"/>
                  <display value="Essential hypertension"/>
               </coding>
            </reasonCode>
            <specimen>
               <reference value="urn:uuid:052cf5a3-8c0d-437a-9588-06d56c8cd972"/>
            </specimen>
            <specimen>
               <reference value="urn:uuid:e32346cb-a98b-4e64-861e-1807c02dd650"/>
            </specimen>
            <specimen>
               <reference value="urn:uuid:0d85154e-1ee6-4629-bc4d-a6eac184a8fa"/>
            </specimen>
         </ServiceRequest>
      </resource>
   </entry>
   <entry>
      <fullUrl value="urn:uuid:b40fbc9e-f54b-4b84-8c7b-fa9a9e6358c7"/>
      <resource>
         <PractitionerRole>
            <id value="b40fbc9e-f54b-4b84-8c7b-fa9a9e6358c7"/>
            <meta>
               <profile value="http://hl7.eu/fhir/base/StructureDefinition/practitionerRole-eu"/>
            </meta>
            <text>
               <status value="generated"/>
               <div xmlns="http://www.w3.org/1999/xhtml">Provider Role Id: b40fbc9e-f54b-4b84-8c7b-fa9a9e6358c7</div>
            </text>
            <organization>
               <reference value="urn:uuid:8b8a4611-e730-4c7b-93c3-2e156cd68cf6"/>
            </organization>
         </PractitionerRole>
      </resource>
   </entry>
   <entry>
      <fullUrl value="urn:uuid:8b8a4611-e730-4c7b-93c3-2e156cd68cf6"/>
      <resource>
         <Organization>
            <id value="8b8a4611-e730-4c7b-93c3-2e156cd68cf6"/>
            <meta>
               <profile value="http://hl7.eu/fhir/base/StructureDefinition/organization-eu"/>
            </meta>
            <text>
               <status value="generated"/>
               <div xmlns="http://www.w3.org/1999/xhtml">Provider Organization: Rotunda Hospital</div>
            </text>
            <identifier>
               <system value="urn:oid:2.16.840.1.113883.2.51.999"/>
               <value value="a84eb15b-2280-4269-8385-e869a2f9a729"/>
               <assigner>
                  <display value="HL7 Europe"/>
               </assigner>
            </identifier>
            <name value="Rotunda Hospital"/>
            <address>
               <line value="Parnell Square West nan"/>
               <city value="Dublin"/>
               <postalCode value="D01"/>
               <country value="Ireland"/>
            </address>
         </Organization>
      </resource>
   </entry>
   <entry>
      <fullUrl value="urn:uuid:052cf5a3-8c0d-437a-9588-06d56c8cd972"/>
      <resource>
         <Specimen>
            <id value="052cf5a3-8c0d-437a-9588-06d56c8cd972"/>
            <meta>
               <profile value="http://hl7.eu/fhir/laboratory/StructureDefinition/Specimen-eu-lab"/>
            </meta>
            <text>
               <status value="generated"/>
               <div xmlns="http://www.w3.org/1999/xhtml">
                  <table class="hl7__eu__lab__report">
                     <tr>
                        <th>Specimen</th>
                        <th>Collection Date</th>
                     </tr>
                     <tr>
                        <td>Acellular blood (serum or plasma) specimen</td>
                        <td>
                           <span class="nb">07-Jun-2021</span>
                        </td>
                     </tr>
                  </table>
               </div>
            </text>
            <type>
               <coding>
                  <system value="http://snomed.info/sct"/>
                  <code value="122592007"/>
                  <display value="Acellular blood (serum or plasma) specimen"/>
               </coding>
            </type>
            <collection>
               <collectedDateTime value="2021-06-07"/>
            </collection>
         </Specimen>
      </resource>
   </entry>
   <entry>
      <fullUrl value="urn:uuid:e32346cb-a98b-4e64-861e-1807c02dd650"/>
      <resource>
         <Specimen>
            <id value="e32346cb-a98b-4e64-861e-1807c02dd650"/>
            <meta>
               <profile value="http://hl7.eu/fhir/laboratory/StructureDefinition/Specimen-eu-lab"/>
            </meta>
            <text>
               <status value="generated"/>
               <div xmlns="http://www.w3.org/1999/xhtml">
                  <table class="hl7__eu__lab__report">
                     <tr>
                        <th>Specimen</th>
                        <th>Collection Date</th>
                     </tr>
                     <tr>
                        <td>Urine specimen</td>
                        <td>
                           <span class="nb">07-Jun-2021</span>
                        </td>
                     </tr>
                  </table>
               </div>
            </text>
            <type>
               <coding>
                  <system value="http://snomed.info/sct"/>
                  <code value="122575003"/>
                  <display value="Urine specimen"/>
               </coding>
            </type>
            <collection>
               <collectedDateTime value="2021-06-07"/>
            </collection>
         </Specimen>
      </resource>
   </entry>
   <entry>
      <fullUrl value="urn:uuid:0d85154e-1ee6-4629-bc4d-a6eac184a8fa"/>
      <resource>
         <Specimen>
            <id value="0d85154e-1ee6-4629-bc4d-a6eac184a8fa"/>
            <meta>
               <profile value="http://hl7.eu/fhir/laboratory/StructureDefinition/Specimen-eu-lab"/>
            </meta>
            <text>
               <status value="generated"/>
               <div xmlns="http://www.w3.org/1999/xhtml">
                  <table class="hl7__eu__lab__report">
                     <tr>
                        <th>Specimen</th>
                        <th>Collection Date</th>
                     </tr>
                     <tr>
                        <td>Whole blood specimen (specimen)</td>
                        <td>
                           <span class="nb">07-Jun-2021</span>
                        </td>
                     </tr>
                  </table>
               </div>
            </text>
            <type>
               <coding>
                  <system value="http://snomed.info/sct"/>
                  <code value="258580003"/>
                  <display value="Whole blood specimen (specimen)"/>
               </coding>
            </type>
            <collection>
               <collectedDateTime value="2021-06-07"/>
            </collection>
         </Specimen>
      </resource>
   </entry>
   <entry>
      <fullUrl value="urn:uuid:cedc5f64-29a8-4bf4-9d5d-a6b1e8691ae0"/>
      <resource>
         <Observation>
            <id value="cedc5f64-29a8-4bf4-9d5d-a6b1e8691ae0"/>
            <meta>
               <profile value="http://hl7.eu/fhir/laboratory/StructureDefinition/Observation-resultslab-eu-lab"/>
            </meta>
            <text>
               <status value="generated"/>
               <div xmlns="http://www.w3.org/1999/xhtml">
                  <table class="hl7__eu__lab__report">
                     <tr>
                        <th>Test</th>
                        <th>08-Jun-2021</th>
                        <th>Reference Range</th>
                        <th>Unit</th>
                     </tr>
                     <tr>
                        <td>Glucose [Mass/volume] in Serum or Plasma</td>
                        <td>78.6</td>
                        <td>70 - 99</td>
                        <td/>
                        <td>mg/dL</td>
                     </tr>
                  </table>
               </div>
            </text>
            <status value="final"/>
            <category>
               <coding>
                  <system value="http://terminology.hl7.org/CodeSystem/observation-category"/>
                  <code value="laboratory"/>
               </coding>
            </category>
            <code>
               <coding>
                  <system value="http://loinc.org"/>
                  <code value="2345-7"/>
                  <display value="Glucose [Mass/volume] in Serum or Plasma"/>
               </coding>
               <text value="Glucose [Mass/volume] in Serum or Plasma"/>
            </code>
            <subject>
               <reference value="urn:uuid:30e7bdd5-13ff-4a27-95f7-8960682630da"/>
               <display value="Meaghan Neary"/>
            </subject>
            <effectiveDateTime value="2021-06-07T22:11:04Z"/>
            <performer>
               <display value="The Central European Lab"/>
            </performer>
            <valueQuantity>
               <value value="78.6"/>
               <unit value="mg/dL"/>
               <system value="http://unitsofmeasure.org"/>
               <code value="mg/dL"/>
            </valueQuantity>
            <specimen>
               <reference value="urn:uuid:052cf5a3-8c0d-437a-9588-06d56c8cd972"/>
            </specimen>
            <referenceRange>
               <low>
                  <value value="70"/>
                  <system value="http://unitsofmeasure.org"/>
                  <code value="mg/dL"/>
               </low>
            </referenceRange>
            <referenceRange>
               <high>
                  <value value="99"/>
                  <system value="http://unitsofmeasure.org"/>
                  <code value="mg/dL"/>
               </high>
            </referenceRange>
         </Observation>
      </resource>
   </entry>
   <entry>
      <fullUrl value="urn:uuid:ef19aecf-9f76-4074-a759-0062184d89b0"/>
      <resource>
         <Observation>
            <id value="ef19aecf-9f76-4074-a759-0062184d89b0"/>
            <meta>
               <profile value="http://hl7.eu/fhir/laboratory/StructureDefinition/Observation-resultslab-eu-lab"/>
            </meta>
            <text>
               <status value="generated"/>
               <div xmlns="http://www.w3.org/1999/xhtml">
                  <table class="hl7__eu__lab__report">
                     <tr>
                        <th>Test</th>
                        <th>08-Jun-2021</th>
                        <th>Reference Range</th>
                        <th>Unit</th>
                     </tr>
                     <tr>
                        <td>Urea nitrogen [Mass/volume] in Serum or Plasma</td>
                        <td>12.8</td>
                        <td>7 - 50</td>
                        <td/>
                        <td>mg/dL</td>
                     </tr>
                  </table>
               </div>
            </text>
            <status value="final"/>
            <category>
               <coding>
                  <system value="http://terminology.hl7.org/CodeSystem/observation-category"/>
                  <code value="laboratory"/>
               </coding>
            </category>
            <code>
               <coding>
                  <system value="http://loinc.org"/>
                  <code value="3094-0"/>
                  <display value="Urea nitrogen [Mass/volume] in Serum or Plasma"/>
               </coding>
               <text value="Urea nitrogen [Mass/volume] in Serum or Plasma"/>
            </code>
            <subject>
               <reference value="urn:uuid:30e7bdd5-13ff-4a27-95f7-8960682630da"/>
               <display value="Meaghan Neary"/>
            </subject>
            <effectiveDateTime value="2021-06-07T22:11:04Z"/>
            <performer>
               <display value="The Central European Lab"/>
            </performer>
            <valueQuantity>
               <value value="12.8"/>
               <unit value="mg/dL"/>
               <system value="http://unitsofmeasure.org"/>
               <code value="mg/dL"/>
            </valueQuantity>
            <specimen>
               <reference value="urn:uuid:052cf5a3-8c0d-437a-9588-06d56c8cd972"/>
            </specimen>
            <referenceRange>
               <low>
                  <value value="7"/>
                  <system value="http://unitsofmeasure.org"/>
                  <code value="mg/dL"/>
               </low>
            </referenceRange>
            <referenceRange>
               <high>
                  <value value="50"/>
                  <system value="http://unitsofmeasure.org"/>
                  <code value="mg/dL"/>
               </high>
            </referenceRange>
         </Observation>
      </resource>
   </entry>
   <entry>
      <fullUrl value="urn:uuid:895b3780-9ff4-4d22-a99d-28e44900dadd"/>
      <resource>
         <Observation>
            <id value="895b3780-9ff4-4d22-a99d-28e44900dadd"/>
            <meta>
               <profile value="http://hl7.eu/fhir/laboratory/StructureDefinition/Observation-resultslab-eu-lab"/>
            </meta>
            <text>
               <status value="generated"/>
               <div xmlns="http://www.w3.org/1999/xhtml">
                  <table class="hl7__eu__lab__report">
                     <tr>
                        <th>Test</th>
                        <th>08-Jun-2021</th>
                        <th>Reference Range</th>
                        <th>Unit</th>
                     </tr>
                     <tr>
                        <td>Creatinine [Mass/volume] in Serum or Plasma</td>
                        <td>2.1</td>
                        <td>0.6 - 1.1</td>
                        <td>H</td>
                        <td>mg/dL</td>
                     </tr>
                  </table>
               </div>
            </text>
            <status value="final"/>
            <category>
               <coding>
                  <system value="http://terminology.hl7.org/CodeSystem/observation-category"/>
                  <code value="laboratory"/>
               </coding>
            </category>
            <code>
               <coding>
                  <system value="http://loinc.org"/>
                  <code value="2160-0"/>
                  <display value="Creatinine [Mass/volume] in Serum or Plasma"/>
               </coding>
               <text value="Creatinine [Mass/volume] in Serum or Plasma"/>
            </code>
            <subject>
               <reference value="urn:uuid:30e7bdd5-13ff-4a27-95f7-8960682630da"/>
               <display value="Meaghan Neary"/>
            </subject>
            <effectiveDateTime value="2021-06-07T22:11:04Z"/>
            <performer>
               <display value="The Central European Lab"/>
            </performer>
            <valueQuantity>
               <value value="2.1"/>
               <unit value="mg/dL"/>
               <system value="http://unitsofmeasure.org"/>
               <code value="mg/dL"/>
            </valueQuantity>
            <interpretation>
               <coding>
                  <system value="http://terminology.hl7.org/CodeSystem/v3-ObservationInterpretation"/>
                  <code value="H"/>
                  <display value="High"/>
               </coding>
            </interpretation>
            <specimen>
               <reference value="urn:uuid:052cf5a3-8c0d-437a-9588-06d56c8cd972"/>
            </specimen>
            <referenceRange>
               <low>
                  <value value="0.6"/>
                  <system value="http://unitsofmeasure.org"/>
                  <code value="mg/dL"/>
               </low>
            </referenceRange>
            <referenceRange>
               <high>
                  <value value="1.1"/>
                  <system value="http://unitsofmeasure.org"/>
                  <code value="mg/dL"/>
               </high>
            </referenceRange>
         </Observation>
      </resource>
   </entry>
   <entry>
      <fullUrl value="urn:uuid:95bded2c-155d-40fa-9195-c4664700300b"/>
      <resource>
         <Observation>
            <id value="95bded2c-155d-40fa-9195-c4664700300b"/>
            <meta>
               <profile value="http://hl7.eu/fhir/laboratory/StructureDefinition/Observation-resultslab-eu-lab"/>
            </meta>
            <text>
               <status value="generated"/>
               <div xmlns="http://www.w3.org/1999/xhtml">
                  <table class="hl7__eu__lab__report">
                     <tr>
                        <th>Test</th>
                        <th>08-Jun-2021</th>
                        <th>Reference Range</th>
                        <th>Unit</th>
                     </tr>
                     <tr>
                        <td>Calcium [Mass/volume] in Serum or Plasma</td>
                        <td>8.9</td>
                        <td>8.6 - 10.4</td>
                        <td/>
                        <td>mg/dL</td>
                     </tr>
                  </table>
               </div>
            </text>
            <status value="final"/>
            <category>
               <coding>
                  <system value="http://terminology.hl7.org/CodeSystem/observation-category"/>
                  <code value="laboratory"/>
               </coding>
            </category>
            <code>
               <coding>
                  <system value="http://loinc.org"/>
                  <code value="17861-6"/>
                  <display value="Calcium [Mass/volume] in Serum or Plasma"/>
               </coding>
               <text value="Calcium [Mass/volume] in Serum or Plasma"/>
            </code>
            <subject>
               <reference value="urn:uuid:30e7bdd5-13ff-4a27-95f7-8960682630da"/>
               <display value="Meaghan Neary"/>
            </subject>
            <effectiveDateTime value="2021-06-07T22:11:04Z"/>
            <performer>
               <display value="The Central European Lab"/>
            </performer>
            <valueQuantity>
               <value value="8.9"/>
               <unit value="mg/dL"/>
               <system value="http://unitsofmeasure.org"/>
               <code value="mg/dL"/>
            </valueQuantity>
            <specimen>
               <reference value="urn:uuid:052cf5a3-8c0d-437a-9588-06d56c8cd972"/>
            </specimen>
            <referenceRange>
               <low>
                  <value value="8.6"/>
                  <system value="http://unitsofmeasure.org"/>
                  <code value="mg/dL"/>
               </low>
            </referenceRange>
            <referenceRange>
               <high>
                  <value value="10.4"/>
                  <system value="http://unitsofmeasure.org"/>
                  <code value="mg/dL"/>
               </high>
            </referenceRange>
         </Observation>
      </resource>
   </entry>
   <entry>
      <fullUrl value="urn:uuid:e132d3fb-3a62-442f-9007-76932e49f4d8"/>
      <resource>
         <Observation>
            <id value="e132d3fb-3a62-442f-9007-76932e49f4d8"/>
            <meta>
               <profile value="http://hl7.eu/fhir/laboratory/StructureDefinition/Observation-resultslab-eu-lab"/>
            </meta>
            <text>
               <status value="generated"/>
               <div xmlns="http://www.w3.org/1999/xhtml">
                  <table class="hl7__eu__lab__report">
                     <tr>
                        <th>Test</th>
                        <th>08-Jun-2021</th>
                        <th>Reference Range</th>
                        <th>Unit</th>
                     </tr>
                     <tr>
                        <td>Sodium [Moles/volume] in Serum or Plasma</td>
                        <td>137.7</td>
                        <td>135 - 145</td>
                        <td/>
                        <td>mmol/L</td>
                     </tr>
                  </table>
               </div>
            </text>
            <status value="final"/>
            <category>
               <coding>
                  <system value="http://terminology.hl7.org/CodeSystem/observation-category"/>
                  <code value="laboratory"/>
               </coding>
            </category>
            <code>
               <coding>
                  <system value="http://loinc.org"/>
                  <code value="2951-2"/>
                  <display value="Sodium [Moles/volume] in Serum or Plasma"/>
               </coding>
               <text value="Sodium [Moles/volume] in Serum or Plasma"/>
            </code>
            <subject>
               <reference value="urn:uuid:30e7bdd5-13ff-4a27-95f7-8960682630da"/>
               <display value="Meaghan Neary"/>
            </subject>
            <effectiveDateTime value="2021-06-07T22:11:04Z"/>
            <performer>
               <display value="The Central European Lab"/>
            </performer>
            <valueQuantity>
               <value value="137.7"/>
               <unit value="mmol/L"/>
               <system value="http://unitsofmeasure.org"/>
               <code value="mmol/L"/>
            </valueQuantity>
            <specimen>
               <reference value="urn:uuid:052cf5a3-8c0d-437a-9588-06d56c8cd972"/>
            </specimen>
            <referenceRange>
               <low>
                  <value value="135"/>
                  <system value="http://unitsofmeasure.org"/>
                  <code value="mmol/L"/>
               </low>
            </referenceRange>
            <referenceRange>
               <high>
                  <value value="145"/>
                  <system value="http://unitsofmeasure.org"/>
                  <code value="mmol/L"/>
               </high>
            </referenceRange>
         </Observation>
      </resource>
   </entry>
   <entry>
      <fullUrl value="urn:uuid:47be4c15-e83c-4044-9d27-84d7f0f953e4"/>
      <resource>
         <Observation>
            <id value="47be4c15-e83c-4044-9d27-84d7f0f953e4"/>
            <meta>
               <profile value="http://hl7.eu/fhir/laboratory/StructureDefinition/Observation-resultslab-eu-lab"/>
            </meta>
            <text>
               <status value="generated"/>
               <div xmlns="http://www.w3.org/1999/xhtml">
                  <table class="hl7__eu__lab__report">
                     <tr>
                        <th>Test</th>
                        <th>08-Jun-2021</th>
                        <th>Reference Range</th>
                        <th>Unit</th>
                     </tr>
                     <tr>
                        <td>Potassium [Moles/volume] in Serum or Plasma</td>
                        <td>4.5</td>
                        <td>3.5 - 5.1</td>
                        <td/>
                        <td>mmol/L</td>
                     </tr>
                  </table>
               </div>
            </text>
            <status value="final"/>
            <category>
               <coding>
                  <system value="http://terminology.hl7.org/CodeSystem/observation-category"/>
                  <code value="laboratory"/>
               </coding>
            </category>
            <code>
               <coding>
                  <system value="http://loinc.org"/>
                  <code value="2823-3"/>
                  <display value="Potassium [Moles/volume] in Serum or Plasma"/>
               </coding>
               <text value="Potassium [Moles/volume] in Serum or Plasma"/>
            </code>
            <subject>
               <reference value="urn:uuid:30e7bdd5-13ff-4a27-95f7-8960682630da"/>
               <display value="Meaghan Neary"/>
            </subject>
            <effectiveDateTime value="2021-06-07T22:11:04Z"/>
            <performer>
               <display value="The Central European Lab"/>
            </performer>
            <valueQuantity>
               <value value="4.5"/>
               <unit value="mmol/L"/>
               <system value="http://unitsofmeasure.org"/>
               <code value="mmol/L"/>
            </valueQuantity>
            <specimen>
               <reference value="urn:uuid:052cf5a3-8c0d-437a-9588-06d56c8cd972"/>
            </specimen>
            <referenceRange>
               <low>
                  <value value="3.5"/>
                  <system value="http://unitsofmeasure.org"/>
                  <code value="mmol/L"/>
               </low>
            </referenceRange>
            <referenceRange>
               <high>
                  <value value="5.1"/>
                  <system value="http://unitsofmeasure.org"/>
                  <code value="mmol/L"/>
               </high>
            </referenceRange>
         </Observation>
      </resource>
   </entry>
   <entry>
      <fullUrl value="urn:uuid:24c0253a-1258-491a-acca-c40edb19ef71"/>
      <resource>
         <Observation>
            <id value="24c0253a-1258-491a-acca-c40edb19ef71"/>
            <meta>
               <profile value="http://hl7.eu/fhir/laboratory/StructureDefinition/Observation-resultslab-eu-lab"/>
            </meta>
            <text>
               <status value="generated"/>
               <div xmlns="http://www.w3.org/1999/xhtml">
                  <table class="hl7__eu__lab__report">
                     <tr>
                        <th>Test</th>
                        <th>08-Jun-2021</th>
                        <th>Reference Range</th>
                        <th>Unit</th>
                     </tr>
                     <tr>
                        <td>Chloride [Moles/volume] in Serum or Plasma</td>
                        <td>110.4</td>
                        <td>98 - 108</td>
                        <td>H</td>
                        <td>mmol/L</td>
                     </tr>
                  </table>
               </div>
            </text>
            <status value="final"/>
            <category>
               <coding>
                  <system value="http://terminology.hl7.org/CodeSystem/observation-category"/>
                  <code value="laboratory"/>
               </coding>
            </category>
            <code>
               <coding>
                  <system value="http://loinc.org"/>
                  <code value="2075-0"/>
                  <display value="Chloride [Moles/volume] in Serum or Plasma"/>
               </coding>
               <text value="Chloride [Moles/volume] in Serum or Plasma"/>
            </code>
            <subject>
               <reference value="urn:uuid:30e7bdd5-13ff-4a27-95f7-8960682630da"/>
               <display value="Meaghan Neary"/>
            </subject>
            <effectiveDateTime value="2021-06-07T22:11:04Z"/>
            <performer>
               <display value="The Central European Lab"/>
            </performer>
            <valueQuantity>
               <value value="110.4"/>
               <unit value="mmol/L"/>
               <system value="http://unitsofmeasure.org"/>
               <code value="mmol/L"/>
            </valueQuantity>
            <interpretation>
               <coding>
                  <system value="http://terminology.hl7.org/CodeSystem/v3-ObservationInterpretation"/>
                  <code value="H"/>
                  <display value="High"/>
               </coding>
            </interpretation>
            <specimen>
               <reference value="urn:uuid:052cf5a3-8c0d-437a-9588-06d56c8cd972"/>
            </specimen>
            <referenceRange>
               <low>
                  <value value="98"/>
                  <system value="http://unitsofmeasure.org"/>
                  <code value="mmol/L"/>
               </low>
            </referenceRange>
            <referenceRange>
               <high>
                  <value value="108"/>
                  <system value="http://unitsofmeasure.org"/>
                  <code value="mmol/L"/>
               </high>
            </referenceRange>
         </Observation>
      </resource>
   </entry>
   <entry>
      <fullUrl value="urn:uuid:9c5863a0-435c-4c51-8ef7-03f28bba4779"/>
      <resource>
         <Observation>
            <id value="9c5863a0-435c-4c51-8ef7-03f28bba4779"/>
            <meta>
               <profile value="http://hl7.eu/fhir/laboratory/StructureDefinition/Observation-resultslab-eu-lab"/>
            </meta>
            <text>
               <status value="generated"/>
               <div xmlns="http://www.w3.org/1999/xhtml">
                  <table class="hl7__eu__lab__report">
                     <tr>
                        <th>Test</th>
                        <th>08-Jun-2021</th>
                        <th>Reference Range</th>
                        <th>Unit</th>
                     </tr>
                     <tr>
                        <td>Carbon dioxide, total [Moles/volume] in Serum or Plasma</td>
                        <td>21.6</td>
                        <td>22 - 32</td>
                        <td>L</td>
                        <td>mmol/L</td>
                     </tr>
                  </table>
               </div>
            </text>
            <status value="final"/>
            <category>
               <coding>
                  <system value="http://terminology.hl7.org/CodeSystem/observation-category"/>
                  <code value="laboratory"/>
               </coding>
            </category>
            <code>
               <coding>
                  <system value="http://loinc.org"/>
                  <code value="2028-9"/>
                  <display value="Carbon dioxide, total [Moles/volume] in Serum or Plasma"/>
               </coding>
               <text value="Carbon dioxide, total [Moles/volume] in Serum or Plasma"/>
            </code>
            <subject>
               <reference value="urn:uuid:30e7bdd5-13ff-4a27-95f7-8960682630da"/>
               <display value="Meaghan Neary"/>
            </subject>
            <effectiveDateTime value="2021-06-07T22:11:04Z"/>
            <performer>
               <display value="The Central European Lab"/>
            </performer>
            <valueQuantity>
               <value value="21.6"/>
               <unit value="mmol/L"/>
               <system value="http://unitsofmeasure.org"/>
               <code value="mmol/L"/>
            </valueQuantity>
            <interpretation>
               <coding>
                  <system value="http://terminology.hl7.org/CodeSystem/v3-ObservationInterpretation"/>
                  <code value="L"/>
                  <display value="Low"/>
               </coding>
            </interpretation>
            <specimen>
               <reference value="urn:uuid:052cf5a3-8c0d-437a-9588-06d56c8cd972"/>
            </specimen>
            <referenceRange>
               <low>
                  <value value="22"/>
                  <system value="http://unitsofmeasure.org"/>
                  <code value="mmol/L"/>
               </low>
            </referenceRange>
            <referenceRange>
               <high>
                  <value value="32"/>
                  <system value="http://unitsofmeasure.org"/>
                  <code value="mmol/L"/>
               </high>
            </referenceRange>
         </Observation>
      </resource>
   </entry>
   <entry>
      <fullUrl value="urn:uuid:f2e141fe-7f0c-410e-b903-61816ac8eee3"/>
      <resource>
         <Observation>
            <id value="f2e141fe-7f0c-410e-b903-61816ac8eee3"/>
            <meta>
               <profile value="http://hl7.eu/fhir/laboratory/StructureDefinition/Observation-resultslab-eu-lab"/>
            </meta>
            <text>
               <status value="generated"/>
               <div xmlns="http://www.w3.org/1999/xhtml">
                  <table class="hl7__eu__lab__report">
                     <tr>
                        <th>Test</th>
                        <th>08-Jun-2021</th>
                        <th>Reference Range</th>
                        <th>Unit</th>
                     </tr>
                     <tr>
                        <td>Appearance of Urine</td>
                     </tr>
                  </table>
               </div>
            </text>
            <status value="final"/>
            <category>
               <coding>
                  <system value="http://terminology.hl7.org/CodeSystem/observation-category"/>
                  <code value="laboratory"/>
               </coding>
            </category>
            <code>
               <coding>
                  <system value="http://loinc.org"/>
                  <code value="5767-9"/>
                  <display value="Appearance of Urine"/>
               </coding>
               <text value="Appearance of Urine"/>
            </code>
            <subject>
               <reference value="urn:uuid:30e7bdd5-13ff-4a27-95f7-8960682630da"/>
               <display value="Meaghan Neary"/>
            </subject>
            <effectiveDateTime value="2021-06-07T22:11:04Z"/>
            <performer>
               <display value="The Central European Lab"/>
            </performer>
            <specimen>
               <reference value="urn:uuid:e32346cb-a98b-4e64-861e-1807c02dd650"/>
            </specimen>
         </Observation>
      </resource>
   </entry>
   <entry>
      <fullUrl value="urn:uuid:33d2b1c2-b440-450c-8ab9-731d85b861a2"/>
      <resource>
         <Observation>
            <id value="33d2b1c2-b440-450c-8ab9-731d85b861a2"/>
            <meta>
               <profile value="http://hl7.eu/fhir/laboratory/StructureDefinition/Observation-resultslab-eu-lab"/>
            </meta>
            <text>
               <status value="generated"/>
               <div xmlns="http://www.w3.org/1999/xhtml">
                  <table class="hl7__eu__lab__report">
                     <tr>
                        <th>Test</th>
                        <th>08-Jun-2021</th>
                        <th>Reference Range</th>
                        <th>Unit</th>
                     </tr>
                     <tr>
                        <td>Odor of Urine</td>
                     </tr>
                  </table>
               </div>
            </text>
            <status value="final"/>
            <category>
               <coding>
                  <system value="http://terminology.hl7.org/CodeSystem/observation-category"/>
                  <code value="laboratory"/>
               </coding>
            </category>
            <code>
               <coding>
                  <system value="http://loinc.org"/>
                  <code value="34533-0"/>
                  <display value="Odor of Urine"/>
               </coding>
               <text value="Odor of Urine"/>
            </code>
            <subject>
               <reference value="urn:uuid:30e7bdd5-13ff-4a27-95f7-8960682630da"/>
               <display value="Meaghan Neary"/>
            </subject>
            <effectiveDateTime value="2021-06-07T22:11:04Z"/>
            <performer>
               <display value="The Central European Lab"/>
            </performer>
            <specimen>
               <reference value="urn:uuid:e32346cb-a98b-4e64-861e-1807c02dd650"/>
            </specimen>
         </Observation>
      </resource>
   </entry>
   <entry>
      <fullUrl value="urn:uuid:569a195d-df97-4937-9117-d3be3f820775"/>
      <resource>
         <Observation>
            <id value="569a195d-df97-4937-9117-d3be3f820775"/>
            <meta>
               <profile value="http://hl7.eu/fhir/laboratory/StructureDefinition/Observation-resultslab-eu-lab"/>
            </meta>
            <text>
               <status value="generated"/>
               <div xmlns="http://www.w3.org/1999/xhtml">
                  <table class="hl7__eu__lab__report">
                     <tr>
                        <th>Test</th>
                        <th>08-Jun-2021</th>
                        <th>Reference Range</th>
                        <th>Unit</th>
                     </tr>
                     <tr>
                        <td>Clarity of Urine</td>
                     </tr>
                  </table>
               </div>
            </text>
            <status value="final"/>
            <category>
               <coding>
                  <system value="http://terminology.hl7.org/CodeSystem/observation-category"/>
                  <code value="laboratory"/>
               </coding>
            </category>
            <code>
               <coding>
                  <system value="http://loinc.org"/>
                  <code value="32167-9"/>
                  <display value="Clarity of Urine"/>
               </coding>
               <text value="Clarity of Urine"/>
            </code>
            <subject>
               <reference value="urn:uuid:30e7bdd5-13ff-4a27-95f7-8960682630da"/>
               <display value="Meaghan Neary"/>
            </subject>
            <effectiveDateTime value="2021-06-07T22:11:04Z"/>
            <performer>
               <display value="The Central European Lab"/>
            </performer>
            <specimen>
               <reference value="urn:uuid:e32346cb-a98b-4e64-861e-1807c02dd650"/>
            </specimen>
         </Observation>
      </resource>
   </entry>
   <entry>
      <fullUrl value="urn:uuid:63149b54-35e1-4124-a0cd-c057baa70751"/>
      <resource>
         <Observation>
            <id value="63149b54-35e1-4124-a0cd-c057baa70751"/>
            <meta>
               <profile value="http://hl7.eu/fhir/laboratory/StructureDefinition/Observation-resultslab-eu-lab"/>
            </meta>
            <text>
               <status value="generated"/>
               <div xmlns="http://www.w3.org/1999/xhtml">
                  <table class="hl7__eu__lab__report">
                     <tr>
                        <th>Test</th>
                        <th>08-Jun-2021</th>
                        <th>Reference Range</th>
                        <th>Unit</th>
                     </tr>
                     <tr>
                        <td>Color of Urine</td>
                     </tr>
                  </table>
               </div>
            </text>
            <status value="final"/>
            <category>
               <coding>
                  <system value="http://terminology.hl7.org/CodeSystem/observation-category"/>
                  <code value="laboratory"/>
               </coding>
            </category>
            <code>
               <coding>
                  <system value="http://loinc.org"/>
                  <code value="5778-6"/>
                  <display value="Color of Urine"/>
               </coding>
               <text value="Color of Urine"/>
            </code>
            <subject>
               <reference value="urn:uuid:30e7bdd5-13ff-4a27-95f7-8960682630da"/>
               <display value="Meaghan Neary"/>
            </subject>
            <effectiveDateTime value="2021-06-07T22:11:04Z"/>
            <performer>
               <display value="The Central European Lab"/>
            </performer>
            <specimen>
               <reference value="urn:uuid:e32346cb-a98b-4e64-861e-1807c02dd650"/>
            </specimen>
         </Observation>
      </resource>
   </entry>
   <entry>
      <fullUrl value="urn:uuid:b068b23b-e62e-4688-bc76-2c9e4c7a659a"/>
      <resource>
         <Observation>
            <id value="b068b23b-e62e-4688-bc76-2c9e4c7a659a"/>
            <meta>
               <profile value="http://hl7.eu/fhir/laboratory/StructureDefinition/Observation-resultslab-eu-lab"/>
            </meta>
            <text>
               <status value="generated"/>
               <div xmlns="http://www.w3.org/1999/xhtml">
                  <table class="hl7__eu__lab__report">
                     <tr>
                        <th>Test</th>
                        <th>08-Jun-2021</th>
                        <th>Reference Range</th>
                        <th>Unit</th>
                     </tr>
                     <tr>
                        <td>Glucose [Mass/volume] in Urine by Test strip</td>
                        <td>0.6</td>
                        <td>0.8 - 0</td>
                        <td>L</td>
                        <td>mg/dL</td>
                     </tr>
                  </table>
               </div>
            </text>
            <status value="final"/>
            <category>
               <coding>
                  <system value="http://terminology.hl7.org/CodeSystem/observation-category"/>
                  <code value="laboratory"/>
               </coding>
            </category>
            <code>
               <coding>
                  <system value="http://loinc.org"/>
                  <code value="5792-7"/>
                  <display value="Glucose [Mass/volume] in Urine by Test strip"/>
               </coding>
               <text value="Glucose [Mass/volume] in Urine by Test strip"/>
            </code>
            <subject>
               <reference value="urn:uuid:30e7bdd5-13ff-4a27-95f7-8960682630da"/>
               <display value="Meaghan Neary"/>
            </subject>
            <effectiveDateTime value="2021-06-07T22:11:04Z"/>
            <performer>
               <display value="The Central European Lab"/>
            </performer>
            <valueQuantity>
               <value value="0.6"/>
               <unit value="mg/dL"/>
               <system value="http://unitsofmeasure.org"/>
               <code value="mg/dL"/>
            </valueQuantity>
            <interpretation>
               <coding>
                  <system value="http://terminology.hl7.org/CodeSystem/v3-ObservationInterpretation"/>
                  <code value="L"/>
                  <display value="Low"/>
               </coding>
            </interpretation>
            <specimen>
               <reference value="urn:uuid:e32346cb-a98b-4e64-861e-1807c02dd650"/>
            </specimen>
            <referenceRange>
               <low>
                  <value value="0.8"/>
                  <system value="http://unitsofmeasure.org"/>
                  <code value="mg/dL"/>
               </low>
            </referenceRange>
            <referenceRange>
               <high>
                  <value value="0"/>
                  <system value="http://unitsofmeasure.org"/>
                  <code value="mg/dL"/>
               </high>
            </referenceRange>
         </Observation>
      </resource>
   </entry>
   <entry>
      <fullUrl value="urn:uuid:74b4fc4b-ca06-4678-a2b6-ff9db5710c53"/>
      <resource>
         <Observation>
            <id value="74b4fc4b-ca06-4678-a2b6-ff9db5710c53"/>
            <meta>
               <profile value="http://hl7.eu/fhir/laboratory/StructureDefinition/Observation-resultslab-eu-lab"/>
            </meta>
            <text>
               <status value="generated"/>
               <div xmlns="http://www.w3.org/1999/xhtml">
                  <table class="hl7__eu__lab__report">
                     <tr>
                        <th>Test</th>
                        <th>08-Jun-2021</th>
                        <th>Reference Range</th>
                        <th>Unit</th>
                     </tr>
                     <tr>
                        <td>Glucose [Presence] in Urine by Test strip</td>
                     </tr>
                  </table>
               </div>
            </text>
            <status value="final"/>
            <category>
               <coding>
                  <system value="http://terminology.hl7.org/CodeSystem/observation-category"/>
                  <code value="laboratory"/>
               </coding>
            </category>
            <code>
               <coding>
                  <system value="http://loinc.org"/>
                  <code value="25428-4"/>
                  <display value="Glucose [Presence] in Urine by Test strip"/>
               </coding>
               <text value="Glucose [Presence] in Urine by Test strip"/>
            </code>
            <subject>
               <reference value="urn:uuid:30e7bdd5-13ff-4a27-95f7-8960682630da"/>
               <display value="Meaghan Neary"/>
            </subject>
            <effectiveDateTime value="2021-06-07T22:11:04Z"/>
            <performer>
               <display value="The Central European Lab"/>
            </performer>
            <specimen>
               <reference value="urn:uuid:e32346cb-a98b-4e64-861e-1807c02dd650"/>
            </specimen>
         </Observation>
      </resource>
   </entry>
   <entry>
      <fullUrl value="urn:uuid:5f568a86-a41f-4623-a69b-b9e396f114ad"/>
      <resource>
         <Observation>
            <id value="5f568a86-a41f-4623-a69b-b9e396f114ad"/>
            <meta>
               <profile value="http://hl7.eu/fhir/laboratory/StructureDefinition/Observation-resultslab-eu-lab"/>
            </meta>
            <text>
               <status value="generated"/>
               <div xmlns="http://www.w3.org/1999/xhtml">
                  <table class="hl7__eu__lab__report">
                     <tr>
                        <th>Test</th>
                        <th>08-Jun-2021</th>
                        <th>Reference Range</th>
                        <th>Unit</th>
                     </tr>
                     <tr>
                        <td>Bilirubin.total [Mass/volume] in Urine by Test strip</td>
                        <td>0.4</td>
                        <td>0 - 1</td>
                        <td/>
                        <td>mg/dL</td>
                     </tr>
                  </table>
               </div>
            </text>
            <status value="final"/>
            <category>
               <coding>
                  <system value="http://terminology.hl7.org/CodeSystem/observation-category"/>
                  <code value="laboratory"/>
               </coding>
            </category>
            <code>
               <coding>
                  <system value="http://loinc.org"/>
                  <code value="20505-4"/>
                  <display value="Bilirubin.total [Mass/volume] in Urine by Test strip"/>
               </coding>
               <text value="Bilirubin.total [Mass/volume] in Urine by Test strip"/>
            </code>
            <subject>
               <reference value="urn:uuid:30e7bdd5-13ff-4a27-95f7-8960682630da"/>
               <display value="Meaghan Neary"/>
            </subject>
            <effectiveDateTime value="2021-06-07T22:11:04Z"/>
            <performer>
               <display value="The Central European Lab"/>
            </performer>
            <valueQuantity>
               <value value="0.4"/>
               <unit value="mg/dL"/>
               <system value="http://unitsofmeasure.org"/>
               <code value="mg/dL"/>
            </valueQuantity>
            <specimen>
               <reference value="urn:uuid:e32346cb-a98b-4e64-861e-1807c02dd650"/>
            </specimen>
            <referenceRange>
               <low>
                  <value value="0"/>
                  <system value="http://unitsofmeasure.org"/>
                  <code value="mg/dL"/>
               </low>
            </referenceRange>
            <referenceRange>
               <high>
                  <value value="1"/>
                  <system value="http://unitsofmeasure.org"/>
                  <code value="mg/dL"/>
               </high>
            </referenceRange>
         </Observation>
      </resource>
   </entry>
   <entry>
      <fullUrl value="urn:uuid:bde3fa12-a3e0-4554-817e-ddc09a4a9206"/>
      <resource>
         <Observation>
            <id value="bde3fa12-a3e0-4554-817e-ddc09a4a9206"/>
            <meta>
               <profile value="http://hl7.eu/fhir/laboratory/StructureDefinition/Observation-resultslab-eu-lab"/>
            </meta>
            <text>
               <status value="generated"/>
               <div xmlns="http://www.w3.org/1999/xhtml">
                  <table class="hl7__eu__lab__report">
                     <tr>
                        <th>Test</th>
                        <th>08-Jun-2021</th>
                        <th>Reference Range</th>
                        <th>Unit</th>
                     </tr>
                     <tr>
                        <td>Bilirubin.total [Presence] in Urine by Test strip</td>
                     </tr>
                  </table>
               </div>
            </text>
            <status value="final"/>
            <category>
               <coding>
                  <system value="http://terminology.hl7.org/CodeSystem/observation-category"/>
                  <code value="laboratory"/>
               </coding>
            </category>
            <code>
               <coding>
                  <system value="http://loinc.org"/>
                  <code value="5770-3"/>
                  <display value="Bilirubin.total [Presence] in Urine by Test strip"/>
               </coding>
               <text value="Bilirubin.total [Presence] in Urine by Test strip"/>
            </code>
            <subject>
               <reference value="urn:uuid:30e7bdd5-13ff-4a27-95f7-8960682630da"/>
               <display value="Meaghan Neary"/>
            </subject>
            <effectiveDateTime value="2021-06-07T22:11:04Z"/>
            <performer>
               <display value="The Central European Lab"/>
            </performer>
            <specimen>
               <reference value="urn:uuid:e32346cb-a98b-4e64-861e-1807c02dd650"/>
            </specimen>
         </Observation>
      </resource>
   </entry>
   <entry>
      <fullUrl value="urn:uuid:75f7a035-98bb-430a-96c7-c15f464dd8eb"/>
      <resource>
         <Observation>
            <id value="75f7a035-98bb-430a-96c7-c15f464dd8eb"/>
            <meta>
               <profile value="http://hl7.eu/fhir/laboratory/StructureDefinition/Observation-resultslab-eu-lab"/>
            </meta>
            <text>
               <status value="generated"/>
               <div xmlns="http://www.w3.org/1999/xhtml">
                  <table class="hl7__eu__lab__report">
                     <tr>
                        <th>Test</th>
                        <th>08-Jun-2021</th>
                        <th>Reference Range</th>
                        <th>Unit</th>
                     </tr>
                     <tr>
                        <td>Ketones [Mass/volume] in Urine by Test strip</td>
                        <td>1.7</td>
                        <td>0 - 4</td>
                        <td/>
                        <td>mg/dL</td>
                     </tr>
                  </table>
               </div>
            </text>
            <status value="final"/>
            <category>
               <coding>
                  <system value="http://terminology.hl7.org/CodeSystem/observation-category"/>
                  <code value="laboratory"/>
               </coding>
            </category>
            <code>
               <coding>
                  <system value="http://loinc.org"/>
                  <code value="5797-6"/>
                  <display value="Ketones [Mass/volume] in Urine by Test strip"/>
               </coding>
               <text value="Ketones [Mass/volume] in Urine by Test strip"/>
            </code>
            <subject>
               <reference value="urn:uuid:30e7bdd5-13ff-4a27-95f7-8960682630da"/>
               <display value="Meaghan Neary"/>
            </subject>
            <effectiveDateTime value="2021-06-07T22:11:04Z"/>
            <performer>
               <display value="The Central European Lab"/>
            </performer>
            <valueQuantity>
               <value value="1.7"/>
               <unit value="mg/dL"/>
               <system value="http://unitsofmeasure.org"/>
               <code value="mg/dL"/>
            </valueQuantity>
            <specimen>
               <reference value="urn:uuid:e32346cb-a98b-4e64-861e-1807c02dd650"/>
            </specimen>
            <referenceRange>
               <low>
                  <value value="0"/>
                  <system value="http://unitsofmeasure.org"/>
                  <code value="mg/dL"/>
               </low>
            </referenceRange>
            <referenceRange>
               <high>
                  <value value="4"/>
                  <system value="http://unitsofmeasure.org"/>
                  <code value="mg/dL"/>
               </high>
            </referenceRange>
         </Observation>
      </resource>
   </entry>
   <entry>
      <fullUrl value="urn:uuid:cd07ca14-3b9a-40a7-a731-e2b16ae66efc"/>
      <resource>
         <Observation>
            <id value="cd07ca14-3b9a-40a7-a731-e2b16ae66efc"/>
            <meta>
               <profile value="http://hl7.eu/fhir/laboratory/StructureDefinition/Observation-resultslab-eu-lab"/>
            </meta>
            <text>
               <status value="generated"/>
               <div xmlns="http://www.w3.org/1999/xhtml">
                  <table class="hl7__eu__lab__report">
                     <tr>
                        <th>Test</th>
                        <th>08-Jun-2021</th>
                        <th>Reference Range</th>
                        <th>Unit</th>
                     </tr>
                     <tr>
                        <td>Ketones [Presence] in Urine by Test strip</td>
                     </tr>
                  </table>
               </div>
            </text>
            <status value="final"/>
            <category>
               <coding>
                  <system value="http://terminology.hl7.org/CodeSystem/observation-category"/>
                  <code value="laboratory"/>
               </coding>
            </category>
            <code>
               <coding>
                  <system value="http://loinc.org"/>
                  <code value="2514-8"/>
                  <display value="Ketones [Presence] in Urine by Test strip"/>
               </coding>
               <text value="Ketones [Presence] in Urine by Test strip"/>
            </code>
            <subject>
               <reference value="urn:uuid:30e7bdd5-13ff-4a27-95f7-8960682630da"/>
               <display value="Meaghan Neary"/>
            </subject>
            <effectiveDateTime value="2021-06-07T22:11:04Z"/>
            <performer>
               <display value="The Central European Lab"/>
            </performer>
            <specimen>
               <reference value="urn:uuid:e32346cb-a98b-4e64-861e-1807c02dd650"/>
            </specimen>
         </Observation>
      </resource>
   </entry>
   <entry>
      <fullUrl value="urn:uuid:aa21ee59-43c0-45f6-8a59-1589bd944026"/>
      <resource>
         <Observation>
            <id value="aa21ee59-43c0-45f6-8a59-1589bd944026"/>
            <meta>
               <profile value="http://hl7.eu/fhir/laboratory/StructureDefinition/Observation-resultslab-eu-lab"/>
            </meta>
            <text>
               <status value="generated"/>
               <div xmlns="http://www.w3.org/1999/xhtml">
                  <table class="hl7__eu__lab__report">
                     <tr>
                        <th>Test</th>
                        <th>08-Jun-2021</th>
                        <th>Reference Range</th>
                        <th>Unit</th>
                     </tr>
                     <tr>
                        <td>Specific gravity of Urine by Test strip</td>
                        <td>1.0</td>
                        <td>1.005 - 1.03</td>
                        <td>L</td>
                        <td>{nominal}</td>
                     </tr>
                  </table>
               </div>
            </text>
            <status value="final"/>
            <category>
               <coding>
                  <system value="http://terminology.hl7.org/CodeSystem/observation-category"/>
                  <code value="laboratory"/>
               </coding>
            </category>
            <code>
               <coding>
                  <system value="http://loinc.org"/>
                  <code value="5811-5"/>
                  <display value="Specific gravity of Urine by Test strip"/>
               </coding>
               <text value="Specific gravity of Urine by Test strip"/>
            </code>
            <subject>
               <reference value="urn:uuid:30e7bdd5-13ff-4a27-95f7-8960682630da"/>
               <display value="Meaghan Neary"/>
            </subject>
            <effectiveDateTime value="2021-06-07T22:11:04Z"/>
            <performer>
               <display value="The Central European Lab"/>
            </performer>
            <valueQuantity>
               <value value="1"/>
               <unit value="{nominal}"/>
               <system value="http://unitsofmeasure.org"/>
               <code value="{nominal}"/>
            </valueQuantity>
            <interpretation>
               <coding>
                  <system value="http://terminology.hl7.org/CodeSystem/v3-ObservationInterpretation"/>
                  <code value="L"/>
                  <display value="Low"/>
               </coding>
            </interpretation>
            <specimen>
               <reference value="urn:uuid:e32346cb-a98b-4e64-861e-1807c02dd650"/>
            </specimen>
            <referenceRange>
               <low>
                  <value value="1.005"/>
                  <system value="http://unitsofmeasure.org"/>
                  <code value="g/mL"/>
               </low>
            </referenceRange>
            <referenceRange>
               <high>
                  <value value="1.03"/>
                  <system value="http://unitsofmeasure.org"/>
                  <code value="g/mL"/>
               </high>
            </referenceRange>
         </Observation>
      </resource>
   </entry>
   <entry>
      <fullUrl value="urn:uuid:d8ef78b8-ce4a-4611-a7bb-d7ce5413981f"/>
      <resource>
         <Observation>
            <id value="d8ef78b8-ce4a-4611-a7bb-d7ce5413981f"/>
            <meta>
               <profile value="http://hl7.eu/fhir/laboratory/StructureDefinition/Observation-resultslab-eu-lab"/>
            </meta>
            <text>
               <status value="generated"/>
               <div xmlns="http://www.w3.org/1999/xhtml">
                  <table class="hl7__eu__lab__report">
                     <tr>
                        <th>Test</th>
                        <th>08-Jun-2021</th>
                        <th>Reference Range</th>
                        <th>Unit</th>
                     </tr>
                     <tr>
                        <td>pH of Urine by Test strip</td>
                        <td>6.0</td>
                        <td>4.6 - 7</td>
                        <td/>
                        <td>pH</td>
                     </tr>
                  </table>
               </div>
            </text>
            <status value="final"/>
            <category>
               <coding>
                  <system value="http://terminology.hl7.org/CodeSystem/observation-category"/>
                  <code value="laboratory"/>
               </coding>
            </category>
            <code>
               <coding>
                  <system value="http://loinc.org"/>
                  <code value="5803-2"/>
                  <display value="pH of Urine by Test strip"/>
               </coding>
               <text value="pH of Urine by Test strip"/>
            </code>
            <subject>
               <reference value="urn:uuid:30e7bdd5-13ff-4a27-95f7-8960682630da"/>
               <display value="Meaghan Neary"/>
            </subject>
            <effectiveDateTime value="2021-06-07T22:11:04Z"/>
            <performer>
               <display value="The Central European Lab"/>
            </performer>
            <valueQuantity>
               <value value="6"/>
               <unit value="pH"/>
               <system value="http://unitsofmeasure.org"/>
               <code value="pH"/>
            </valueQuantity>
            <specimen>
               <reference value="urn:uuid:e32346cb-a98b-4e64-861e-1807c02dd650"/>
            </specimen>
            <referenceRange>
               <low>
                  <value value="4.6"/>
                  <system value="http://unitsofmeasure.org"/>
                  <code value="pH"/>
               </low>
            </referenceRange>
            <referenceRange>
               <high>
                  <value value="7"/>
                  <system value="http://unitsofmeasure.org"/>
                  <code value="pH"/>
               </high>
            </referenceRange>
         </Observation>
      </resource>
   </entry>
   <entry>
      <fullUrl value="urn:uuid:95e66975-db0d-4956-a57e-bf334a5c8038"/>
      <resource>
         <Observation>
            <id value="95e66975-db0d-4956-a57e-bf334a5c8038"/>
            <meta>
               <profile value="http://hl7.eu/fhir/laboratory/StructureDefinition/Observation-resultslab-eu-lab"/>
            </meta>
            <text>
               <status value="generated"/>
               <div xmlns="http://www.w3.org/1999/xhtml">
                  <table class="hl7__eu__lab__report">
                     <tr>
                        <th>Test</th>
                        <th>08-Jun-2021</th>
                        <th>Reference Range</th>
                        <th>Unit</th>
                     </tr>
                     <tr>
                        <td>Protein [Mass/volume] in Urine by Test strip</td>
                        <td>260.6</td>
                        <td>0 - 14</td>
                        <td>H</td>
                        <td>mg/dL</td>
                     </tr>
                  </table>
               </div>
            </text>
            <status value="final"/>
            <category>
               <coding>
                  <system value="http://terminology.hl7.org/CodeSystem/observation-category"/>
                  <code value="laboratory"/>
               </coding>
            </category>
            <code>
               <coding>
                  <system value="http://loinc.org"/>
                  <code value="5804-0"/>
                  <display value="Protein [Mass/volume] in Urine by Test strip"/>
               </coding>
               <text value="Protein [Mass/volume] in Urine by Test strip"/>
            </code>
            <subject>
               <reference value="urn:uuid:30e7bdd5-13ff-4a27-95f7-8960682630da"/>
               <display value="Meaghan Neary"/>
            </subject>
            <effectiveDateTime value="2021-06-07T22:11:04Z"/>
            <performer>
               <display value="The Central European Lab"/>
            </performer>
            <valueQuantity>
               <value value="260.6"/>
               <unit value="mg/dL"/>
               <system value="http://unitsofmeasure.org"/>
               <code value="mg/dL"/>
            </valueQuantity>
            <interpretation>
               <coding>
                  <system value="http://terminology.hl7.org/CodeSystem/v3-ObservationInterpretation"/>
                  <code value="H"/>
                  <display value="High"/>
               </coding>
            </interpretation>
            <specimen>
               <reference value="urn:uuid:e32346cb-a98b-4e64-861e-1807c02dd650"/>
            </specimen>
            <referenceRange>
               <low>
                  <value value="0"/>
                  <system value="http://unitsofmeasure.org"/>
                  <code value="mg/dL"/>
               </low>
            </referenceRange>
            <referenceRange>
               <high>
                  <value value="14"/>
                  <system value="http://unitsofmeasure.org"/>
                  <code value="mg/dL"/>
               </high>
            </referenceRange>
         </Observation>
      </resource>
   </entry>
   <entry>
      <fullUrl value="urn:uuid:cdca43f9-961a-42e0-b6e4-93a165a28422"/>
      <resource>
         <Observation>
            <id value="cdca43f9-961a-42e0-b6e4-93a165a28422"/>
            <meta>
               <profile value="http://hl7.eu/fhir/laboratory/StructureDefinition/Observation-resultslab-eu-lab"/>
            </meta>
            <text>
               <status value="generated"/>
               <div xmlns="http://www.w3.org/1999/xhtml">
                  <table class="hl7__eu__lab__report">
                     <tr>
                        <th>Test</th>
                        <th>08-Jun-2021</th>
                        <th>Reference Range</th>
                        <th>Unit</th>
                     </tr>
                     <tr>
                        <td>Protein [Presence] in Urine by Test strip</td>
                     </tr>
                  </table>
               </div>
            </text>
            <status value="final"/>
            <category>
               <coding>
                  <system value="http://terminology.hl7.org/CodeSystem/observation-category"/>
                  <code value="laboratory"/>
               </coding>
            </category>
            <code>
               <coding>
                  <system value="http://loinc.org"/>
                  <code value="20454-5"/>
                  <display value="Protein [Presence] in Urine by Test strip"/>
               </coding>
               <text value="Protein [Presence] in Urine by Test strip"/>
            </code>
            <subject>
               <reference value="urn:uuid:30e7bdd5-13ff-4a27-95f7-8960682630da"/>
               <display value="Meaghan Neary"/>
            </subject>
            <effectiveDateTime value="2021-06-07T22:11:04Z"/>
            <performer>
               <display value="The Central European Lab"/>
            </performer>
            <specimen>
               <reference value="urn:uuid:e32346cb-a98b-4e64-861e-1807c02dd650"/>
            </specimen>
         </Observation>
      </resource>
   </entry>
   <entry>
      <fullUrl value="urn:uuid:8885e884-93b6-46af-9c31-1b376759e71e"/>
      <resource>
         <Observation>
            <id value="8885e884-93b6-46af-9c31-1b376759e71e"/>
            <meta>
               <profile value="http://hl7.eu/fhir/laboratory/StructureDefinition/Observation-resultslab-eu-lab"/>
            </meta>
            <text>
               <status value="generated"/>
               <div xmlns="http://www.w3.org/1999/xhtml">
                  <table class="hl7__eu__lab__report">
                     <tr>
                        <th>Test</th>
                        <th>08-Jun-2021</th>
                        <th>Reference Range</th>
                        <th>Unit</th>
                     </tr>
                     <tr>
                        <td>Nitrite [Presence] in Urine by Test strip</td>
                     </tr>
                  </table>
               </div>
            </text>
            <status value="final"/>
            <category>
               <coding>
                  <system value="http://terminology.hl7.org/CodeSystem/observation-category"/>
                  <code value="laboratory"/>
               </coding>
            </category>
            <code>
               <coding>
                  <system value="http://loinc.org"/>
                  <code value="5802-4"/>
                  <display value="Nitrite [Presence] in Urine by Test strip"/>
               </coding>
               <text value="Nitrite [Presence] in Urine by Test strip"/>
            </code>
            <subject>
               <reference value="urn:uuid:30e7bdd5-13ff-4a27-95f7-8960682630da"/>
               <display value="Meaghan Neary"/>
            </subject>
            <effectiveDateTime value="2021-06-07T22:11:04Z"/>
            <performer>
               <display value="The Central European Lab"/>
            </performer>
            <specimen>
               <reference value="urn:uuid:e32346cb-a98b-4e64-861e-1807c02dd650"/>
            </specimen>
         </Observation>
      </resource>
   </entry>
   <entry>
      <fullUrl value="urn:uuid:abf0efaa-ee61-45d1-be73-752e1dd065b8"/>
      <resource>
         <Observation>
            <id value="abf0efaa-ee61-45d1-be73-752e1dd065b8"/>
            <meta>
               <profile value="http://hl7.eu/fhir/laboratory/StructureDefinition/Observation-resultslab-eu-lab"/>
            </meta>
            <text>
               <status value="generated"/>
               <div xmlns="http://www.w3.org/1999/xhtml">
                  <table class="hl7__eu__lab__report">
                     <tr>
                        <th>Test</th>
                        <th>08-Jun-2021</th>
                        <th>Reference Range</th>
                        <th>Unit</th>
                     </tr>
                     <tr>
                        <td>Hemoglobin [Presence] in Urine by Test strip</td>
                     </tr>
                  </table>
               </div>
            </text>
            <status value="final"/>
            <category>
               <coding>
                  <system value="http://terminology.hl7.org/CodeSystem/observation-category"/>
                  <code value="laboratory"/>
               </coding>
            </category>
            <code>
               <coding>
                  <system value="http://loinc.org"/>
                  <code value="5794-3"/>
                  <display value="Hemoglobin [Presence] in Urine by Test strip"/>
               </coding>
               <text value="Hemoglobin [Presence] in Urine by Test strip"/>
            </code>
            <subject>
               <reference value="urn:uuid:30e7bdd5-13ff-4a27-95f7-8960682630da"/>
               <display value="Meaghan Neary"/>
            </subject>
            <effectiveDateTime value="2021-06-07T22:11:04Z"/>
            <performer>
               <display value="The Central European Lab"/>
            </performer>
            <specimen>
               <reference value="urn:uuid:e32346cb-a98b-4e64-861e-1807c02dd650"/>
            </specimen>
         </Observation>
      </resource>
   </entry>
   <entry>
      <fullUrl value="urn:uuid:4bcb4f04-2e61-4ebc-a6c8-788eee8ba998"/>
      <resource>
         <Observation>
            <id value="4bcb4f04-2e61-4ebc-a6c8-788eee8ba998"/>
            <meta>
               <profile value="http://hl7.eu/fhir/laboratory/StructureDefinition/Observation-resultslab-eu-lab"/>
            </meta>
            <text>
               <status value="generated"/>
               <div xmlns="http://www.w3.org/1999/xhtml">
                  <table class="hl7__eu__lab__report">
                     <tr>
                        <th>Test</th>
                        <th>08-Jun-2021</th>
                        <th>Reference Range</th>
                        <th>Unit</th>
                     </tr>
                     <tr>
                        <td>Leukocyte esterase [Presence] in Urine by Test strip</td>
                     </tr>
                  </table>
               </div>
            </text>
            <status value="final"/>
            <category>
               <coding>
                  <system value="http://terminology.hl7.org/CodeSystem/observation-category"/>
                  <code value="laboratory"/>
               </coding>
            </category>
            <code>
               <coding>
                  <system value="http://loinc.org"/>
                  <code value="5799-2"/>
                  <display value="Leukocyte esterase [Presence] in Urine by Test strip"/>
               </coding>
               <text value="Leukocyte esterase [Presence] in Urine by Test strip"/>
            </code>
            <subject>
               <reference value="urn:uuid:30e7bdd5-13ff-4a27-95f7-8960682630da"/>
               <display value="Meaghan Neary"/>
            </subject>
            <effectiveDateTime value="2021-06-07T22:11:04Z"/>
            <performer>
               <display value="The Central European Lab"/>
            </performer>
            <specimen>
               <reference value="urn:uuid:e32346cb-a98b-4e64-861e-1807c02dd650"/>
            </specimen>
         </Observation>
      </resource>
   </entry>
   <entry>
      <fullUrl value="urn:uuid:446f9a77-06a9-474c-b4dc-3f42d50b9419"/>
      <resource>
         <Observation>
            <id value="446f9a77-06a9-474c-b4dc-3f42d50b9419"/>
            <meta>
               <profile value="http://hl7.eu/fhir/laboratory/StructureDefinition/Observation-resultslab-eu-lab"/>
            </meta>
            <text>
               <status value="generated"/>
               <div xmlns="http://www.w3.org/1999/xhtml">
                  <table class="hl7__eu__lab__report">
                     <tr>
                        <th>Test</th>
                        <th>08-Jun-2021</th>
                        <th>Reference Range</th>
                        <th>Unit</th>
                     </tr>
                     <tr>
                        <td>Hemoglobin A1c/Hemoglobin.total in Blood</td>
                        <td>3.1</td>
                        <td>4 - 6.4</td>
                        <td>L</td>
                        <td>%</td>
                     </tr>
                  </table>
               </div>
            </text>
            <status value="final"/>
            <category>
               <coding>
                  <system value="http://terminology.hl7.org/CodeSystem/observation-category"/>
                  <code value="laboratory"/>
               </coding>
            </category>
            <code>
               <coding>
                  <system value="http://loinc.org"/>
                  <code value="4548-4"/>
                  <display value="Hemoglobin A1c/Hemoglobin.total in Blood"/>
               </coding>
               <text value="Hemoglobin A1c/Hemoglobin.total in Blood"/>
            </code>
            <subject>
               <reference value="urn:uuid:30e7bdd5-13ff-4a27-95f7-8960682630da"/>
               <display value="Meaghan Neary"/>
            </subject>
            <effectiveDateTime value="2021-06-07T22:11:04Z"/>
            <performer>
               <display value="The Central European Lab"/>
            </performer>
            <valueQuantity>
               <value value="3.1"/>
               <unit value="%"/>
               <system value="http://unitsofmeasure.org"/>
               <code value="%"/>
            </valueQuantity>
            <interpretation>
               <coding>
                  <system value="http://terminology.hl7.org/CodeSystem/v3-ObservationInterpretation"/>
                  <code value="L"/>
                  <display value="Low"/>
               </coding>
            </interpretation>
            <specimen>
               <reference value="urn:uuid:0d85154e-1ee6-4629-bc4d-a6eac184a8fa"/>
            </specimen>
            <referenceRange>
               <low>
                  <value value="4"/>
                  <system value="http://unitsofmeasure.org"/>
                  <code value="%"/>
               </low>
            </referenceRange>
            <referenceRange>
               <high>
                  <value value="6.4"/>
                  <system value="http://unitsofmeasure.org"/>
                  <code value="%"/>
               </high>
            </referenceRange>
         </Observation>
      </resource>
   </entry>
   <entry>
      <fullUrl value="urn:uuid:ea0543ef-2b52-4770-ad31-f95502acb18d"/>
      <resource>
         <Observation>
            <id value="ea0543ef-2b52-4770-ad31-f95502acb18d"/>
            <meta>
               <profile value="http://hl7.eu/fhir/laboratory/StructureDefinition/Observation-resultslab-eu-lab"/>
            </meta>
            <text>
               <status value="generated"/>
               <div xmlns="http://www.w3.org/1999/xhtml">
                  <table class="hl7__eu__lab__report">
                     <tr>
                        <th>Test</th>
                        <th>08-Jun-2021</th>
                        <th>Reference Range</th>
                        <th>Unit</th>
                     </tr>
                     <tr>
                        <td>Glucose [Mass/volume] in Blood</td>
                        <td>78.6</td>
                        <td>70 - 100</td>
                        <td/>
                        <td>mg/dL</td>
                     </tr>
                  </table>
               </div>
            </text>
            <status value="final"/>
            <category>
               <coding>
                  <system value="http://terminology.hl7.org/CodeSystem/observation-category"/>
                  <code value="laboratory"/>
               </coding>
            </category>
            <code>
               <coding>
                  <system value="http://loinc.org"/>
                  <code value="2339-0"/>
                  <display value="Glucose [Mass/volume] in Blood"/>
               </coding>
               <text value="Glucose [Mass/volume] in Blood"/>
            </code>
            <subject>
               <reference value="urn:uuid:30e7bdd5-13ff-4a27-95f7-8960682630da"/>
               <display value="Meaghan Neary"/>
            </subject>
            <effectiveDateTime value="2021-06-07T22:11:04Z"/>
            <performer>
               <display value="The Central European Lab"/>
            </performer>
            <valueQuantity>
               <value value="78.6"/>
               <unit value="mg/dL"/>
               <system value="http://unitsofmeasure.org"/>
               <code value="mg/dL"/>
            </valueQuantity>
            <specimen>
               <reference value="urn:uuid:0d85154e-1ee6-4629-bc4d-a6eac184a8fa"/>
            </specimen>
            <referenceRange>
               <low>
                  <value value="70"/>
                  <system value="http://unitsofmeasure.org"/>
                  <code value="mg/dL"/>
               </low>
            </referenceRange>
            <referenceRange>
               <high>
                  <value value="100"/>
                  <system value="http://unitsofmeasure.org"/>
                  <code value="mg/dL"/>
               </high>
            </referenceRange>
         </Observation>
      </resource>
   </entry>
   <entry>
      <fullUrl value="urn:uuid:1d662749-6fe1-49c0-95ad-6d193f3c5840"/>
      <resource>
         <Observation>
            <id value="1d662749-6fe1-49c0-95ad-6d193f3c5840"/>
            <meta>
               <profile value="http://hl7.eu/fhir/laboratory/StructureDefinition/Observation-resultslab-eu-lab"/>
            </meta>
            <text>
               <status value="generated"/>
               <div xmlns="http://www.w3.org/1999/xhtml">
                  <table class="hl7__eu__lab__report">
                     <tr>
                        <th>Test</th>
                        <th>08-Jun-2021</th>
                        <th>Reference Range</th>
                        <th>Unit</th>
                     </tr>
                     <tr>
                        <td>Urea nitrogen [Mass/volume] in Blood</td>
                        <td>12.8</td>
                        <td>7 - 43</td>
                        <td/>
                        <td>mg/dL</td>
                     </tr>
                  </table>
               </div>
            </text>
            <status value="final"/>
            <category>
               <coding>
                  <system value="http://terminology.hl7.org/CodeSystem/observation-category"/>
                  <code value="laboratory"/>
               </coding>
            </category>
            <code>
               <coding>
                  <system value="http://loinc.org"/>
                  <code value="6299-2"/>
                  <display value="Urea nitrogen [Mass/volume] in Blood"/>
               </coding>
               <text value="Urea nitrogen [Mass/volume] in Blood"/>
            </code>
            <subject>
               <reference value="urn:uuid:30e7bdd5-13ff-4a27-95f7-8960682630da"/>
               <display value="Meaghan Neary"/>
            </subject>
            <effectiveDateTime value="2021-06-07T22:11:04Z"/>
            <performer>
               <display value="The Central European Lab"/>
            </performer>
            <valueQuantity>
               <value value="12.8"/>
               <unit value="mg/dL"/>
               <system value="http://unitsofmeasure.org"/>
               <code value="mg/dL"/>
            </valueQuantity>
            <specimen>
               <reference value="urn:uuid:0d85154e-1ee6-4629-bc4d-a6eac184a8fa"/>
            </specimen>
            <referenceRange>
               <low>
                  <value value="7"/>
                  <system value="http://unitsofmeasure.org"/>
                  <code value="mg/dL"/>
               </low>
            </referenceRange>
            <referenceRange>
               <high>
                  <value value="43"/>
                  <system value="http://unitsofmeasure.org"/>
                  <code value="mg/dL"/>
               </high>
            </referenceRange>
         </Observation>
      </resource>
   </entry>
   <entry>
      <fullUrl value="urn:uuid:e4dfd2ea-5e08-4181-8a3a-569a516831b8"/>
      <resource>
         <Observation>
            <id value="e4dfd2ea-5e08-4181-8a3a-569a516831b8"/>
            <meta>
               <profile value="http://hl7.eu/fhir/laboratory/StructureDefinition/Observation-resultslab-eu-lab"/>
            </meta>
            <text>
               <status value="generated"/>
               <div xmlns="http://www.w3.org/1999/xhtml">
                  <table class="hl7__eu__lab__report">
                     <tr>
                        <th>Test</th>
                        <th>08-Jun-2021</th>
                        <th>Reference Range</th>
                        <th>Unit</th>
                     </tr>
                     <tr>
                        <td>Creatinine [Mass/volume] in Blood</td>
                        <td>3.8</td>
                        <td>0.6 - 1.1</td>
                        <td>H</td>
                        <td>mg/dL</td>
                     </tr>
                  </table>
               </div>
            </text>
            <status value="final"/>
            <category>
               <coding>
                  <system value="http://terminology.hl7.org/CodeSystem/observation-category"/>
                  <code value="laboratory"/>
               </coding>
            </category>
            <code>
               <coding>
                  <system value="http://loinc.org"/>
                  <code value="38483-4"/>
                  <display value="Creatinine [Mass/volume] in Blood"/>
               </coding>
               <text value="Creatinine [Mass/volume] in Blood"/>
            </code>
            <subject>
               <reference value="urn:uuid:30e7bdd5-13ff-4a27-95f7-8960682630da"/>
               <display value="Meaghan Neary"/>
            </subject>
            <effectiveDateTime value="2021-06-07T22:11:04Z"/>
            <performer>
               <display value="The Central European Lab"/>
            </performer>
            <valueQuantity>
               <value value="3.8"/>
               <unit value="mg/dL"/>
               <system value="http://unitsofmeasure.org"/>
               <code value="mg/dL"/>
            </valueQuantity>
            <interpretation>
               <coding>
                  <system value="http://terminology.hl7.org/CodeSystem/v3-ObservationInterpretation"/>
                  <code value="H"/>
                  <display value="High"/>
               </coding>
            </interpretation>
            <specimen>
               <reference value="urn:uuid:0d85154e-1ee6-4629-bc4d-a6eac184a8fa"/>
            </specimen>
            <referenceRange>
               <low>
                  <value value="0.6"/>
                  <system value="http://unitsofmeasure.org"/>
                  <code value="mg/dL"/>
               </low>
            </referenceRange>
            <referenceRange>
               <high>
                  <value value="1.1"/>
                  <system value="http://unitsofmeasure.org"/>
                  <code value="mg/dL"/>
               </high>
            </referenceRange>
         </Observation>
      </resource>
   </entry>
   <entry>
      <fullUrl value="urn:uuid:abe6df77-7f40-4f6b-bbc9-a2a43e51d40e"/>
      <resource>
         <Observation>
            <id value="abe6df77-7f40-4f6b-bbc9-a2a43e51d40e"/>
            <meta>
               <profile value="http://hl7.eu/fhir/laboratory/StructureDefinition/Observation-resultslab-eu-lab"/>
            </meta>
            <text>
               <status value="generated"/>
               <div xmlns="http://www.w3.org/1999/xhtml">
                  <table class="hl7__eu__lab__report">
                     <tr>
                        <th>Test</th>
                        <th>08-Jun-2021</th>
                        <th>Reference Range</th>
                        <th>Unit</th>
                     </tr>
                     <tr>
                        <td>Calcium [Mass/volume] in Blood</td>
                        <td>8.9</td>
                        <td>8.5 - 10.5</td>
                        <td/>
                        <td>mg/dL</td>
                     </tr>
                  </table>
               </div>
            </text>
            <status value="final"/>
            <category>
               <coding>
                  <system value="http://terminology.hl7.org/CodeSystem/observation-category"/>
                  <code value="laboratory"/>
               </coding>
            </category>
            <code>
               <coding>
                  <system value="http://loinc.org"/>
                  <code value="49765-1"/>
                  <display value="Calcium [Mass/volume] in Blood"/>
               </coding>
               <text value="Calcium [Mass/volume] in Blood"/>
            </code>
            <subject>
               <reference value="urn:uuid:30e7bdd5-13ff-4a27-95f7-8960682630da"/>
               <display value="Meaghan Neary"/>
            </subject>
            <effectiveDateTime value="2021-06-07T22:11:04Z"/>
            <performer>
               <display value="The Central European Lab"/>
            </performer>
            <valueQuantity>
               <value value="8.9"/>
               <unit value="mg/dL"/>
               <system value="http://unitsofmeasure.org"/>
               <code value="mg/dL"/>
            </valueQuantity>
            <specimen>
               <reference value="urn:uuid:0d85154e-1ee6-4629-bc4d-a6eac184a8fa"/>
            </specimen>
            <referenceRange>
               <low>
                  <value value="8.5"/>
                  <system value="http://unitsofmeasure.org"/>
                  <code value="mg/dL"/>
               </low>
            </referenceRange>
            <referenceRange>
               <high>
                  <value value="10.5"/>
                  <system value="http://unitsofmeasure.org"/>
                  <code value="mg/dL"/>
               </high>
            </referenceRange>
         </Observation>
      </resource>
   </entry>
   <entry>
      <fullUrl value="urn:uuid:4d49b843-6525-43c0-a315-3aa97c843bbc"/>
      <resource>
         <Observation>
            <id value="4d49b843-6525-43c0-a315-3aa97c843bbc"/>
            <meta>
               <profile value="http://hl7.eu/fhir/laboratory/StructureDefinition/Observation-resultslab-eu-lab"/>
            </meta>
            <text>
               <status value="generated"/>
               <div xmlns="http://www.w3.org/1999/xhtml">
                  <table class="hl7__eu__lab__report">
                     <tr>
                        <th>Test</th>
                        <th>08-Jun-2021</th>
                        <th>Reference Range</th>
                        <th>Unit</th>
                     </tr>
                     <tr>
                        <td>Sodium [Moles/volume] in Blood</td>
                        <td>137.7</td>
                        <td>135 - 145</td>
                        <td/>
                        <td>mmol/L</td>
                     </tr>
                  </table>
               </div>
            </text>
            <status value="final"/>
            <category>
               <coding>
                  <system value="http://terminology.hl7.org/CodeSystem/observation-category"/>
                  <code value="laboratory"/>
               </coding>
            </category>
            <code>
               <coding>
                  <system value="http://loinc.org"/>
                  <code value="2947-0"/>
                  <display value="Sodium [Moles/volume] in Blood"/>
               </coding>
               <text value="Sodium [Moles/volume] in Blood"/>
            </code>
            <subject>
               <reference value="urn:uuid:30e7bdd5-13ff-4a27-95f7-8960682630da"/>
               <display value="Meaghan Neary"/>
            </subject>
            <effectiveDateTime value="2021-06-07T22:11:04Z"/>
            <performer>
               <display value="The Central European Lab"/>
            </performer>
            <valueQuantity>
               <value value="137.7"/>
               <unit value="mmol/L"/>
               <system value="http://unitsofmeasure.org"/>
               <code value="mmol/L"/>
            </valueQuantity>
            <specimen>
               <reference value="urn:uuid:0d85154e-1ee6-4629-bc4d-a6eac184a8fa"/>
            </specimen>
            <referenceRange>
               <low>
                  <value value="135"/>
                  <system value="http://unitsofmeasure.org"/>
                  <code value="mmol/L"/>
               </low>
            </referenceRange>
            <referenceRange>
               <high>
                  <value value="145"/>
                  <system value="http://unitsofmeasure.org"/>
                  <code value="mmol/L"/>
               </high>
            </referenceRange>
         </Observation>
      </resource>
   </entry>
   <entry>
      <fullUrl value="urn:uuid:56c8ebe8-4f30-49c2-967a-3bc5d5c0ddc1"/>
      <resource>
         <Observation>
            <id value="56c8ebe8-4f30-49c2-967a-3bc5d5c0ddc1"/>
            <meta>
               <profile value="http://hl7.eu/fhir/laboratory/StructureDefinition/Observation-resultslab-eu-lab"/>
            </meta>
            <text>
               <status value="generated"/>
               <div xmlns="http://www.w3.org/1999/xhtml">
                  <table class="hl7__eu__lab__report">
                     <tr>
                        <th>Test</th>
                        <th>08-Jun-2021</th>
                        <th>Reference Range</th>
                        <th>Unit</th>
                     </tr>
                     <tr>
                        <td>Potassium [Moles/volume] in Blood</td>
                        <td>4.5</td>
                        <td>3.5 - 5.1</td>
                        <td/>
                        <td>mmol/L</td>
                     </tr>
                  </table>
               </div>
            </text>
            <status value="final"/>
            <category>
               <coding>
                  <system value="http://terminology.hl7.org/CodeSystem/observation-category"/>
                  <code value="laboratory"/>
               </coding>
            </category>
            <code>
               <coding>
                  <system value="http://loinc.org"/>
                  <code value="6298-4"/>
                  <display value="Potassium [Moles/volume] in Blood"/>
               </coding>
               <text value="Potassium [Moles/volume] in Blood"/>
            </code>
            <subject>
               <reference value="urn:uuid:30e7bdd5-13ff-4a27-95f7-8960682630da"/>
               <display value="Meaghan Neary"/>
            </subject>
            <effectiveDateTime value="2021-06-07T22:11:04Z"/>
            <performer>
               <display value="The Central European Lab"/>
            </performer>
            <valueQuantity>
               <value value="4.5"/>
               <unit value="mmol/L"/>
               <system value="http://unitsofmeasure.org"/>
               <code value="mmol/L"/>
            </valueQuantity>
            <specimen>
               <reference value="urn:uuid:0d85154e-1ee6-4629-bc4d-a6eac184a8fa"/>
            </specimen>
            <referenceRange>
               <low>
                  <value value="3.5"/>
                  <system value="http://unitsofmeasure.org"/>
                  <code value="mmol/L"/>
               </low>
            </referenceRange>
            <referenceRange>
               <high>
                  <value value="5.1"/>
                  <system value="http://unitsofmeasure.org"/>
                  <code value="mmol/L"/>
               </high>
            </referenceRange>
         </Observation>
      </resource>
   </entry>
   <entry>
      <fullUrl value="urn:uuid:955acd42-dc23-47d2-9990-0dbfe98cea85"/>
      <resource>
         <Observation>
            <id value="955acd42-dc23-47d2-9990-0dbfe98cea85"/>
            <meta>
               <profile value="http://hl7.eu/fhir/laboratory/StructureDefinition/Observation-resultslab-eu-lab"/>
            </meta>
            <text>
               <status value="generated"/>
               <div xmlns="http://www.w3.org/1999/xhtml">
                  <table class="hl7__eu__lab__report">
                     <tr>
                        <th>Test</th>
                        <th>08-Jun-2021</th>
                        <th>Reference Range</th>
                        <th>Unit</th>
                     </tr>
                     <tr>
                        <td>Chloride [Moles/volume] in Blood</td>
                        <td>110.4</td>
                        <td>98 - 108</td>
                        <td>H</td>
                        <td>mmol/L</td>
                     </tr>
                  </table>
               </div>
            </text>
            <status value="final"/>
            <category>
               <coding>
                  <system value="http://terminology.hl7.org/CodeSystem/observation-category"/>
                  <code value="laboratory"/>
               </coding>
            </category>
            <code>
               <coding>
                  <system value="http://loinc.org"/>
                  <code value="2069-3"/>
                  <display value="Chloride [Moles/volume] in Blood"/>
               </coding>
               <text value="Chloride [Moles/volume] in Blood"/>
            </code>
            <subject>
               <reference value="urn:uuid:30e7bdd5-13ff-4a27-95f7-8960682630da"/>
               <display value="Meaghan Neary"/>
            </subject>
            <effectiveDateTime value="2021-06-07T22:11:04Z"/>
            <performer>
               <display value="The Central European Lab"/>
            </performer>
            <valueQuantity>
               <value value="110.4"/>
               <unit value="mmol/L"/>
               <system value="http://unitsofmeasure.org"/>
               <code value="mmol/L"/>
            </valueQuantity>
            <interpretation>
               <coding>
                  <system value="http://terminology.hl7.org/CodeSystem/v3-ObservationInterpretation"/>
                  <code value="H"/>
                  <display value="High"/>
               </coding>
            </interpretation>
            <specimen>
               <reference value="urn:uuid:0d85154e-1ee6-4629-bc4d-a6eac184a8fa"/>
            </specimen>
            <referenceRange>
               <low>
                  <value value="98"/>
                  <system value="http://unitsofmeasure.org"/>
                  <code value="mmol/L"/>
               </low>
            </referenceRange>
            <referenceRange>
               <high>
                  <value value="108"/>
                  <system value="http://unitsofmeasure.org"/>
                  <code value="mmol/L"/>
               </high>
            </referenceRange>
         </Observation>
      </resource>
   </entry>
   <entry>
      <fullUrl value="urn:uuid:c9ddaa6d-1815-4a52-a135-b6a64b5cc833"/>
      <resource>
         <Observation>
            <id value="c9ddaa6d-1815-4a52-a135-b6a64b5cc833"/>
            <meta>
               <profile value="http://hl7.eu/fhir/laboratory/StructureDefinition/Observation-resultslab-eu-lab"/>
            </meta>
            <text>
               <status value="generated"/>
               <div xmlns="http://www.w3.org/1999/xhtml">
                  <table class="hl7__eu__lab__report">
                     <tr>
                        <th>Test</th>
                        <th>08-Jun-2021</th>
                        <th>Reference Range</th>
                        <th>Unit</th>
                     </tr>
                     <tr>
                        <td>Carbon dioxide, total [Moles/volume] in Blood</td>
                        <td>21.6</td>
                        <td>22 - 29</td>
                        <td>L</td>
                        <td>mmol/L</td>
                     </tr>
                  </table>
               </div>
            </text>
            <status value="final"/>
            <category>
               <coding>
                  <system value="http://terminology.hl7.org/CodeSystem/observation-category"/>
                  <code value="laboratory"/>
               </coding>
            </category>
            <code>
               <coding>
                  <system value="http://loinc.org"/>
                  <code value="20565-8"/>
                  <display value="Carbon dioxide, total [Moles/volume] in Blood"/>
               </coding>
               <text value="Carbon dioxide, total [Moles/volume] in Blood"/>
            </code>
            <subject>
               <reference value="urn:uuid:30e7bdd5-13ff-4a27-95f7-8960682630da"/>
               <display value="Meaghan Neary"/>
            </subject>
            <effectiveDateTime value="2021-06-07T22:11:04Z"/>
            <performer>
               <display value="The Central European Lab"/>
            </performer>
            <valueQuantity>
               <value value="21.6"/>
               <unit value="mmol/L"/>
               <system value="http://unitsofmeasure.org"/>
               <code value="mmol/L"/>
            </valueQuantity>
            <interpretation>
               <coding>
                  <system value="http://terminology.hl7.org/CodeSystem/v3-ObservationInterpretation"/>
                  <code value="L"/>
                  <display value="Low"/>
               </coding>
            </interpretation>
            <specimen>
               <reference value="urn:uuid:0d85154e-1ee6-4629-bc4d-a6eac184a8fa"/>
            </specimen>
            <referenceRange>
               <low>
                  <value value="22"/>
                  <system value="http://unitsofmeasure.org"/>
                  <code value="mmol/L"/>
               </low>
            </referenceRange>
            <referenceRange>
               <high>
                  <value value="29"/>
                  <system value="http://unitsofmeasure.org"/>
                  <code value="mmol/L"/>
               </high>
            </referenceRange>
         </Observation>
      </resource>
   </entry>
   <entry>
      <fullUrl value="urn:uuid:ccb4631c-0759-4a12-8b21-34ff860f7e75"/>
      <resource>
         <Device>
            <id value="ccb4631c-0759-4a12-8b21-34ff860f7e75"/>
            <text>
               <status value="generated"/>
               <div xmlns="http://www.w3.org/1999/xhtml">SYNDERAI Synthetic Generator v5.0</div>
            </text>
            <status value="active&#34;"/>
            <distinctIdentifier value="synderai-generator-50"/>
            <manufacturer value="SYNDERAI Project"/>
            <deviceName>
               <name value="SYNDERAI Synthetic Generator"/>
               <type value="manufacturer-name"/>
            </deviceName>
            <version>
               <value value="5.0"/>
            </version>
         </Device>
      </resource>
   </entry>
   <entry>
      <fullUrl value="urn:uuid:3b71de01-a826-4fb8-ba2b-a4079763d98f"/>
      <resource>
         <Provenance>
            <id value="3b71de01-a826-4fb8-ba2b-a4079763d98f"/>
            <text>
               <status value="generated"/>
               <div xmlns="http://www.w3.org/1999/xhtml">Provenance for SYNDERAI Synthetic Example Data Resource</div>
            </text>
            <target>
               <reference value="Patient/30e7bdd5-13ff-4a27-95f7-8960682630da"/>
            </target>
            <target>
               <reference value="Bundle/699be0d3-5cc9-4d22-aeb0-83905d225218"/>
            </target>
            <target>
               <reference value="Composition/f2efe11d-ffbe-4b0e-bab1-38d9f284ef14"/>
            </target>
            <target>
               <reference value="PractitionerRole/8c6e5e0d-781f-47b7-9a43-38893dbfee40"/>
            </target>
            <target>
               <reference value="Practitioner/203ab266-389f-4d37-b997-7bafbb275d14"/>
            </target>
            <target>
               <reference value="PractitionerRole/b40fbc9e-f54b-4b84-8c7b-fa9a9e6358c7"/>
            </target>
            <target>
               <reference value="Organization/8b8a4611-e730-4c7b-93c3-2e156cd68cf6"/>
            </target>
            <recorded value="2021-06-08T00:11:04Z"/>
            <policy value="https://synderai.net/synderai-synthetic-data-policy"/>
            <reason>
               <text value="Interoperability Testing and Training (non-clinical use)"/>
            </reason>
            <activity>
               <text value="Synthetic Example Data Generation"/>
            </activity>
            <agent>
               <type>
                  <text value="author"/>
               </type>
               <who>
                  <reference value="Device/ccb4631c-0759-4a12-8b21-34ff860f7e75"/>
               </who>
            </agent>
         </Provenance>
      </resource>
   </entry>
   <entry>
      <fullUrl value="urn:uuid:8c6e5e0d-781f-47b7-9a43-38893dbfee40"/>
      <resource>
         <PractitionerRole>
            <id value="8c6e5e0d-781f-47b7-9a43-38893dbfee40"/>
            <meta>
               <profile value="http://hl7.eu/fhir/base/StructureDefinition/practitionerRole-eu"/>
            </meta>
            <text>
               <status value="generated"/>
               <div xmlns="http://www.w3.org/1999/xhtml">Laboratory Role Id: 8c6e5e0d-781f-47b7-9a43-38893dbfee40</div>
            </text>
            <practitioner>
               <reference value="urn:uuid:203ab266-389f-4d37-b997-7bafbb275d14"/>
            </practitioner>
         </PractitionerRole>
      </resource>
   </entry>
   <entry>
      <fullUrl value="urn:uuid:203ab266-389f-4d37-b997-7bafbb275d14"/>
      <resource>
         <Practitioner>
            <id value="203ab266-389f-4d37-b997-7bafbb275d14"/>
            <meta>
               <profile value="http://hl7.eu/fhir/base/StructureDefinition/practitioner-eu"/>
            </meta>
            <text>
               <status value="generated"/>
               <div xmlns="http://www.w3.org/1999/xhtml">Laboratory: Laboratoire Central Européenne, 1000 Brussels, Belgium</div>
            </text>
            <identifier>
               <system value="urn:oid:2.16.840.1.113883.2.51.999"/>
               <value value="ddadcacd-9abf-4977-b7ff-fb5949d8f0bc"/>
               <assigner>
                  <display value="HL7 Europe"/>
               </assigner>
            </identifier>
            <name>
               <family value="Ample"/>
               <given value="Ex"/>
               <prefix value="dr"/>
            </name>
            <address>
               <line value="Laboratoire Central Européenne"/>
               <line value="Boulevard du Jardin Botanique 32"/>
               <city value="Brussels"/>
               <postalCode value="1000"/>
               <country value="Belgium"/>
            </address>
         </Practitioner>
      </resource>
   </entry>
</Bundle>