{
  "resourceType": "Bundle",
  "id": "ae05e8c7-119c-4b4a-ad6e-b7d2ee6ad9be",
  "meta": {
    "profile": [
      "http://hl7.eu/fhir/laboratory/StructureDefinition/Bundle-eu-lab"
    ]
  },
  "identifier": {
    "assigner": {
      "display": "HL7 Europe"
    },
    "system": "urn:oid:2.16.840.1.113883.2.51.999",
    "value": "916298f6-23e5-48cd-92e8-51dbdc270542"
  },
  "entry": [
    {
      "fullUrl": "urn:uuid:1008c93e-ee37-41e2-8bc4-f864a2fe7682",
      "resource": {
        "resourceType": "Composition",
        "id": "1008c93e-ee37-41e2-8bc4-f864a2fe7682",
        "meta": {
          "profile": [
            "http://hl7.eu/fhir/laboratory/StructureDefinition/Composition-eu-lab"
          ]
        },
        "identifier": {
          "assigner": {
            "display": "HL7 Europe"
          },
          "system": "urn:oid:2.16.840.1.113883.2.51.999",
          "value": "3588573c-42e3-4764-b75f-4f81e6999b08"
        },
        "author": [
          {
            "reference": "urn:uuid:32876f73-6907-49e9-be17-677865bcdf85"
          }
        ],
        "category": [
          {
            "coding": [
              {
                "code": "26436-6",
                "system": "http://loinc.org",
                "display": "Laboratory studies (set)"
              }
            ]
          }
        ],
        "type": {
          "coding": [
            {
              "code": "11502-2",
              "system": "http://loinc.org",
              "display": "Laboratory report"
            }
          ],
          "text": "Laboratory Report"
        },
        "section": [
          {
            "code": {
              "coding": [
                {
                  "code": "26436-6",
                  "system": "http://loinc.org",
                  "display": "Laboratory studies (set)"
                }
              ],
              "text": "Laboratory studies"
            },
            "section": [
              {
                "code": {
                  "coding": [
                    {
                      "code": "$18723-7",
                      "system": "http://loinc.org",
                      "display": "Hematology studies (set)"
                    }
                  ],
                  "text": "Hematology"
                },
                "entry": [
                  {
                    "reference": "urn:uuid:7892d20d-462e-47a7-bbbb-15be6c8dc7b6"
                  },
                  {
                    "reference": "urn:uuid:c664eced-6d40-4a9b-ade5-9d7d87e481a1"
                  },
                  {
                    "reference": "urn:uuid:14b8078f-c900-4a29-84d1-ad8656bd5335"
                  },
                  {
                    "reference": "urn:uuid:40eb1dd0-85cb-4e61-93a9-4f90cf42300e"
                  },
                  {
                    "reference": "urn:uuid:190abf15-4630-483e-9966-f2dd49f649ea"
                  },
                  {
                    "reference": "urn:uuid:0a1b59f1-68bb-4f99-83b5-aec774e7d92e"
                  },
                  {
                    "reference": "urn:uuid:c2b0b024-9b60-4b15-9d1d-12458bf036fb"
                  },
                  {
                    "reference": "urn:uuid:0216f31f-64fb-414f-af20-9b1b389cd1ae"
                  },
                  {
                    "reference": "urn:uuid:0ffb36f8-b749-4a1f-b7d2-26aafda197c3"
                  },
                  {
                    "reference": "urn:uuid:40f1989c-1a75-429f-8b17-547f723e64fa"
                  },
                  {
                    "reference": "urn:uuid:24abf65d-b674-4ae5-8093-4d403ab358f7"
                  }
                ],
                "text": {
                  "status": "generated",
                  "div": "<div xmlns=\"http://www.w3.org/1999/xhtml\"><h3>Hematology</h3><table class=\"hl7__eu__lab__report\"><thead><tr><th>Test</th><th>27-NOV-2024</th><th>Reference&#xA0;Range</th><th>Unit</th></tr></thead><tbody><tr><td>Leukocytes [#/volume] in Blood by Automated count</td><td>5.0</td><td>3.4 - 10.6</td><td>10*3/uL</td></tr><tr><td>Erythrocytes [#/volume] in Blood by Automated count</td><td><strong>5.3 H</strong></td><td>4.7 - 5.2</td><td>10*6/uL</td></tr><tr><td>Hemoglobin [Mass/volume] in Blood</td><td>12.6</td><td>11.5 - 16</td><td>g/dL</td></tr><tr><td>Hematocrit [Volume Fraction] of Blood by Automated count</td><td>46.6</td><td>38 - 56</td><td>%</td></tr><tr><td>MCV [Entitic volume] by Automated count</td><td>88.8</td><td>78 - 98</td><td>fL</td></tr><tr><td>MCH [Entitic mass] by Automated count</td><td>32.6</td><td>27 - 34</td><td>pg</td></tr><tr><td>MCHC [Mass/volume] by Automated count</td><td>33.9</td><td>31 - 36</td><td>g/dL</td></tr><tr><td>Erythrocyte distribution width [Entitic volume] by Automated count</td><td>42.1</td><td>36 - 55</td><td>fL</td></tr><tr><td>Platelets [#/volume] in Blood by Automated count</td><td>320.3</td><td>150 - 450</td><td>10*3/uL</td></tr><tr><td>Platelet distribution width [Entitic volume] in Blood by Automated count</td><td><strong>284.8 H</strong></td><td>11.6 - 17.4</td><td>fL</td></tr><tr><td>Platelet mean volume [Entitic volume] in Blood by Automated count</td><td>11.9</td><td>7.2 - 13.5</td><td>fL</td></tr></tbody></table></div>"
                },
                "title": "Hematology"
              }
            ],
            "title": "Laboratory Report"
          },
          {
            "text": {
              "status": "generated",
              "div": "<div xmlns=\"http://www.w3.org/1999/xhtml\"><h3>Annotation</h3><table class=\"hl7__eu__lab__report\"><tr><th>Conclusion and Recommendations based on this report and previous findings known to us</th></tr><tr><td>The blood count is largely within normal limits, with a mildly elevated erythrocyte count and a markedly increased platelet distribution width, which may suggest increased platelet size variability, possibly due to reactive or regenerative processes. No evidence of anemia, leukocytosis, or thrombocytopenia. Correlation with clinical context is recommended.</td></tr></table></div>"
            },
            "code": {
              "coding": [
                {
                  "system": "http://loinc.org",
                  "code": "48767-8",
                  "display": "Annotation comment"
                }
              ]
            },
            "title": "Annotation comment"
          }
        ],
        "status": "final",
        "subject": {
          "reference": "urn:uuid:f7d99c00-c9a9-4f68-9f0f-7bd1432668d6",
          "display": "Ludmila Vávrová"
        },
        "date": "2024-11-27T04:51:38Z",
        "title": "Laboratory Report",
        "confidentiality": "N"
      }
    },
    {
      "fullUrl": "urn:uuid:fb94efe4-8d45-4f6d-bcaa-7d91060dc75e",
      "resource": {
        "resourceType": "DiagnosticReport",
        "id": "fb94efe4-8d45-4f6d-bcaa-7d91060dc75e",
        "meta": {
          "profile": [
            "http://hl7.eu/fhir/laboratory/StructureDefinition/DiagnosticReport-eu-lab"
          ]
        },
        "identifier": [
          {
            "assigner": {
              "display": "HL7 Europe"
            },
            "system": "urn:oid:2.16.840.1.113883.2.51.999",
            "value": "7ba1e58b-50d4-4d3a-882e-f9ac99e1c892"
          }
        ],
        "extension": [
          {
            "url": "http://hl7.org/fhir/5.0/StructureDefinition/extension-DiagnosticReport.composition",
            "valueReference": {
              "reference": "urn:uuid:3588573c-42e3-4764-b75f-4f81e6999b08"
            }
          }
        ],
        "category": [
          {
            "coding": [
              {
                "code": "26436-6",
                "system": "http://loinc.org",
                "display": "Laboratory studies (set)"
              }
            ]
          }
        ],
        "specimen": [
          {
            "reference": "urn:uuid:b15567c3-109c-4881-89b1-e99805511f61"
          },
          {
            "reference": "urn:uuid:b15567c3-109c-4881-89b1-e99805511f61"
          }
        ],
        "result": [
          {
            "reference": "urn:uuid:7892d20d-462e-47a7-bbbb-15be6c8dc7b6"
          },
          {
            "reference": "urn:uuid:c664eced-6d40-4a9b-ade5-9d7d87e481a1"
          },
          {
            "reference": "urn:uuid:14b8078f-c900-4a29-84d1-ad8656bd5335"
          },
          {
            "reference": "urn:uuid:40eb1dd0-85cb-4e61-93a9-4f90cf42300e"
          },
          {
            "reference": "urn:uuid:190abf15-4630-483e-9966-f2dd49f649ea"
          },
          {
            "reference": "urn:uuid:0a1b59f1-68bb-4f99-83b5-aec774e7d92e"
          },
          {
            "reference": "urn:uuid:c2b0b024-9b60-4b15-9d1d-12458bf036fb"
          },
          {
            "reference": "urn:uuid:0216f31f-64fb-414f-af20-9b1b389cd1ae"
          },
          {
            "reference": "urn:uuid:0ffb36f8-b749-4a1f-b7d2-26aafda197c3"
          },
          {
            "reference": "urn:uuid:40f1989c-1a75-429f-8b17-547f723e64fa"
          },
          {
            "reference": "urn:uuid:24abf65d-b674-4ae5-8093-4d403ab358f7"
          }
        ],
        "status": "registered",
        "code": {
          "coding": [
            {
              "code": "11502-2",
              "system": "http://loinc.org",
              "display": "Laboratory report"
            }
          ]
        },
        "subject": {
          "reference": "urn:uuid:f7d99c00-c9a9-4f68-9f0f-7bd1432668d6",
          "display": "Ludmila Vávrová"
        }
      }
    },
    {
      "fullUrl": "urn:uuid:f7d99c00-c9a9-4f68-9f0f-7bd1432668d6",
      "resource": {
        "resourceType": "Patient",
        "id": "f7d99c00-c9a9-4f68-9f0f-7bd1432668d6",
        "meta": {
          "security": [
            {
              "system": "http://terminology.hl7.org/CodeSystem/v3-ActReason",
              "code": "HTEST"
            },
            {
              "system": "http://terminology.hl7.org/CodeSystem/v3-ActReason",
              "code": "TRAIN"
            }
          ],
          "tag": [
            {
              "system": "https://synderai.net/fhir/CodeSystem/tags",
              "code": "synthetic",
              "display": "SYNDERAI Synthetic data"
            }
          ],
          "profile": [
            "http://hl7.eu/fhir/base/StructureDefinition/patient-eu-core"
          ]
        },
        "identifier": [
          {
            "type": {
              "coding": [
                {
                  "code": "PT",
                  "system": "http://terminology.hl7.org/CodeSystem/v2-0203"
                }
              ]
            },
            "system": "http://ec.europa.eu/identifier/eci",
            "value": "1992-540676-1"
          },
          {
            "type": {
              "coding": [
                {
                  "code": "MR",
                  "system": "http://terminology.hl7.org/CodeSystem/v2-0203"
                }
              ]
            },
            "system": "http://local.setting.eu/identifier",
            "value": "7c533aae-6e7f-89aa-dfdc-8ff900a5990b"
          }
        ],
        "name": [
          {
            "family": "Vávrová"
          },
          {
            "given": [
              "Ludmila"
            ]
          },
          {
            "text": "Ludmila Vávrová"
          }
        ],
        "address": [
          {
            "line": [
              "Šárovo Kolo 116"
            ],
            "use": "home",
            "type": "physical",
            "postalCode": "29471",
            "city": "Bakov nad Jizerou",
            "country": "Czechia"
          }
        ],
        "telecom": [
          {
            "system": "phone",
            "value": "00420 607 610 889"
          }
        ],
        "extension": [
          {
            "url": "http://hl7.org/fhir/StructureDefinition/patient-nationality",
            "valueCodeableConcept": {
              "coding": [
                {
                  "code": "CZ",
                  "system": "http://hl7.org/fhir/ValueSet/country"
                }
              ]
            }
          }
        ],
        "text": {
          "status": "generated",
          "div": "<div xmlns=\"http://www.w3.org/1999/xhtml\"><table class=\"hl7__ips\"><tr><td>Ludmila Vávrová</td><td>female</td><td>08-Aug-1940</td></tr></table></div>"
        },
        "gender": "female",
        "birthDate": "1940-08-08"
      }
    },
    {
      "fullUrl": "urn:uuid:0161db01-4dc0-4787-921c-1ec8c7c3a2c9",
      "resource": {
        "resourceType": "ServiceRequest",
        "id": "0161db01-4dc0-4787-921c-1ec8c7c3a2c9",
        "meta": {
          "profile": [
            "http://hl7.eu/fhir/laboratory/StructureDefinition/ServiceRequest-eu-lab"
          ]
        },
        "identifier": [
          {
            "system": "http://example.org",
            "value": "8c538015-ebc7-459b-81fd-fc119f40c7b8"
          }
        ],
        "specimen": [
          {
            "reference": "urn:uuid:b15567c3-109c-4881-89b1-e99805511f61"
          }
        ],
        "reasonCode": [
          {
            "coding": [
              {
                "code": "414545008",
                "system": "http://snomed.info/sct",
                "display": "Ischemic heart disease"
              }
            ]
          },
          {
            "coding": [
              {
                "code": "64859006",
                "system": "http://snomed.info/sct",
                "display": "Osteoporosis"
              }
            ]
          },
          {
            "coding": [
              {
                "code": "6525002",
                "system": "http://snomed.info/sct",
                "display": "Dependent drug abuse"
              }
            ]
          },
          {
            "coding": [
              {
                "code": "55822004",
                "system": "http://snomed.info/sct",
                "display": "Hyperlipidemia"
              }
            ]
          },
          {
            "coding": [
              {
                "code": "124171000119105",
                "system": "http://snomed.info/sct",
                "display": "Chronic intractable migraine without aura"
              }
            ]
          },
          {
            "coding": [
              {
                "code": "196416002",
                "system": "http://snomed.info/sct",
                "display": "Impacted molars"
              }
            ]
          },
          {
            "coding": [
              {
                "code": "239872002",
                "system": "http://snomed.info/sct",
                "display": "Osteoarthritis of hip"
              }
            ]
          },
          {
            "coding": [
              {
                "code": "40055000",
                "system": "http://snomed.info/sct",
                "display": "Chronic sinusitis"
              }
            ]
          }
        ],
        "status": "active",
        "intent": "order",
        "code": {
          "coding": [
            {
              "code": "108252007",
              "system": "http://snomed.info/sct",
              "display": "Laboratory procedure"
            }
          ]
        },
        "subject": {
          "reference": "urn:uuid:f7d99c00-c9a9-4f68-9f0f-7bd1432668d6",
          "display": "Ludmila Vávrová"
        },
        "requester": {
          "reference": "urn:uuid:d13a3eee-553f-4127-9605-b5eeaeca4e0b"
        }
      }
    },
    {
      "fullUrl": "urn:uuid:d13a3eee-553f-4127-9605-b5eeaeca4e0b",
      "resource": {
        "resourceType": "PractitionerRole",
        "id": "d13a3eee-553f-4127-9605-b5eeaeca4e0b",
        "meta": {
          "profile": [
            "http://hl7.eu/fhir/base/StructureDefinition/practitionerRole-eu"
          ]
        },
        "text": {
          "status": "generated",
          "div": "<div xmlns=\"http://www.w3.org/1999/xhtml\">Provider Role Id: d13a3eee-553f-4127-9605-b5eeaeca4e0b</div>"
        },
        "organization": {
          "reference": "urn:uuid:86f6f515-cec2-4226-80fe-fec40d7e5ca6"
        }
      }
    },
    {
      "fullUrl": "urn:uuid:86f6f515-cec2-4226-80fe-fec40d7e5ca6",
      "resource": {
        "resourceType": "Organization",
        "id": "86f6f515-cec2-4226-80fe-fec40d7e5ca6",
        "meta": {
          "profile": [
            "http://hl7.eu/fhir/base/StructureDefinition/organization-eu"
          ]
        },
        "identifier": [
          {
            "assigner": {
              "display": "HL7 Europe"
            },
            "system": "urn:oid:2.16.840.1.113883.2.51.999",
            "value": "ac21163b-670b-4288-bdfa-6147aed656dc"
          }
        ],
        "address": [
          {
            "city": "Kosmonosy",
            "postalCode": "293 06",
            "country": "Czechia"
          }
        ],
        "text": {
          "status": "generated",
          "div": "<div xmlns=\"http://www.w3.org/1999/xhtml\">Provider Organization: Psychiatrická nemocnice Kosmonosy</div>"
        },
        "name": "Psychiatrická nemocnice Kosmonosy"
      }
    },
    {
      "fullUrl": "urn:uuid:b15567c3-109c-4881-89b1-e99805511f61",
      "resource": {
        "resourceType": "Specimen",
        "id": "b15567c3-109c-4881-89b1-e99805511f61",
        "meta": {
          "profile": [
            "http://hl7.eu/fhir/laboratory/StructureDefinition/Specimen-eu-lab"
          ]
        },
        "collection": {
          "collectedDateTime": "2024-11-27"
        },
        "text": {
          "status": "generated",
          "div": "<div xmlns=\"http://www.w3.org/1999/xhtml\"><table class=\"hl7__eu__lab__report\"><tr><th>Specimen</th><th>Collection Date</th></tr><tr><td>Whole blood specimen (specimen)</td><td><span class=\"nb\">27-Nov-2024</span></td></tr></table></div>"
        },
        "type": {
          "coding": [
            {
              "code": "258580003",
              "system": "http://snomed.info/sct",
              "display": "Whole blood specimen (specimen)"
            }
          ]
        }
      }
    },
    {
      "fullUrl": "urn:uuid:b15567c3-109c-4881-89b1-e99805511f61",
      "resource": {
        "resourceType": "Specimen",
        "id": "b15567c3-109c-4881-89b1-e99805511f61",
        "meta": {
          "profile": [
            "http://hl7.eu/fhir/laboratory/StructureDefinition/Specimen-eu-lab"
          ]
        },
        "collection": {
          "collectedDateTime": "2024-11-27"
        },
        "text": {
          "status": "generated",
          "div": "<div xmlns=\"http://www.w3.org/1999/xhtml\"><table class=\"hl7__eu__lab__report\"><tr><th>Specimen</th><th>Collection Date</th></tr><tr><td>Whole blood specimen (specimen)</td><td><span class=\"nb\">27-Nov-2024</span></td></tr></table></div>"
        },
        "type": {
          "coding": [
            {
              "code": "258580003",
              "system": "http://snomed.info/sct",
              "display": "Whole blood specimen (specimen)"
            }
          ]
        }
      }
    },
    {
      "fullUrl": "urn:uuid:7892d20d-462e-47a7-bbbb-15be6c8dc7b6",
      "resource": {
        "resourceType": "Observation",
        "id": "7892d20d-462e-47a7-bbbb-15be6c8dc7b6",
        "meta": {
          "profile": [
            "http://hl7.eu/fhir/laboratory/StructureDefinition/Observation-resultslab-eu-lab"
          ]
        },
        "performer": [
          {
            "display": "The Central European Lab"
          }
        ],
        "category": [
          {
            "coding": [
              {
                "system": "http://terminology.hl7.org/CodeSystem/observation-category",
                "code": "laboratory"
              }
            ]
          }
        ],
        "code": {
          "coding": [
            {
              "code": "6690-2",
              "system": "http://loinc.org",
              "display": "Leukocytes [#/volume] in Blood by Automated count"
            }
          ],
          "text": "Leukocytes [#/volume] in Blood by Automated count"
        },
        "valueQuantity": {
          "system": "http://unitsofmeasure.org",
          "value": 5,
          "unit": "10*3/uL",
          "code": "10*3/uL"
        },
        "referenceRange": [
          {
            "low": {
              "value": 3.4,
              "code": "10*3/uL",
              "system": "http://unitsofmeasure.org"
            }
          },
          {
            "high": {
              "value": 10.6,
              "code": "10*3/uL",
              "system": "http://unitsofmeasure.org"
            }
          }
        ],
        "text": {
          "status": "generated",
          "div": "<div xmlns=\"http://www.w3.org/1999/xhtml\"><table class=\"hl7__eu__lab__report\"><tr><th>Test</th><th>27-Nov-2024</th><th>Reference&#xA0;Range</th><th>Unit</th></tr><tr><td>Leukocytes [#/volume] in Blood by Automated count</td><td>5.0</td><td>3.4 - 10.6</td><td></td><td>10*3/uL</td></tr></table></div>"
        },
        "status": "final",
        "subject": {
          "reference": "urn:uuid:f7d99c00-c9a9-4f68-9f0f-7bd1432668d6",
          "display": "Ludmila Vávrová"
        },
        "effectiveDateTime": "2024-11-27T03:51:38Z",
        "specimen": {
          "reference": "urn:uuid:b15567c3-109c-4881-89b1-e99805511f61"
        }
      }
    },
    {
      "fullUrl": "urn:uuid:c664eced-6d40-4a9b-ade5-9d7d87e481a1",
      "resource": {
        "resourceType": "Observation",
        "id": "c664eced-6d40-4a9b-ade5-9d7d87e481a1",
        "meta": {
          "profile": [
            "http://hl7.eu/fhir/laboratory/StructureDefinition/Observation-resultslab-eu-lab"
          ]
        },
        "performer": [
          {
            "display": "The Central European Lab"
          }
        ],
        "category": [
          {
            "coding": [
              {
                "system": "http://terminology.hl7.org/CodeSystem/observation-category",
                "code": "laboratory"
              }
            ]
          }
        ],
        "code": {
          "coding": [
            {
              "code": "789-8",
              "system": "http://loinc.org",
              "display": "Erythrocytes [#/volume] in Blood by Automated count"
            }
          ],
          "text": "Erythrocytes [#/volume] in Blood by Automated count"
        },
        "valueQuantity": {
          "system": "http://unitsofmeasure.org",
          "value": 5.3,
          "unit": "10*6/uL",
          "code": "10*6/uL"
        },
        "referenceRange": [
          {
            "low": {
              "value": 4.7,
              "code": "10*6/uL",
              "system": "http://unitsofmeasure.org"
            }
          },
          {
            "high": {
              "value": 5.2,
              "code": "10*6/uL",
              "system": "http://unitsofmeasure.org"
            }
          }
        ],
        "interpretation": [
          {
            "coding": [
              {
                "code": "H",
                "system": "http://terminology.hl7.org/CodeSystem/v3-ObservationInterpretation",
                "display": "High"
              }
            ]
          }
        ],
        "text": {
          "status": "generated",
          "div": "<div xmlns=\"http://www.w3.org/1999/xhtml\"><table class=\"hl7__eu__lab__report\"><tr><th>Test</th><th>27-Nov-2024</th><th>Reference&#xA0;Range</th><th>Unit</th></tr><tr><td>Erythrocytes [#/volume] in Blood by Automated count</td><td>5.3</td><td>4.7 - 5.2</td><td>H</td><td>10*6/uL</td></tr></table></div>"
        },
        "status": "final",
        "subject": {
          "reference": "urn:uuid:f7d99c00-c9a9-4f68-9f0f-7bd1432668d6",
          "display": "Ludmila Vávrová"
        },
        "effectiveDateTime": "2024-11-27T03:51:38Z",
        "specimen": {
          "reference": "urn:uuid:b15567c3-109c-4881-89b1-e99805511f61"
        }
      }
    },
    {
      "fullUrl": "urn:uuid:14b8078f-c900-4a29-84d1-ad8656bd5335",
      "resource": {
        "resourceType": "Observation",
        "id": "14b8078f-c900-4a29-84d1-ad8656bd5335",
        "meta": {
          "profile": [
            "http://hl7.eu/fhir/laboratory/StructureDefinition/Observation-resultslab-eu-lab"
          ]
        },
        "performer": [
          {
            "display": "The Central European Lab"
          }
        ],
        "category": [
          {
            "coding": [
              {
                "system": "http://terminology.hl7.org/CodeSystem/observation-category",
                "code": "laboratory"
              }
            ]
          }
        ],
        "code": {
          "coding": [
            {
              "code": "718-7",
              "system": "http://loinc.org",
              "display": "Hemoglobin [Mass/volume] in Blood"
            }
          ],
          "text": "Hemoglobin [Mass/volume] in Blood"
        },
        "valueQuantity": {
          "system": "http://unitsofmeasure.org",
          "value": 12.6,
          "unit": "g/dL",
          "code": "g/dL"
        },
        "referenceRange": [
          {
            "low": {
              "value": 11.5,
              "code": "g/dL",
              "system": "http://unitsofmeasure.org"
            }
          },
          {
            "high": {
              "value": 16,
              "code": "g/dL",
              "system": "http://unitsofmeasure.org"
            }
          }
        ],
        "text": {
          "status": "generated",
          "div": "<div xmlns=\"http://www.w3.org/1999/xhtml\"><table class=\"hl7__eu__lab__report\"><tr><th>Test</th><th>27-Nov-2024</th><th>Reference&#xA0;Range</th><th>Unit</th></tr><tr><td>Hemoglobin [Mass/volume] in Blood</td><td>12.6</td><td>11.5 - 16</td><td></td><td>g/dL</td></tr></table></div>"
        },
        "status": "final",
        "subject": {
          "reference": "urn:uuid:f7d99c00-c9a9-4f68-9f0f-7bd1432668d6",
          "display": "Ludmila Vávrová"
        },
        "effectiveDateTime": "2024-11-27T03:51:38Z",
        "specimen": {
          "reference": "urn:uuid:b15567c3-109c-4881-89b1-e99805511f61"
        }
      }
    },
    {
      "fullUrl": "urn:uuid:40eb1dd0-85cb-4e61-93a9-4f90cf42300e",
      "resource": {
        "resourceType": "Observation",
        "id": "40eb1dd0-85cb-4e61-93a9-4f90cf42300e",
        "meta": {
          "profile": [
            "http://hl7.eu/fhir/laboratory/StructureDefinition/Observation-resultslab-eu-lab"
          ]
        },
        "performer": [
          {
            "display": "The Central European Lab"
          }
        ],
        "category": [
          {
            "coding": [
              {
                "system": "http://terminology.hl7.org/CodeSystem/observation-category",
                "code": "laboratory"
              }
            ]
          }
        ],
        "code": {
          "coding": [
            {
              "code": "4544-3",
              "system": "http://loinc.org",
              "display": "Hematocrit [Volume Fraction] of Blood by Automated count"
            }
          ],
          "text": "Hematocrit [Volume Fraction] of Blood by Automated count"
        },
        "valueQuantity": {
          "system": "http://unitsofmeasure.org",
          "value": 46.6,
          "unit": "%",
          "code": "%"
        },
        "referenceRange": [
          {
            "low": {
              "value": 38,
              "code": "%",
              "system": "http://unitsofmeasure.org"
            }
          },
          {
            "high": {
              "value": 56,
              "code": "%",
              "system": "http://unitsofmeasure.org"
            }
          }
        ],
        "text": {
          "status": "generated",
          "div": "<div xmlns=\"http://www.w3.org/1999/xhtml\"><table class=\"hl7__eu__lab__report\"><tr><th>Test</th><th>27-Nov-2024</th><th>Reference&#xA0;Range</th><th>Unit</th></tr><tr><td>Hematocrit [Volume Fraction] of Blood by Automated count</td><td>46.6</td><td>38 - 56</td><td></td><td>%</td></tr></table></div>"
        },
        "status": "final",
        "subject": {
          "reference": "urn:uuid:f7d99c00-c9a9-4f68-9f0f-7bd1432668d6",
          "display": "Ludmila Vávrová"
        },
        "effectiveDateTime": "2024-11-27T03:51:38Z",
        "specimen": {
          "reference": "urn:uuid:b15567c3-109c-4881-89b1-e99805511f61"
        }
      }
    },
    {
      "fullUrl": "urn:uuid:190abf15-4630-483e-9966-f2dd49f649ea",
      "resource": {
        "resourceType": "Observation",
        "id": "190abf15-4630-483e-9966-f2dd49f649ea",
        "meta": {
          "profile": [
            "http://hl7.eu/fhir/laboratory/StructureDefinition/Observation-resultslab-eu-lab"
          ]
        },
        "performer": [
          {
            "display": "The Central European Lab"
          }
        ],
        "category": [
          {
            "coding": [
              {
                "system": "http://terminology.hl7.org/CodeSystem/observation-category",
                "code": "laboratory"
              }
            ]
          }
        ],
        "code": {
          "coding": [
            {
              "code": "787-2",
              "system": "http://loinc.org",
              "display": "MCV [Entitic volume] by Automated count"
            }
          ],
          "text": "MCV [Entitic volume] by Automated count"
        },
        "valueQuantity": {
          "system": "http://unitsofmeasure.org",
          "value": 88.8,
          "unit": "fL",
          "code": "fL"
        },
        "referenceRange": [
          {
            "low": {
              "value": 78,
              "code": "fL",
              "system": "http://unitsofmeasure.org"
            }
          },
          {
            "high": {
              "value": 98,
              "code": "fL",
              "system": "http://unitsofmeasure.org"
            }
          }
        ],
        "text": {
          "status": "generated",
          "div": "<div xmlns=\"http://www.w3.org/1999/xhtml\"><table class=\"hl7__eu__lab__report\"><tr><th>Test</th><th>27-Nov-2024</th><th>Reference&#xA0;Range</th><th>Unit</th></tr><tr><td>MCV [Entitic volume] by Automated count</td><td>88.8</td><td>78 - 98</td><td></td><td>fL</td></tr></table></div>"
        },
        "status": "final",
        "subject": {
          "reference": "urn:uuid:f7d99c00-c9a9-4f68-9f0f-7bd1432668d6",
          "display": "Ludmila Vávrová"
        },
        "effectiveDateTime": "2024-11-27T03:51:38Z",
        "specimen": {
          "reference": "urn:uuid:b15567c3-109c-4881-89b1-e99805511f61"
        }
      }
    },
    {
      "fullUrl": "urn:uuid:0a1b59f1-68bb-4f99-83b5-aec774e7d92e",
      "resource": {
        "resourceType": "Observation",
        "id": "0a1b59f1-68bb-4f99-83b5-aec774e7d92e",
        "meta": {
          "profile": [
            "http://hl7.eu/fhir/laboratory/StructureDefinition/Observation-resultslab-eu-lab"
          ]
        },
        "performer": [
          {
            "display": "The Central European Lab"
          }
        ],
        "category": [
          {
            "coding": [
              {
                "system": "http://terminology.hl7.org/CodeSystem/observation-category",
                "code": "laboratory"
              }
            ]
          }
        ],
        "code": {
          "coding": [
            {
              "code": "785-6",
              "system": "http://loinc.org",
              "display": "MCH [Entitic mass] by Automated count"
            }
          ],
          "text": "MCH [Entitic mass] by Automated count"
        },
        "valueQuantity": {
          "system": "http://unitsofmeasure.org",
          "value": 32.6,
          "unit": "pg",
          "code": "pg"
        },
        "referenceRange": [
          {
            "low": {
              "value": 27,
              "code": "pg",
              "system": "http://unitsofmeasure.org"
            }
          },
          {
            "high": {
              "value": 34,
              "code": "pg",
              "system": "http://unitsofmeasure.org"
            }
          }
        ],
        "text": {
          "status": "generated",
          "div": "<div xmlns=\"http://www.w3.org/1999/xhtml\"><table class=\"hl7__eu__lab__report\"><tr><th>Test</th><th>27-Nov-2024</th><th>Reference&#xA0;Range</th><th>Unit</th></tr><tr><td>MCH [Entitic mass] by Automated count</td><td>32.6</td><td>27 - 34</td><td></td><td>pg</td></tr></table></div>"
        },
        "status": "final",
        "subject": {
          "reference": "urn:uuid:f7d99c00-c9a9-4f68-9f0f-7bd1432668d6",
          "display": "Ludmila Vávrová"
        },
        "effectiveDateTime": "2024-11-27T03:51:38Z",
        "specimen": {
          "reference": "urn:uuid:b15567c3-109c-4881-89b1-e99805511f61"
        }
      }
    },
    {
      "fullUrl": "urn:uuid:c2b0b024-9b60-4b15-9d1d-12458bf036fb",
      "resource": {
        "resourceType": "Observation",
        "id": "c2b0b024-9b60-4b15-9d1d-12458bf036fb",
        "meta": {
          "profile": [
            "http://hl7.eu/fhir/laboratory/StructureDefinition/Observation-resultslab-eu-lab"
          ]
        },
        "performer": [
          {
            "display": "The Central European Lab"
          }
        ],
        "category": [
          {
            "coding": [
              {
                "system": "http://terminology.hl7.org/CodeSystem/observation-category",
                "code": "laboratory"
              }
            ]
          }
        ],
        "code": {
          "coding": [
            {
              "code": "786-4",
              "system": "http://loinc.org",
              "display": "MCHC [Mass/volume] by Automated count"
            }
          ],
          "text": "MCHC [Mass/volume] by Automated count"
        },
        "valueQuantity": {
          "system": "http://unitsofmeasure.org",
          "value": 33.9,
          "unit": "g/dL",
          "code": "g/dL"
        },
        "referenceRange": [
          {
            "low": {
              "value": 31,
              "code": "g/dL",
              "system": "http://unitsofmeasure.org"
            }
          },
          {
            "high": {
              "value": 36,
              "code": "g/dL",
              "system": "http://unitsofmeasure.org"
            }
          }
        ],
        "text": {
          "status": "generated",
          "div": "<div xmlns=\"http://www.w3.org/1999/xhtml\"><table class=\"hl7__eu__lab__report\"><tr><th>Test</th><th>27-Nov-2024</th><th>Reference&#xA0;Range</th><th>Unit</th></tr><tr><td>MCHC [Mass/volume] by Automated count</td><td>33.9</td><td>31 - 36</td><td></td><td>g/dL</td></tr></table></div>"
        },
        "status": "final",
        "subject": {
          "reference": "urn:uuid:f7d99c00-c9a9-4f68-9f0f-7bd1432668d6",
          "display": "Ludmila Vávrová"
        },
        "effectiveDateTime": "2024-11-27T03:51:38Z",
        "specimen": {
          "reference": "urn:uuid:b15567c3-109c-4881-89b1-e99805511f61"
        }
      }
    },
    {
      "fullUrl": "urn:uuid:0216f31f-64fb-414f-af20-9b1b389cd1ae",
      "resource": {
        "resourceType": "Observation",
        "id": "0216f31f-64fb-414f-af20-9b1b389cd1ae",
        "meta": {
          "profile": [
            "http://hl7.eu/fhir/laboratory/StructureDefinition/Observation-resultslab-eu-lab"
          ]
        },
        "performer": [
          {
            "display": "The Central European Lab"
          }
        ],
        "category": [
          {
            "coding": [
              {
                "system": "http://terminology.hl7.org/CodeSystem/observation-category",
                "code": "laboratory"
              }
            ]
          }
        ],
        "code": {
          "coding": [
            {
              "code": "21000-5",
              "system": "http://loinc.org",
              "display": "Erythrocyte distribution width [Entitic volume] by Automated count"
            }
          ],
          "text": "Erythrocyte distribution width [Entitic volume] by Automated count"
        },
        "valueQuantity": {
          "system": "http://unitsofmeasure.org",
          "value": 42.1,
          "unit": "fL",
          "code": "fL"
        },
        "referenceRange": [
          {
            "low": {
              "value": 36,
              "code": "fL",
              "system": "http://unitsofmeasure.org"
            }
          },
          {
            "high": {
              "value": 55,
              "code": "fL",
              "system": "http://unitsofmeasure.org"
            }
          }
        ],
        "text": {
          "status": "generated",
          "div": "<div xmlns=\"http://www.w3.org/1999/xhtml\"><table class=\"hl7__eu__lab__report\"><tr><th>Test</th><th>27-Nov-2024</th><th>Reference&#xA0;Range</th><th>Unit</th></tr><tr><td>Erythrocyte distribution width [Entitic volume] by Automated count</td><td>42.1</td><td>36 - 55</td><td></td><td>fL</td></tr></table></div>"
        },
        "status": "final",
        "subject": {
          "reference": "urn:uuid:f7d99c00-c9a9-4f68-9f0f-7bd1432668d6",
          "display": "Ludmila Vávrová"
        },
        "effectiveDateTime": "2024-11-27T03:51:38Z",
        "specimen": {
          "reference": "urn:uuid:b15567c3-109c-4881-89b1-e99805511f61"
        }
      }
    },
    {
      "fullUrl": "urn:uuid:0ffb36f8-b749-4a1f-b7d2-26aafda197c3",
      "resource": {
        "resourceType": "Observation",
        "id": "0ffb36f8-b749-4a1f-b7d2-26aafda197c3",
        "meta": {
          "profile": [
            "http://hl7.eu/fhir/laboratory/StructureDefinition/Observation-resultslab-eu-lab"
          ]
        },
        "performer": [
          {
            "display": "The Central European Lab"
          }
        ],
        "category": [
          {
            "coding": [
              {
                "system": "http://terminology.hl7.org/CodeSystem/observation-category",
                "code": "laboratory"
              }
            ]
          }
        ],
        "code": {
          "coding": [
            {
              "code": "777-3",
              "system": "http://loinc.org",
              "display": "Platelets [#/volume] in Blood by Automated count"
            }
          ],
          "text": "Platelets [#/volume] in Blood by Automated count"
        },
        "valueQuantity": {
          "system": "http://unitsofmeasure.org",
          "value": 320.3,
          "unit": "10*3/uL",
          "code": "10*3/uL"
        },
        "referenceRange": [
          {
            "low": {
              "value": 150,
              "code": "10*3/uL",
              "system": "http://unitsofmeasure.org"
            }
          },
          {
            "high": {
              "value": 450,
              "code": "10*3/uL",
              "system": "http://unitsofmeasure.org"
            }
          }
        ],
        "text": {
          "status": "generated",
          "div": "<div xmlns=\"http://www.w3.org/1999/xhtml\"><table class=\"hl7__eu__lab__report\"><tr><th>Test</th><th>27-Nov-2024</th><th>Reference&#xA0;Range</th><th>Unit</th></tr><tr><td>Platelets [#/volume] in Blood by Automated count</td><td>320.3</td><td>150 - 450</td><td></td><td>10*3/uL</td></tr></table></div>"
        },
        "status": "final",
        "subject": {
          "reference": "urn:uuid:f7d99c00-c9a9-4f68-9f0f-7bd1432668d6",
          "display": "Ludmila Vávrová"
        },
        "effectiveDateTime": "2024-11-27T03:51:38Z",
        "specimen": {
          "reference": "urn:uuid:b15567c3-109c-4881-89b1-e99805511f61"
        }
      }
    },
    {
      "fullUrl": "urn:uuid:40f1989c-1a75-429f-8b17-547f723e64fa",
      "resource": {
        "resourceType": "Observation",
        "id": "40f1989c-1a75-429f-8b17-547f723e64fa",
        "meta": {
          "profile": [
            "http://hl7.eu/fhir/laboratory/StructureDefinition/Observation-resultslab-eu-lab"
          ]
        },
        "performer": [
          {
            "display": "The Central European Lab"
          }
        ],
        "category": [
          {
            "coding": [
              {
                "system": "http://terminology.hl7.org/CodeSystem/observation-category",
                "code": "laboratory"
              }
            ]
          }
        ],
        "code": {
          "coding": [
            {
              "code": "32207-3",
              "system": "http://loinc.org",
              "display": "Platelet distribution width [Entitic volume] in Blood by Automated count"
            }
          ],
          "text": "Platelet distribution width [Entitic volume] in Blood by Automated count"
        },
        "valueQuantity": {
          "system": "http://unitsofmeasure.org",
          "value": 284.8,
          "unit": "fL",
          "code": "fL"
        },
        "referenceRange": [
          {
            "low": {
              "value": 11.6,
              "code": "fL",
              "system": "http://unitsofmeasure.org"
            }
          },
          {
            "high": {
              "value": 17.4,
              "code": "fL",
              "system": "http://unitsofmeasure.org"
            }
          }
        ],
        "interpretation": [
          {
            "coding": [
              {
                "code": "H",
                "system": "http://terminology.hl7.org/CodeSystem/v3-ObservationInterpretation",
                "display": "High"
              }
            ]
          }
        ],
        "text": {
          "status": "generated",
          "div": "<div xmlns=\"http://www.w3.org/1999/xhtml\"><table class=\"hl7__eu__lab__report\"><tr><th>Test</th><th>27-Nov-2024</th><th>Reference&#xA0;Range</th><th>Unit</th></tr><tr><td>Platelet distribution width [Entitic volume] in Blood by Automated count</td><td>284.8</td><td>11.6 - 17.4</td><td>H</td><td>fL</td></tr></table></div>"
        },
        "status": "final",
        "subject": {
          "reference": "urn:uuid:f7d99c00-c9a9-4f68-9f0f-7bd1432668d6",
          "display": "Ludmila Vávrová"
        },
        "effectiveDateTime": "2024-11-27T03:51:38Z",
        "specimen": {
          "reference": "urn:uuid:b15567c3-109c-4881-89b1-e99805511f61"
        }
      }
    },
    {
      "fullUrl": "urn:uuid:24abf65d-b674-4ae5-8093-4d403ab358f7",
      "resource": {
        "resourceType": "Observation",
        "id": "24abf65d-b674-4ae5-8093-4d403ab358f7",
        "meta": {
          "profile": [
            "http://hl7.eu/fhir/laboratory/StructureDefinition/Observation-resultslab-eu-lab"
          ]
        },
        "performer": [
          {
            "display": "The Central European Lab"
          }
        ],
        "category": [
          {
            "coding": [
              {
                "system": "http://terminology.hl7.org/CodeSystem/observation-category",
                "code": "laboratory"
              }
            ]
          }
        ],
        "code": {
          "coding": [
            {
              "code": "32623-1",
              "system": "http://loinc.org",
              "display": "Platelet mean volume [Entitic volume] in Blood by Automated count"
            }
          ],
          "text": "Platelet mean volume [Entitic volume] in Blood by Automated count"
        },
        "valueQuantity": {
          "system": "http://unitsofmeasure.org",
          "value": 11.9,
          "unit": "fL",
          "code": "fL"
        },
        "referenceRange": [
          {
            "low": {
              "value": 7.2,
              "code": "fL",
              "system": "http://unitsofmeasure.org"
            }
          },
          {
            "high": {
              "value": 13.5,
              "code": "fL",
              "system": "http://unitsofmeasure.org"
            }
          }
        ],
        "text": {
          "status": "generated",
          "div": "<div xmlns=\"http://www.w3.org/1999/xhtml\"><table class=\"hl7__eu__lab__report\"><tr><th>Test</th><th>27-Nov-2024</th><th>Reference&#xA0;Range</th><th>Unit</th></tr><tr><td>Platelet mean volume [Entitic volume] in Blood by Automated count</td><td>11.9</td><td>7.2 - 13.5</td><td></td><td>fL</td></tr></table></div>"
        },
        "status": "final",
        "subject": {
          "reference": "urn:uuid:f7d99c00-c9a9-4f68-9f0f-7bd1432668d6",
          "display": "Ludmila Vávrová"
        },
        "effectiveDateTime": "2024-11-27T03:51:38Z",
        "specimen": {
          "reference": "urn:uuid:b15567c3-109c-4881-89b1-e99805511f61"
        }
      }
    },
    {
      "fullUrl": "urn:uuid:aa4b57f7-ef5a-4305-b855-aea3dfe447bf",
      "resource": {
        "resourceType": "Device",
        "id": "aa4b57f7-ef5a-4305-b855-aea3dfe447bf",
        "deviceName": [
          {
            "name": "SYNDERAI Synthetic Generator",
            "type": "manufacturer-name"
          }
        ],
        "version": [
          {
            "value": "5.0"
          }
        ],
        "text": {
          "status": "generated",
          "div": "<div xmlns=\"http://www.w3.org/1999/xhtml\">SYNDERAI Synthetic Generator v5.0</div>"
        },
        "status": "active\"",
        "distinctIdentifier": "synderai-generator-50",
        "manufacturer": "SYNDERAI Project"
      }
    },
    {
      "fullUrl": "urn:uuid:250ddce4-5859-4a47-8751-ccfe6580ca60",
      "resource": {
        "resourceType": "Provenance",
        "id": "250ddce4-5859-4a47-8751-ccfe6580ca60",
        "target": [
          {
            "reference": "Patient/f7d99c00-c9a9-4f68-9f0f-7bd1432668d6"
          },
          {
            "reference": "Bundle/ae05e8c7-119c-4b4a-ad6e-b7d2ee6ad9be"
          },
          {
            "reference": "Composition/1008c93e-ee37-41e2-8bc4-f864a2fe7682"
          },
          {
            "reference": "PractitionerRole/32876f73-6907-49e9-be17-677865bcdf85"
          },
          {
            "reference": "Practitioner/6fc9b1be-a49d-4faa-9423-05ce079af943"
          },
          {
            "reference": "PractitionerRole/d13a3eee-553f-4127-9605-b5eeaeca4e0b"
          },
          {
            "reference": "Organization/86f6f515-cec2-4226-80fe-fec40d7e5ca6"
          }
        ],
        "activity": {
          "text": "Synthetic Example Data Generation"
        },
        "policy": [
          "https://synderai.net/synderai-synthetic-data-policy"
        ],
        "agent": [
          {
            "type": {
              "text": "author"
            },
            "who": {
              "reference": "Device/aa4b57f7-ef5a-4305-b855-aea3dfe447bf"
            }
          }
        ],
        "reason": [
          {
            "text": "Interoperability Testing and Training (non-clinical use)"
          }
        ],
        "text": {
          "status": "generated",
          "div": "<div xmlns=\"http://www.w3.org/1999/xhtml\">Provenance for SYNDERAI Synthetic Example Data Resource</div>"
        },
        "recorded": "2024-11-27T04:51:38Z"
      }
    },
    {
      "fullUrl": "urn:uuid:32876f73-6907-49e9-be17-677865bcdf85",
      "resource": {
        "resourceType": "PractitionerRole",
        "id": "32876f73-6907-49e9-be17-677865bcdf85",
        "meta": {
          "profile": [
            "http://hl7.eu/fhir/base/StructureDefinition/practitionerRole-eu"
          ]
        },
        "text": {
          "status": "generated",
          "div": "<div xmlns=\"http://www.w3.org/1999/xhtml\">Laboratory Role Id: 32876f73-6907-49e9-be17-677865bcdf85</div>"
        },
        "practitioner": {
          "reference": "urn:uuid:6fc9b1be-a49d-4faa-9423-05ce079af943"
        }
      }
    },
    {
      "fullUrl": "urn:uuid:6fc9b1be-a49d-4faa-9423-05ce079af943",
      "resource": {
        "resourceType": "Practitioner",
        "id": "6fc9b1be-a49d-4faa-9423-05ce079af943",
        "meta": {
          "profile": [
            "http://hl7.eu/fhir/base/StructureDefinition/practitioner-eu"
          ]
        },
        "identifier": [
          {
            "assigner": {
              "display": "HL7 Europe"
            },
            "system": "urn:oid:2.16.840.1.113883.2.51.999",
            "value": "55d537cb-7830-4854-8e4d-d52498e7d65c"
          }
        ],
        "name": [
          {
            "prefix": [
              "dr"
            ],
            "given": [
              "Ex"
            ],
            "family": "Ample"
          }
        ],
        "address": [
          {
            "line": [
              "Laboratoire Central Européenne",
              "Boulevard du Jardin Botanique 32"
            ],
            "postalCode": "1000",
            "city": "Brussels",
            "country": "Belgium"
          }
        ],
        "text": {
          "status": "generated",
          "div": "<div xmlns=\"http://www.w3.org/1999/xhtml\">Laboratory: Laboratoire Central Européenne, 1000 Brussels, Belgium</div>"
        }
      }
    }
  ],
  "type": "document",
  "timestamp": "2024-11-27T04:51:38Z"
}
