{
  "resourceType": "Bundle",
  "id": "0e77153a-6af3-4261-bbd0-d99dbf30c663",
  "meta": {
    "profile": [
      "http://hl7.eu/fhir/laboratory/StructureDefinition/Bundle-eu-lab"
    ]
  },
  "identifier": {
    "assigner": {
      "display": "HL7 Europe"
    },
    "system": "urn:oid:2.16.840.1.113883.2.51.999",
    "value": "acf719d0-0fec-4af8-b029-dd013d065ef2"
  },
  "entry": [
    {
      "fullUrl": "urn:uuid:919479a3-3300-4fe7-ae0d-1e70d2c920f2",
      "resource": {
        "resourceType": "Composition",
        "id": "919479a3-3300-4fe7-ae0d-1e70d2c920f2",
        "meta": {
          "profile": [
            "http://hl7.eu/fhir/laboratory/StructureDefinition/Composition-eu-lab"
          ]
        },
        "identifier": {
          "assigner": {
            "display": "HL7 Europe"
          },
          "system": "urn:oid:2.16.840.1.113883.2.51.999",
          "value": "65e04123-7ca3-41ad-943e-f02d0b95f28f"
        },
        "author": [
          {
            "reference": "urn:uuid:016e1513-453b-4502-a9cb-4f79b741b395"
          }
        ],
        "category": [
          {
            "coding": [
              {
                "code": "26436-6",
                "system": "http://loinc.org",
                "display": "Laboratory studies (set)"
              }
            ]
          }
        ],
        "type": {
          "coding": [
            {
              "code": "11502-2",
              "system": "http://loinc.org",
              "display": "Laboratory report"
            }
          ],
          "text": "Laboratory Report"
        },
        "section": [
          {
            "code": {
              "coding": [
                {
                  "code": "26436-6",
                  "system": "http://loinc.org",
                  "display": "Laboratory studies (set)"
                }
              ],
              "text": "Laboratory studies"
            },
            "section": [
              {
                "code": {
                  "coding": [
                    {
                      "code": "$18723-7",
                      "system": "http://loinc.org",
                      "display": "Hematology studies (set)"
                    }
                  ],
                  "text": "Hematology"
                },
                "entry": [
                  {
                    "reference": "urn:uuid:49361c1c-b515-49f7-892b-8c044b480406"
                  },
                  {
                    "reference": "urn:uuid:8c76c48e-c3a9-4fa0-b5bf-be7560d03e2a"
                  },
                  {
                    "reference": "urn:uuid:2bcb9448-b090-4683-ab27-a11686ccd110"
                  },
                  {
                    "reference": "urn:uuid:d831d05a-f19e-4f1a-bd64-350c3d0f252b"
                  },
                  {
                    "reference": "urn:uuid:422e311c-ea2c-4b01-950c-e0a5a164cdaa"
                  },
                  {
                    "reference": "urn:uuid:832c8d9f-ca4e-4614-b129-9affeb274d04"
                  },
                  {
                    "reference": "urn:uuid:eca0f0f8-098d-4780-bc4f-009590c46d66"
                  },
                  {
                    "reference": "urn:uuid:6a626807-94a7-48a5-8e30-029e1b4bf4e8"
                  },
                  {
                    "reference": "urn:uuid:03cdbf65-b922-4fcc-a400-cd53c1a681f6"
                  },
                  {
                    "reference": "urn:uuid:1586e7af-4902-47a1-94c1-e9ec11165a93"
                  },
                  {
                    "reference": "urn:uuid:32acd363-0006-46a2-917e-791e6296403a"
                  }
                ],
                "text": {
                  "status": "generated",
                  "div": "<div xmlns=\"http://www.w3.org/1999/xhtml\"><h3>Hematology</h3><table class=\"hl7__eu__lab__report\"><thead><tr><th>Test</th><th>12-DEC-2023</th><th>Reference&#xA0;Range</th><th>Unit</th></tr></thead><tbody><tr><td>Hemoglobin [Mass/volume] in Blood</td><td><strong>9.8 L</strong></td><td>12.1 - 15.5</td><td>g/dL</td></tr><tr><td>Hematocrit [Volume Fraction] of Blood</td><td><strong>32.2 L</strong></td><td>36 - 42</td><td>%</td></tr><tr><td>Leukocytes [#/volume] in Blood by Automated count</td><td>5.2</td><td>3.5 - 10.5</td><td>10*3/uL</td></tr><tr><td>Erythrocytes [#/volume] in Blood by Automated count</td><td><strong>3.9 L</strong></td><td>4 - 5</td><td>10*6/uL</td></tr><tr><td>MCV [Entitic volume] by Automated count</td><td><strong>81.8 L</strong></td><td>82 - 98</td><td>fL</td></tr><tr><td>MCH [Entitic mass] by Automated count</td><td>31.0</td><td>27 - 33</td><td>pg</td></tr><tr><td>MCHC [Mass/volume] by Automated count</td><td>34.3</td><td>32 - 37</td><td>g/dL</td></tr><tr><td>Erythrocyte distribution width [Entitic volume] by Automated count</td><td>42.3</td><td>36 - 55</td><td>fL</td></tr><tr><td>Platelets [#/volume] in Blood by Automated count</td><td>229.4</td><td>150 - 400</td><td>10*3/uL</td></tr><tr><td>Platelet distribution width [Entitic volume] in Blood by Automated count</td><td><strong>479.3 H</strong></td><td>11.6 - 17.4</td><td>fL</td></tr><tr><td>Platelet mean volume [Entitic volume] in Blood by Automated count</td><td>9.7</td><td>7.2 - 13.5</td><td>fL</td></tr></tbody></table></div>"
                },
                "title": "Hematology"
              }
            ],
            "title": "Laboratory Report"
          },
          {
            "text": {
              "status": "generated",
              "div": "<div xmlns=\"http://www.w3.org/1999/xhtml\"><h3>Annotation</h3><table class=\"hl7__eu__lab__report\"><tr><th>Conclusion and Recommendations based on this report and previous findings known to us</th></tr><tr><td>The results show mild normocytic, normochromic anemia (low hemoglobin, hematocrit, erythrocytes, and borderline low MCV) with normal leukocyte and platelet counts. The elevated platelet distribution width may indicate increased platelet size variability, possibly reflecting reactive changes. Further evaluation for anemia etiology (iron status, bleeding, chronic disease) is recommended.</td></tr></table></div>"
            },
            "code": {
              "coding": [
                {
                  "system": "http://loinc.org",
                  "code": "48767-8",
                  "display": "Annotation comment"
                }
              ]
            },
            "title": "Annotation comment"
          }
        ],
        "status": "final",
        "subject": {
          "reference": "urn:uuid:e887a43f-0948-43d2-8e25-0e886ce2179f",
          "display": "Marina Norbiato"
        },
        "date": "2023-12-12T06:31:43Z",
        "title": "Laboratory Report",
        "confidentiality": "N"
      }
    },
    {
      "fullUrl": "urn:uuid:6325dd64-cf6d-44b9-b680-661d3fbdda71",
      "resource": {
        "resourceType": "DiagnosticReport",
        "id": "6325dd64-cf6d-44b9-b680-661d3fbdda71",
        "meta": {
          "profile": [
            "http://hl7.eu/fhir/laboratory/StructureDefinition/DiagnosticReport-eu-lab"
          ]
        },
        "identifier": [
          {
            "assigner": {
              "display": "HL7 Europe"
            },
            "system": "urn:oid:2.16.840.1.113883.2.51.999",
            "value": "7b81f2aa-b9fc-4468-abd5-cd1589190ed7"
          }
        ],
        "extension": [
          {
            "url": "http://hl7.org/fhir/5.0/StructureDefinition/extension-DiagnosticReport.composition",
            "valueReference": {
              "reference": "urn:uuid:65e04123-7ca3-41ad-943e-f02d0b95f28f"
            }
          }
        ],
        "category": [
          {
            "coding": [
              {
                "code": "26436-6",
                "system": "http://loinc.org",
                "display": "Laboratory studies (set)"
              }
            ]
          }
        ],
        "specimen": [
          {
            "reference": "urn:uuid:9e303041-a00f-4c5d-93b5-498ffd95afd3"
          },
          {
            "reference": "urn:uuid:9e303041-a00f-4c5d-93b5-498ffd95afd3"
          }
        ],
        "result": [
          {
            "reference": "urn:uuid:49361c1c-b515-49f7-892b-8c044b480406"
          },
          {
            "reference": "urn:uuid:8c76c48e-c3a9-4fa0-b5bf-be7560d03e2a"
          },
          {
            "reference": "urn:uuid:2bcb9448-b090-4683-ab27-a11686ccd110"
          },
          {
            "reference": "urn:uuid:d831d05a-f19e-4f1a-bd64-350c3d0f252b"
          },
          {
            "reference": "urn:uuid:422e311c-ea2c-4b01-950c-e0a5a164cdaa"
          },
          {
            "reference": "urn:uuid:832c8d9f-ca4e-4614-b129-9affeb274d04"
          },
          {
            "reference": "urn:uuid:eca0f0f8-098d-4780-bc4f-009590c46d66"
          },
          {
            "reference": "urn:uuid:6a626807-94a7-48a5-8e30-029e1b4bf4e8"
          },
          {
            "reference": "urn:uuid:03cdbf65-b922-4fcc-a400-cd53c1a681f6"
          },
          {
            "reference": "urn:uuid:1586e7af-4902-47a1-94c1-e9ec11165a93"
          },
          {
            "reference": "urn:uuid:32acd363-0006-46a2-917e-791e6296403a"
          }
        ],
        "status": "registered",
        "code": {
          "coding": [
            {
              "code": "11502-2",
              "system": "http://loinc.org",
              "display": "Laboratory report"
            }
          ]
        },
        "subject": {
          "reference": "urn:uuid:e887a43f-0948-43d2-8e25-0e886ce2179f",
          "display": "Marina Norbiato"
        }
      }
    },
    {
      "fullUrl": "urn:uuid:e887a43f-0948-43d2-8e25-0e886ce2179f",
      "resource": {
        "resourceType": "Patient",
        "id": "e887a43f-0948-43d2-8e25-0e886ce2179f",
        "meta": {
          "security": [
            {
              "system": "http://terminology.hl7.org/CodeSystem/v3-ActReason",
              "code": "HTEST"
            },
            {
              "system": "http://terminology.hl7.org/CodeSystem/v3-ActReason",
              "code": "TRAIN"
            }
          ],
          "tag": [
            {
              "system": "https://synderai.net/fhir/CodeSystem/tags",
              "code": "synthetic",
              "display": "SYNDERAI Synthetic data"
            }
          ],
          "profile": [
            "http://hl7.eu/fhir/base/StructureDefinition/patient-eu-core"
          ]
        },
        "identifier": [
          {
            "type": {
              "coding": [
                {
                  "code": "PT",
                  "system": "http://terminology.hl7.org/CodeSystem/v2-0203"
                }
              ]
            },
            "system": "http://ec.europa.eu/identifier/eci",
            "value": "5004-598122-7"
          },
          {
            "type": {
              "coding": [
                {
                  "code": "MR",
                  "system": "http://terminology.hl7.org/CodeSystem/v2-0203"
                }
              ]
            },
            "system": "http://local.setting.eu/identifier",
            "value": "35cd3e66-58a0-050b-9928-8805facaac98"
          }
        ],
        "name": [
          {
            "family": "Norbiato"
          },
          {
            "given": [
              "Marina"
            ]
          },
          {
            "text": "Marina Norbiato"
          }
        ],
        "address": [
          {
            "line": [
              "Via Squarcione, 2 Piano 6"
            ],
            "use": "home",
            "type": "physical",
            "postalCode": "25080",
            "city": "Remedello Di Sotto",
            "country": "Italy"
          }
        ],
        "telecom": [
          {
            "system": "phone",
            "value": "016359725"
          }
        ],
        "extension": [
          {
            "url": "http://hl7.org/fhir/StructureDefinition/patient-nationality",
            "valueCodeableConcept": {
              "coding": [
                {
                  "code": "IT",
                  "system": "http://hl7.org/fhir/ValueSet/country"
                }
              ]
            }
          }
        ],
        "text": {
          "status": "generated",
          "div": "<div xmlns=\"http://www.w3.org/1999/xhtml\"><table class=\"hl7__ips\"><tr><td>Marina Norbiato</td><td>female</td><td>30-Aug-1999</td></tr></table></div>"
        },
        "gender": "female",
        "birthDate": "1999-08-30"
      }
    },
    {
      "fullUrl": "urn:uuid:e7117e58-f94b-40cf-ba2c-7f83bdec6ce2",
      "resource": {
        "resourceType": "ServiceRequest",
        "id": "e7117e58-f94b-40cf-ba2c-7f83bdec6ce2",
        "meta": {
          "profile": [
            "http://hl7.eu/fhir/laboratory/StructureDefinition/ServiceRequest-eu-lab"
          ]
        },
        "identifier": [
          {
            "system": "http://example.org",
            "value": "2dce0622-c3de-420b-88b1-636322992d24"
          }
        ],
        "specimen": [
          {
            "reference": "urn:uuid:9e303041-a00f-4c5d-93b5-498ffd95afd3"
          }
        ],
        "reasonCode": [
          {
            "coding": [
              {
                "code": "15777000",
                "system": "http://snomed.info/sct",
                "display": "Prediabetes"
              }
            ]
          }
        ],
        "status": "active",
        "intent": "order",
        "code": {
          "coding": [
            {
              "code": "108252007",
              "system": "http://snomed.info/sct",
              "display": "Laboratory procedure"
            }
          ]
        },
        "subject": {
          "reference": "urn:uuid:e887a43f-0948-43d2-8e25-0e886ce2179f",
          "display": "Marina Norbiato"
        },
        "requester": {
          "reference": "urn:uuid:834a76b0-c95b-4e5d-b408-549d0aa824af"
        }
      }
    },
    {
      "fullUrl": "urn:uuid:834a76b0-c95b-4e5d-b408-549d0aa824af",
      "resource": {
        "resourceType": "PractitionerRole",
        "id": "834a76b0-c95b-4e5d-b408-549d0aa824af",
        "meta": {
          "profile": [
            "http://hl7.eu/fhir/base/StructureDefinition/practitionerRole-eu"
          ]
        },
        "text": {
          "status": "generated",
          "div": "<div xmlns=\"http://www.w3.org/1999/xhtml\">Provider Role Id: 834a76b0-c95b-4e5d-b408-549d0aa824af</div>"
        },
        "organization": {
          "reference": "urn:uuid:c66cf2c8-f3ad-480c-a754-b452b8082fbb"
        }
      }
    },
    {
      "fullUrl": "urn:uuid:c66cf2c8-f3ad-480c-a754-b452b8082fbb",
      "resource": {
        "resourceType": "Organization",
        "id": "c66cf2c8-f3ad-480c-a754-b452b8082fbb",
        "meta": {
          "profile": [
            "http://hl7.eu/fhir/base/StructureDefinition/organization-eu"
          ]
        },
        "identifier": [
          {
            "assigner": {
              "display": "HL7 Europe"
            },
            "system": "urn:oid:2.16.840.1.113883.2.51.999",
            "value": "282b2838-619c-4258-9b58-682f34a1ab9e"
          }
        ],
        "address": [
          {
            "line": [
              "Piazzetta Donatori di sangue 1"
            ],
            "city": "Leno",
            "postalCode": "25024",
            "country": "Italy"
          }
        ],
        "text": {
          "status": "generated",
          "div": "<div xmlns=\"http://www.w3.org/1999/xhtml\">Provider Organization: Ospedale di Leno</div>"
        },
        "name": "Ospedale di Leno"
      }
    },
    {
      "fullUrl": "urn:uuid:9e303041-a00f-4c5d-93b5-498ffd95afd3",
      "resource": {
        "resourceType": "Specimen",
        "id": "9e303041-a00f-4c5d-93b5-498ffd95afd3",
        "meta": {
          "profile": [
            "http://hl7.eu/fhir/laboratory/StructureDefinition/Specimen-eu-lab"
          ]
        },
        "collection": {
          "collectedDateTime": "2023-12-12"
        },
        "text": {
          "status": "generated",
          "div": "<div xmlns=\"http://www.w3.org/1999/xhtml\"><table class=\"hl7__eu__lab__report\"><tr><th>Specimen</th><th>Collection Date</th></tr><tr><td>Whole blood specimen (specimen)</td><td><span class=\"nb\">12-Dec-2023</span></td></tr></table></div>"
        },
        "type": {
          "coding": [
            {
              "code": "258580003",
              "system": "http://snomed.info/sct",
              "display": "Whole blood specimen (specimen)"
            }
          ]
        }
      }
    },
    {
      "fullUrl": "urn:uuid:9e303041-a00f-4c5d-93b5-498ffd95afd3",
      "resource": {
        "resourceType": "Specimen",
        "id": "9e303041-a00f-4c5d-93b5-498ffd95afd3",
        "meta": {
          "profile": [
            "http://hl7.eu/fhir/laboratory/StructureDefinition/Specimen-eu-lab"
          ]
        },
        "collection": {
          "collectedDateTime": "2023-12-12"
        },
        "text": {
          "status": "generated",
          "div": "<div xmlns=\"http://www.w3.org/1999/xhtml\"><table class=\"hl7__eu__lab__report\"><tr><th>Specimen</th><th>Collection Date</th></tr><tr><td>Whole blood specimen (specimen)</td><td><span class=\"nb\">12-Dec-2023</span></td></tr></table></div>"
        },
        "type": {
          "coding": [
            {
              "code": "258580003",
              "system": "http://snomed.info/sct",
              "display": "Whole blood specimen (specimen)"
            }
          ]
        }
      }
    },
    {
      "fullUrl": "urn:uuid:49361c1c-b515-49f7-892b-8c044b480406",
      "resource": {
        "resourceType": "Observation",
        "id": "49361c1c-b515-49f7-892b-8c044b480406",
        "meta": {
          "profile": [
            "http://hl7.eu/fhir/laboratory/StructureDefinition/Observation-resultslab-eu-lab"
          ]
        },
        "performer": [
          {
            "display": "The Central European Lab"
          }
        ],
        "category": [
          {
            "coding": [
              {
                "system": "http://terminology.hl7.org/CodeSystem/observation-category",
                "code": "laboratory"
              }
            ]
          }
        ],
        "code": {
          "coding": [
            {
              "code": "718-7",
              "system": "http://loinc.org",
              "display": "Hemoglobin [Mass/volume] in Blood"
            }
          ],
          "text": "Hemoglobin [Mass/volume] in Blood"
        },
        "valueQuantity": {
          "system": "http://unitsofmeasure.org",
          "value": 9.8,
          "unit": "g/dL",
          "code": "g/dL"
        },
        "referenceRange": [
          {
            "low": {
              "value": 12.1,
              "code": "g/dL",
              "system": "http://unitsofmeasure.org"
            }
          },
          {
            "high": {
              "value": 15.5,
              "code": "g/dL",
              "system": "http://unitsofmeasure.org"
            }
          }
        ],
        "interpretation": [
          {
            "coding": [
              {
                "code": "L",
                "system": "http://terminology.hl7.org/CodeSystem/v3-ObservationInterpretation",
                "display": "Low"
              }
            ]
          }
        ],
        "text": {
          "status": "generated",
          "div": "<div xmlns=\"http://www.w3.org/1999/xhtml\"><table class=\"hl7__eu__lab__report\"><tr><th>Test</th><th>12-Dec-2023</th><th>Reference&#xA0;Range</th><th>Unit</th></tr><tr><td>Hemoglobin [Mass/volume] in Blood</td><td>9.8</td><td>12.1 - 15.5</td><td>L</td><td>g/dL</td></tr></table></div>"
        },
        "status": "final",
        "subject": {
          "reference": "urn:uuid:e887a43f-0948-43d2-8e25-0e886ce2179f",
          "display": "Marina Norbiato"
        },
        "effectiveDateTime": "2023-12-12T05:31:43Z",
        "specimen": {
          "reference": "urn:uuid:9e303041-a00f-4c5d-93b5-498ffd95afd3"
        }
      }
    },
    {
      "fullUrl": "urn:uuid:8c76c48e-c3a9-4fa0-b5bf-be7560d03e2a",
      "resource": {
        "resourceType": "Observation",
        "id": "8c76c48e-c3a9-4fa0-b5bf-be7560d03e2a",
        "meta": {
          "profile": [
            "http://hl7.eu/fhir/laboratory/StructureDefinition/Observation-resultslab-eu-lab"
          ]
        },
        "performer": [
          {
            "display": "The Central European Lab"
          }
        ],
        "category": [
          {
            "coding": [
              {
                "system": "http://terminology.hl7.org/CodeSystem/observation-category",
                "code": "laboratory"
              }
            ]
          }
        ],
        "code": {
          "coding": [
            {
              "code": "20570-8",
              "system": "http://loinc.org",
              "display": "Hematocrit [Volume Fraction] of Blood"
            }
          ],
          "text": "Hematocrit [Volume Fraction] of Blood"
        },
        "valueQuantity": {
          "system": "http://unitsofmeasure.org",
          "value": 32.2,
          "unit": "%",
          "code": "%"
        },
        "referenceRange": [
          {
            "low": {
              "value": 36,
              "code": "%",
              "system": "http://unitsofmeasure.org"
            }
          },
          {
            "high": {
              "value": 42,
              "code": "%",
              "system": "http://unitsofmeasure.org"
            }
          }
        ],
        "interpretation": [
          {
            "coding": [
              {
                "code": "L",
                "system": "http://terminology.hl7.org/CodeSystem/v3-ObservationInterpretation",
                "display": "Low"
              }
            ]
          }
        ],
        "text": {
          "status": "generated",
          "div": "<div xmlns=\"http://www.w3.org/1999/xhtml\"><table class=\"hl7__eu__lab__report\"><tr><th>Test</th><th>12-Dec-2023</th><th>Reference&#xA0;Range</th><th>Unit</th></tr><tr><td>Hematocrit [Volume Fraction] of Blood</td><td>32.2</td><td>36 - 42</td><td>L</td><td>%</td></tr></table></div>"
        },
        "status": "final",
        "subject": {
          "reference": "urn:uuid:e887a43f-0948-43d2-8e25-0e886ce2179f",
          "display": "Marina Norbiato"
        },
        "effectiveDateTime": "2023-12-12T05:31:43Z",
        "specimen": {
          "reference": "urn:uuid:9e303041-a00f-4c5d-93b5-498ffd95afd3"
        }
      }
    },
    {
      "fullUrl": "urn:uuid:2bcb9448-b090-4683-ab27-a11686ccd110",
      "resource": {
        "resourceType": "Observation",
        "id": "2bcb9448-b090-4683-ab27-a11686ccd110",
        "meta": {
          "profile": [
            "http://hl7.eu/fhir/laboratory/StructureDefinition/Observation-resultslab-eu-lab"
          ]
        },
        "performer": [
          {
            "display": "The Central European Lab"
          }
        ],
        "category": [
          {
            "coding": [
              {
                "system": "http://terminology.hl7.org/CodeSystem/observation-category",
                "code": "laboratory"
              }
            ]
          }
        ],
        "code": {
          "coding": [
            {
              "code": "6690-2",
              "system": "http://loinc.org",
              "display": "Leukocytes [#/volume] in Blood by Automated count"
            }
          ],
          "text": "Leukocytes [#/volume] in Blood by Automated count"
        },
        "valueQuantity": {
          "system": "http://unitsofmeasure.org",
          "value": 5.2,
          "unit": "10*3/uL",
          "code": "10*3/uL"
        },
        "referenceRange": [
          {
            "low": {
              "value": 3.5,
              "code": "10*3/uL",
              "system": "http://unitsofmeasure.org"
            }
          },
          {
            "high": {
              "value": 10.5,
              "code": "10*3/uL",
              "system": "http://unitsofmeasure.org"
            }
          }
        ],
        "text": {
          "status": "generated",
          "div": "<div xmlns=\"http://www.w3.org/1999/xhtml\"><table class=\"hl7__eu__lab__report\"><tr><th>Test</th><th>12-Dec-2023</th><th>Reference&#xA0;Range</th><th>Unit</th></tr><tr><td>Leukocytes [#/volume] in Blood by Automated count</td><td>5.2</td><td>3.5 - 10.5</td><td></td><td>10*3/uL</td></tr></table></div>"
        },
        "status": "final",
        "subject": {
          "reference": "urn:uuid:e887a43f-0948-43d2-8e25-0e886ce2179f",
          "display": "Marina Norbiato"
        },
        "effectiveDateTime": "2023-12-12T05:31:43Z",
        "specimen": {
          "reference": "urn:uuid:9e303041-a00f-4c5d-93b5-498ffd95afd3"
        }
      }
    },
    {
      "fullUrl": "urn:uuid:d831d05a-f19e-4f1a-bd64-350c3d0f252b",
      "resource": {
        "resourceType": "Observation",
        "id": "d831d05a-f19e-4f1a-bd64-350c3d0f252b",
        "meta": {
          "profile": [
            "http://hl7.eu/fhir/laboratory/StructureDefinition/Observation-resultslab-eu-lab"
          ]
        },
        "performer": [
          {
            "display": "The Central European Lab"
          }
        ],
        "category": [
          {
            "coding": [
              {
                "system": "http://terminology.hl7.org/CodeSystem/observation-category",
                "code": "laboratory"
              }
            ]
          }
        ],
        "code": {
          "coding": [
            {
              "code": "789-8",
              "system": "http://loinc.org",
              "display": "Erythrocytes [#/volume] in Blood by Automated count"
            }
          ],
          "text": "Erythrocytes [#/volume] in Blood by Automated count"
        },
        "valueQuantity": {
          "system": "http://unitsofmeasure.org",
          "value": 3.9,
          "unit": "10*6/uL",
          "code": "10*6/uL"
        },
        "referenceRange": [
          {
            "low": {
              "value": 4,
              "code": "10*6/uL",
              "system": "http://unitsofmeasure.org"
            }
          },
          {
            "high": {
              "value": 5,
              "code": "10*6/uL",
              "system": "http://unitsofmeasure.org"
            }
          }
        ],
        "interpretation": [
          {
            "coding": [
              {
                "code": "L",
                "system": "http://terminology.hl7.org/CodeSystem/v3-ObservationInterpretation",
                "display": "Low"
              }
            ]
          }
        ],
        "text": {
          "status": "generated",
          "div": "<div xmlns=\"http://www.w3.org/1999/xhtml\"><table class=\"hl7__eu__lab__report\"><tr><th>Test</th><th>12-Dec-2023</th><th>Reference&#xA0;Range</th><th>Unit</th></tr><tr><td>Erythrocytes [#/volume] in Blood by Automated count</td><td>3.9</td><td>4 - 5</td><td>L</td><td>10*6/uL</td></tr></table></div>"
        },
        "status": "final",
        "subject": {
          "reference": "urn:uuid:e887a43f-0948-43d2-8e25-0e886ce2179f",
          "display": "Marina Norbiato"
        },
        "effectiveDateTime": "2023-12-12T05:31:43Z",
        "specimen": {
          "reference": "urn:uuid:9e303041-a00f-4c5d-93b5-498ffd95afd3"
        }
      }
    },
    {
      "fullUrl": "urn:uuid:422e311c-ea2c-4b01-950c-e0a5a164cdaa",
      "resource": {
        "resourceType": "Observation",
        "id": "422e311c-ea2c-4b01-950c-e0a5a164cdaa",
        "meta": {
          "profile": [
            "http://hl7.eu/fhir/laboratory/StructureDefinition/Observation-resultslab-eu-lab"
          ]
        },
        "performer": [
          {
            "display": "The Central European Lab"
          }
        ],
        "category": [
          {
            "coding": [
              {
                "system": "http://terminology.hl7.org/CodeSystem/observation-category",
                "code": "laboratory"
              }
            ]
          }
        ],
        "code": {
          "coding": [
            {
              "code": "787-2",
              "system": "http://loinc.org",
              "display": "MCV [Entitic volume] by Automated count"
            }
          ],
          "text": "MCV [Entitic volume] by Automated count"
        },
        "valueQuantity": {
          "system": "http://unitsofmeasure.org",
          "value": 81.8,
          "unit": "fL",
          "code": "fL"
        },
        "referenceRange": [
          {
            "low": {
              "value": 82,
              "code": "fL",
              "system": "http://unitsofmeasure.org"
            }
          },
          {
            "high": {
              "value": 98,
              "code": "fL",
              "system": "http://unitsofmeasure.org"
            }
          }
        ],
        "interpretation": [
          {
            "coding": [
              {
                "code": "L",
                "system": "http://terminology.hl7.org/CodeSystem/v3-ObservationInterpretation",
                "display": "Low"
              }
            ]
          }
        ],
        "text": {
          "status": "generated",
          "div": "<div xmlns=\"http://www.w3.org/1999/xhtml\"><table class=\"hl7__eu__lab__report\"><tr><th>Test</th><th>12-Dec-2023</th><th>Reference&#xA0;Range</th><th>Unit</th></tr><tr><td>MCV [Entitic volume] by Automated count</td><td>81.8</td><td>82 - 98</td><td>L</td><td>fL</td></tr></table></div>"
        },
        "status": "final",
        "subject": {
          "reference": "urn:uuid:e887a43f-0948-43d2-8e25-0e886ce2179f",
          "display": "Marina Norbiato"
        },
        "effectiveDateTime": "2023-12-12T05:31:43Z",
        "specimen": {
          "reference": "urn:uuid:9e303041-a00f-4c5d-93b5-498ffd95afd3"
        }
      }
    },
    {
      "fullUrl": "urn:uuid:832c8d9f-ca4e-4614-b129-9affeb274d04",
      "resource": {
        "resourceType": "Observation",
        "id": "832c8d9f-ca4e-4614-b129-9affeb274d04",
        "meta": {
          "profile": [
            "http://hl7.eu/fhir/laboratory/StructureDefinition/Observation-resultslab-eu-lab"
          ]
        },
        "performer": [
          {
            "display": "The Central European Lab"
          }
        ],
        "category": [
          {
            "coding": [
              {
                "system": "http://terminology.hl7.org/CodeSystem/observation-category",
                "code": "laboratory"
              }
            ]
          }
        ],
        "code": {
          "coding": [
            {
              "code": "785-6",
              "system": "http://loinc.org",
              "display": "MCH [Entitic mass] by Automated count"
            }
          ],
          "text": "MCH [Entitic mass] by Automated count"
        },
        "valueQuantity": {
          "system": "http://unitsofmeasure.org",
          "value": 31,
          "unit": "pg",
          "code": "pg"
        },
        "referenceRange": [
          {
            "low": {
              "value": 27,
              "code": "pg",
              "system": "http://unitsofmeasure.org"
            }
          },
          {
            "high": {
              "value": 33,
              "code": "pg",
              "system": "http://unitsofmeasure.org"
            }
          }
        ],
        "text": {
          "status": "generated",
          "div": "<div xmlns=\"http://www.w3.org/1999/xhtml\"><table class=\"hl7__eu__lab__report\"><tr><th>Test</th><th>12-Dec-2023</th><th>Reference&#xA0;Range</th><th>Unit</th></tr><tr><td>MCH [Entitic mass] by Automated count</td><td>31.0</td><td>27 - 33</td><td></td><td>pg</td></tr></table></div>"
        },
        "status": "final",
        "subject": {
          "reference": "urn:uuid:e887a43f-0948-43d2-8e25-0e886ce2179f",
          "display": "Marina Norbiato"
        },
        "effectiveDateTime": "2023-12-12T05:31:43Z",
        "specimen": {
          "reference": "urn:uuid:9e303041-a00f-4c5d-93b5-498ffd95afd3"
        }
      }
    },
    {
      "fullUrl": "urn:uuid:eca0f0f8-098d-4780-bc4f-009590c46d66",
      "resource": {
        "resourceType": "Observation",
        "id": "eca0f0f8-098d-4780-bc4f-009590c46d66",
        "meta": {
          "profile": [
            "http://hl7.eu/fhir/laboratory/StructureDefinition/Observation-resultslab-eu-lab"
          ]
        },
        "performer": [
          {
            "display": "The Central European Lab"
          }
        ],
        "category": [
          {
            "coding": [
              {
                "system": "http://terminology.hl7.org/CodeSystem/observation-category",
                "code": "laboratory"
              }
            ]
          }
        ],
        "code": {
          "coding": [
            {
              "code": "786-4",
              "system": "http://loinc.org",
              "display": "MCHC [Mass/volume] by Automated count"
            }
          ],
          "text": "MCHC [Mass/volume] by Automated count"
        },
        "valueQuantity": {
          "system": "http://unitsofmeasure.org",
          "value": 34.3,
          "unit": "g/dL",
          "code": "g/dL"
        },
        "referenceRange": [
          {
            "low": {
              "value": 32,
              "code": "g/dL",
              "system": "http://unitsofmeasure.org"
            }
          },
          {
            "high": {
              "value": 37,
              "code": "g/dL",
              "system": "http://unitsofmeasure.org"
            }
          }
        ],
        "text": {
          "status": "generated",
          "div": "<div xmlns=\"http://www.w3.org/1999/xhtml\"><table class=\"hl7__eu__lab__report\"><tr><th>Test</th><th>12-Dec-2023</th><th>Reference&#xA0;Range</th><th>Unit</th></tr><tr><td>MCHC [Mass/volume] by Automated count</td><td>34.3</td><td>32 - 37</td><td></td><td>g/dL</td></tr></table></div>"
        },
        "status": "final",
        "subject": {
          "reference": "urn:uuid:e887a43f-0948-43d2-8e25-0e886ce2179f",
          "display": "Marina Norbiato"
        },
        "effectiveDateTime": "2023-12-12T05:31:43Z",
        "specimen": {
          "reference": "urn:uuid:9e303041-a00f-4c5d-93b5-498ffd95afd3"
        }
      }
    },
    {
      "fullUrl": "urn:uuid:6a626807-94a7-48a5-8e30-029e1b4bf4e8",
      "resource": {
        "resourceType": "Observation",
        "id": "6a626807-94a7-48a5-8e30-029e1b4bf4e8",
        "meta": {
          "profile": [
            "http://hl7.eu/fhir/laboratory/StructureDefinition/Observation-resultslab-eu-lab"
          ]
        },
        "performer": [
          {
            "display": "The Central European Lab"
          }
        ],
        "category": [
          {
            "coding": [
              {
                "system": "http://terminology.hl7.org/CodeSystem/observation-category",
                "code": "laboratory"
              }
            ]
          }
        ],
        "code": {
          "coding": [
            {
              "code": "21000-5",
              "system": "http://loinc.org",
              "display": "Erythrocyte distribution width [Entitic volume] by Automated count"
            }
          ],
          "text": "Erythrocyte distribution width [Entitic volume] by Automated count"
        },
        "valueQuantity": {
          "system": "http://unitsofmeasure.org",
          "value": 42.3,
          "unit": "fL",
          "code": "fL"
        },
        "referenceRange": [
          {
            "low": {
              "value": 36,
              "code": "fL",
              "system": "http://unitsofmeasure.org"
            }
          },
          {
            "high": {
              "value": 55,
              "code": "fL",
              "system": "http://unitsofmeasure.org"
            }
          }
        ],
        "text": {
          "status": "generated",
          "div": "<div xmlns=\"http://www.w3.org/1999/xhtml\"><table class=\"hl7__eu__lab__report\"><tr><th>Test</th><th>12-Dec-2023</th><th>Reference&#xA0;Range</th><th>Unit</th></tr><tr><td>Erythrocyte distribution width [Entitic volume] by Automated count</td><td>42.3</td><td>36 - 55</td><td></td><td>fL</td></tr></table></div>"
        },
        "status": "final",
        "subject": {
          "reference": "urn:uuid:e887a43f-0948-43d2-8e25-0e886ce2179f",
          "display": "Marina Norbiato"
        },
        "effectiveDateTime": "2023-12-12T05:31:43Z",
        "specimen": {
          "reference": "urn:uuid:9e303041-a00f-4c5d-93b5-498ffd95afd3"
        }
      }
    },
    {
      "fullUrl": "urn:uuid:03cdbf65-b922-4fcc-a400-cd53c1a681f6",
      "resource": {
        "resourceType": "Observation",
        "id": "03cdbf65-b922-4fcc-a400-cd53c1a681f6",
        "meta": {
          "profile": [
            "http://hl7.eu/fhir/laboratory/StructureDefinition/Observation-resultslab-eu-lab"
          ]
        },
        "performer": [
          {
            "display": "The Central European Lab"
          }
        ],
        "category": [
          {
            "coding": [
              {
                "system": "http://terminology.hl7.org/CodeSystem/observation-category",
                "code": "laboratory"
              }
            ]
          }
        ],
        "code": {
          "coding": [
            {
              "code": "777-3",
              "system": "http://loinc.org",
              "display": "Platelets [#/volume] in Blood by Automated count"
            }
          ],
          "text": "Platelets [#/volume] in Blood by Automated count"
        },
        "valueQuantity": {
          "system": "http://unitsofmeasure.org",
          "value": 229.4,
          "unit": "10*3/uL",
          "code": "10*3/uL"
        },
        "referenceRange": [
          {
            "low": {
              "value": 150,
              "code": "10*3/uL",
              "system": "http://unitsofmeasure.org"
            }
          },
          {
            "high": {
              "value": 400,
              "code": "10*3/uL",
              "system": "http://unitsofmeasure.org"
            }
          }
        ],
        "text": {
          "status": "generated",
          "div": "<div xmlns=\"http://www.w3.org/1999/xhtml\"><table class=\"hl7__eu__lab__report\"><tr><th>Test</th><th>12-Dec-2023</th><th>Reference&#xA0;Range</th><th>Unit</th></tr><tr><td>Platelets [#/volume] in Blood by Automated count</td><td>229.4</td><td>150 - 400</td><td></td><td>10*3/uL</td></tr></table></div>"
        },
        "status": "final",
        "subject": {
          "reference": "urn:uuid:e887a43f-0948-43d2-8e25-0e886ce2179f",
          "display": "Marina Norbiato"
        },
        "effectiveDateTime": "2023-12-12T05:31:43Z",
        "specimen": {
          "reference": "urn:uuid:9e303041-a00f-4c5d-93b5-498ffd95afd3"
        }
      }
    },
    {
      "fullUrl": "urn:uuid:1586e7af-4902-47a1-94c1-e9ec11165a93",
      "resource": {
        "resourceType": "Observation",
        "id": "1586e7af-4902-47a1-94c1-e9ec11165a93",
        "meta": {
          "profile": [
            "http://hl7.eu/fhir/laboratory/StructureDefinition/Observation-resultslab-eu-lab"
          ]
        },
        "performer": [
          {
            "display": "The Central European Lab"
          }
        ],
        "category": [
          {
            "coding": [
              {
                "system": "http://terminology.hl7.org/CodeSystem/observation-category",
                "code": "laboratory"
              }
            ]
          }
        ],
        "code": {
          "coding": [
            {
              "code": "32207-3",
              "system": "http://loinc.org",
              "display": "Platelet distribution width [Entitic volume] in Blood by Automated count"
            }
          ],
          "text": "Platelet distribution width [Entitic volume] in Blood by Automated count"
        },
        "valueQuantity": {
          "system": "http://unitsofmeasure.org",
          "value": 479.3,
          "unit": "fL",
          "code": "fL"
        },
        "referenceRange": [
          {
            "low": {
              "value": 11.6,
              "code": "fL",
              "system": "http://unitsofmeasure.org"
            }
          },
          {
            "high": {
              "value": 17.4,
              "code": "fL",
              "system": "http://unitsofmeasure.org"
            }
          }
        ],
        "interpretation": [
          {
            "coding": [
              {
                "code": "H",
                "system": "http://terminology.hl7.org/CodeSystem/v3-ObservationInterpretation",
                "display": "High"
              }
            ]
          }
        ],
        "text": {
          "status": "generated",
          "div": "<div xmlns=\"http://www.w3.org/1999/xhtml\"><table class=\"hl7__eu__lab__report\"><tr><th>Test</th><th>12-Dec-2023</th><th>Reference&#xA0;Range</th><th>Unit</th></tr><tr><td>Platelet distribution width [Entitic volume] in Blood by Automated count</td><td>479.3</td><td>11.6 - 17.4</td><td>H</td><td>fL</td></tr></table></div>"
        },
        "status": "final",
        "subject": {
          "reference": "urn:uuid:e887a43f-0948-43d2-8e25-0e886ce2179f",
          "display": "Marina Norbiato"
        },
        "effectiveDateTime": "2023-12-12T05:31:43Z",
        "specimen": {
          "reference": "urn:uuid:9e303041-a00f-4c5d-93b5-498ffd95afd3"
        }
      }
    },
    {
      "fullUrl": "urn:uuid:32acd363-0006-46a2-917e-791e6296403a",
      "resource": {
        "resourceType": "Observation",
        "id": "32acd363-0006-46a2-917e-791e6296403a",
        "meta": {
          "profile": [
            "http://hl7.eu/fhir/laboratory/StructureDefinition/Observation-resultslab-eu-lab"
          ]
        },
        "performer": [
          {
            "display": "The Central European Lab"
          }
        ],
        "category": [
          {
            "coding": [
              {
                "system": "http://terminology.hl7.org/CodeSystem/observation-category",
                "code": "laboratory"
              }
            ]
          }
        ],
        "code": {
          "coding": [
            {
              "code": "32623-1",
              "system": "http://loinc.org",
              "display": "Platelet mean volume [Entitic volume] in Blood by Automated count"
            }
          ],
          "text": "Platelet mean volume [Entitic volume] in Blood by Automated count"
        },
        "valueQuantity": {
          "system": "http://unitsofmeasure.org",
          "value": 9.7,
          "unit": "fL",
          "code": "fL"
        },
        "referenceRange": [
          {
            "low": {
              "value": 7.2,
              "code": "fL",
              "system": "http://unitsofmeasure.org"
            }
          },
          {
            "high": {
              "value": 13.5,
              "code": "fL",
              "system": "http://unitsofmeasure.org"
            }
          }
        ],
        "text": {
          "status": "generated",
          "div": "<div xmlns=\"http://www.w3.org/1999/xhtml\"><table class=\"hl7__eu__lab__report\"><tr><th>Test</th><th>12-Dec-2023</th><th>Reference&#xA0;Range</th><th>Unit</th></tr><tr><td>Platelet mean volume [Entitic volume] in Blood by Automated count</td><td>9.7</td><td>7.2 - 13.5</td><td></td><td>fL</td></tr></table></div>"
        },
        "status": "final",
        "subject": {
          "reference": "urn:uuid:e887a43f-0948-43d2-8e25-0e886ce2179f",
          "display": "Marina Norbiato"
        },
        "effectiveDateTime": "2023-12-12T05:31:43Z",
        "specimen": {
          "reference": "urn:uuid:9e303041-a00f-4c5d-93b5-498ffd95afd3"
        }
      }
    },
    {
      "fullUrl": "urn:uuid:fd52db35-ca80-4c29-b333-34ca783475a9",
      "resource": {
        "resourceType": "Device",
        "id": "fd52db35-ca80-4c29-b333-34ca783475a9",
        "deviceName": [
          {
            "name": "SYNDERAI Synthetic Generator",
            "type": "manufacturer-name"
          }
        ],
        "version": [
          {
            "value": "5.0"
          }
        ],
        "text": {
          "status": "generated",
          "div": "<div xmlns=\"http://www.w3.org/1999/xhtml\">SYNDERAI Synthetic Generator v5.0</div>"
        },
        "status": "active\"",
        "distinctIdentifier": "synderai-generator-50",
        "manufacturer": "SYNDERAI Project"
      }
    },
    {
      "fullUrl": "urn:uuid:228030a8-d040-4b4e-8df0-44afe1786d3c",
      "resource": {
        "resourceType": "Provenance",
        "id": "228030a8-d040-4b4e-8df0-44afe1786d3c",
        "target": [
          {
            "reference": "Patient/e887a43f-0948-43d2-8e25-0e886ce2179f"
          },
          {
            "reference": "Bundle/0e77153a-6af3-4261-bbd0-d99dbf30c663"
          },
          {
            "reference": "Composition/919479a3-3300-4fe7-ae0d-1e70d2c920f2"
          },
          {
            "reference": "PractitionerRole/016e1513-453b-4502-a9cb-4f79b741b395"
          },
          {
            "reference": "Practitioner/9650f17f-aaf2-4420-90e4-496a0b438111"
          },
          {
            "reference": "PractitionerRole/834a76b0-c95b-4e5d-b408-549d0aa824af"
          },
          {
            "reference": "Organization/c66cf2c8-f3ad-480c-a754-b452b8082fbb"
          }
        ],
        "activity": {
          "text": "Synthetic Example Data Generation"
        },
        "policy": [
          "https://synderai.net/synderai-synthetic-data-policy"
        ],
        "agent": [
          {
            "type": {
              "text": "author"
            },
            "who": {
              "reference": "Device/fd52db35-ca80-4c29-b333-34ca783475a9"
            }
          }
        ],
        "reason": [
          {
            "text": "Interoperability Testing and Training (non-clinical use)"
          }
        ],
        "text": {
          "status": "generated",
          "div": "<div xmlns=\"http://www.w3.org/1999/xhtml\">Provenance for SYNDERAI Synthetic Example Data Resource</div>"
        },
        "recorded": "2023-12-12T06:31:43Z"
      }
    },
    {
      "fullUrl": "urn:uuid:016e1513-453b-4502-a9cb-4f79b741b395",
      "resource": {
        "resourceType": "PractitionerRole",
        "id": "016e1513-453b-4502-a9cb-4f79b741b395",
        "meta": {
          "profile": [
            "http://hl7.eu/fhir/base/StructureDefinition/practitionerRole-eu"
          ]
        },
        "text": {
          "status": "generated",
          "div": "<div xmlns=\"http://www.w3.org/1999/xhtml\">Laboratory Role Id: 016e1513-453b-4502-a9cb-4f79b741b395</div>"
        },
        "practitioner": {
          "reference": "urn:uuid:9650f17f-aaf2-4420-90e4-496a0b438111"
        }
      }
    },
    {
      "fullUrl": "urn:uuid:9650f17f-aaf2-4420-90e4-496a0b438111",
      "resource": {
        "resourceType": "Practitioner",
        "id": "9650f17f-aaf2-4420-90e4-496a0b438111",
        "meta": {
          "profile": [
            "http://hl7.eu/fhir/base/StructureDefinition/practitioner-eu"
          ]
        },
        "identifier": [
          {
            "assigner": {
              "display": "HL7 Europe"
            },
            "system": "urn:oid:2.16.840.1.113883.2.51.999",
            "value": "0e8a48a1-035e-40d8-b826-4acacaa3468d"
          }
        ],
        "name": [
          {
            "prefix": [
              "dr"
            ],
            "given": [
              "Ex"
            ],
            "family": "Ample"
          }
        ],
        "address": [
          {
            "line": [
              "Laboratoire Central Européenne",
              "Boulevard du Jardin Botanique 32"
            ],
            "postalCode": "1000",
            "city": "Brussels",
            "country": "Belgium"
          }
        ],
        "text": {
          "status": "generated",
          "div": "<div xmlns=\"http://www.w3.org/1999/xhtml\">Laboratory: Laboratoire Central Européenne, 1000 Brussels, Belgium</div>"
        }
      }
    }
  ],
  "type": "document",
  "timestamp": "2023-12-12T06:31:43Z"
}
