{
  "resourceType": "Bundle",
  "id": "5b8f0715-9fcb-4ec5-8acf-ab45b6099e52",
  "meta": {
    "profile": [
      "http://hl7.eu/fhir/laboratory/StructureDefinition/Bundle-eu-lab"
    ]
  },
  "identifier": {
    "assigner": {
      "display": "HL7 Europe"
    },
    "system": "urn:oid:2.16.840.1.113883.2.51.999",
    "value": "962a0292-4758-40c9-bb38-dfc15f58ce50"
  },
  "entry": [
    {
      "fullUrl": "urn:uuid:d81d6733-e11c-42d7-bb8f-0b61ffe40398",
      "resource": {
        "resourceType": "Composition",
        "id": "d81d6733-e11c-42d7-bb8f-0b61ffe40398",
        "meta": {
          "profile": [
            "http://hl7.eu/fhir/laboratory/StructureDefinition/Composition-eu-lab"
          ]
        },
        "identifier": {
          "assigner": {
            "display": "HL7 Europe"
          },
          "system": "urn:oid:2.16.840.1.113883.2.51.999",
          "value": "c13049f9-5859-4b89-b823-6a5ce211b406"
        },
        "author": [
          {
            "reference": "urn:uuid:76309786-26a0-4d1e-a1e3-aad1d3ce23ee"
          }
        ],
        "category": [
          {
            "coding": [
              {
                "code": "26436-6",
                "system": "http://loinc.org",
                "display": "Laboratory studies (set)"
              }
            ]
          }
        ],
        "type": {
          "coding": [
            {
              "code": "11502-2",
              "system": "http://loinc.org",
              "display": "Laboratory report"
            }
          ],
          "text": "Laboratory Report"
        },
        "section": [
          {
            "code": {
              "coding": [
                {
                  "code": "26436-6",
                  "system": "http://loinc.org",
                  "display": "Laboratory studies (set)"
                }
              ],
              "text": "Laboratory studies"
            },
            "section": [
              {
                "code": {
                  "coding": [
                    {
                      "code": "$18719-5",
                      "system": "http://loinc.org",
                      "display": "Chemistry studies (set)"
                    }
                  ],
                  "text": "Chemistry"
                },
                "entry": [
                  {
                    "reference": "urn:uuid:1a63c617-4c76-4ef3-a377-800294d77a0c"
                  },
                  {
                    "reference": "urn:uuid:c0f02957-97f1-46c1-8104-2a41f39ec892"
                  },
                  {
                    "reference": "urn:uuid:f925f894-a6f2-4865-9176-e332e519ea8a"
                  },
                  {
                    "reference": "urn:uuid:e581a838-a439-439d-bc3f-89e0c7ff9e99"
                  },
                  {
                    "reference": "urn:uuid:52ab2fbe-69d7-4feb-9fd5-ab8dee392c4b"
                  },
                  {
                    "reference": "urn:uuid:0bb6c3a3-23e2-4301-8d90-331ff694184e"
                  },
                  {
                    "reference": "urn:uuid:29f4b305-99c6-4d59-b8a7-a5ef900105cc"
                  },
                  {
                    "reference": "urn:uuid:02a8e887-0602-4a80-bff7-8c6a321cf7a1"
                  },
                  {
                    "reference": "urn:uuid:f1897733-0990-4556-a54e-01c5278f4361"
                  },
                  {
                    "reference": "urn:uuid:a11e9867-f8b7-40f9-8c69-627a66e53e36"
                  },
                  {
                    "reference": "urn:uuid:1eec0994-9184-4d99-90c7-ef10e04d4b76"
                  },
                  {
                    "reference": "urn:uuid:6d6da077-4cdc-4630-b553-6f429e4d1ac9"
                  },
                  {
                    "reference": "urn:uuid:c92fbdf9-62a7-4de8-9d37-2d4d480515eb"
                  },
                  {
                    "reference": "urn:uuid:62a04bd1-1d06-4649-8b04-ab1e30fc8a88"
                  },
                  {
                    "reference": "urn:uuid:81471b6f-9ec2-4c6e-a1d2-6a4675343adc"
                  },
                  {
                    "reference": "urn:uuid:8ac69f69-98d0-4ac9-acfb-2e627c630683"
                  },
                  {
                    "reference": "urn:uuid:c1b88fe9-1127-460b-bc6c-3441069b09c5"
                  },
                  {
                    "reference": "urn:uuid:a8476425-c0ea-42a3-8d8e-f85615cf3743"
                  }
                ],
                "text": {
                  "status": "generated",
                  "div": "<div xmlns=\"http://www.w3.org/1999/xhtml\"><h3>Chemistry</h3><table class=\"hl7__eu__lab__report\"><thead><tr><th>Test</th><th>23-JUN-2017</th><th>Reference&#xA0;Range</th><th>Unit</th></tr></thead><tbody><tr><td>Glucose [Mass/volume] in Serum or Plasma</td><td>95.5</td><td>70 - 140</td><td>mg/dL</td></tr><tr><td>Urea nitrogen [Mass/volume] in Serum or Plasma</td><td>12.3</td><td>7 - 20</td><td>mg/dL</td></tr><tr><td>Creatinine [Mass/volume] in Serum or Plasma</td><td><strong>1.9 H</strong></td><td>0.9 - 1.3</td><td>mg/dL</td></tr><tr><td>Calcium [Mass/volume] in Serum or Plasma</td><td>8.9</td><td>8.5 - 10.5</td><td>mg/dL</td></tr><tr><td>Sodium [Moles/volume] in Serum or Plasma</td><td>138.3</td><td>135 - 145</td><td>mmol/L</td></tr><tr><td>Potassium [Moles/volume] in Serum or Plasma</td><td>4.4</td><td>3.5 - 5.3</td><td>mmol/L</td></tr><tr><td>Chloride [Moles/volume] in Serum or Plasma</td><td><strong>109.5 H</strong></td><td>98 - 107</td><td>mmol/L</td></tr><tr><td>Carbon dioxide, total [Moles/volume] in Serum or Plasma</td><td>25.7</td><td>22 - 33</td><td>mmol/L</td></tr><tr><td>Ketones [Presence] in Urine by Test strip</td><td>Urine ketone test = +</td><td></td><td></td></tr><tr><td>Hemoglobin A1c/Hemoglobin.total in Blood</td><td><strong>3.0 L</strong></td><td>4.3 - 6</td><td>%</td></tr><tr><td>Glucose [Mass/volume] in Blood</td><td>95.5</td><td>70 - 140</td><td>mg/dL</td></tr><tr><td>Urea nitrogen [Mass/volume] in Blood</td><td>12.3</td><td>7 - 20</td><td>mg/dL</td></tr><tr><td>Creatinine [Mass/volume] in Blood</td><td><strong>1.4 H</strong></td><td>0.9 - 1.3</td><td>mg/dL</td></tr><tr><td>Calcium [Mass/volume] in Blood</td><td>8.9</td><td>8.5 - 10.5</td><td>mg/dL</td></tr><tr><td>Sodium [Moles/volume] in Blood</td><td>138.3</td><td>135 - 145</td><td>mmol/L</td></tr><tr><td>Potassium [Moles/volume] in Blood</td><td>4.4</td><td>3.5 - 5.1</td><td>mmol/L</td></tr><tr><td>Chloride [Moles/volume] in Blood</td><td><strong>109.5 H</strong></td><td>98 - 108</td><td>mmol/L</td></tr><tr><td>Carbon dioxide, total [Moles/volume] in Blood</td><td>25.7</td><td>22 - 29</td><td>mmol/L</td></tr></tbody></table></div>"
                },
                "title": "Chemistry"
              },
              {
                "code": {
                  "coding": [
                    {
                      "code": "$18729-4",
                      "system": "http://loinc.org",
                      "display": "Urinalysis studies (set)"
                    }
                  ],
                  "text": "Urinalysis"
                },
                "entry": [
                  {
                    "reference": "urn:uuid:1c8203d5-38f4-4789-af74-d0c29f30c322"
                  },
                  {
                    "reference": "urn:uuid:3c4313f3-d6aa-4a2e-8c72-61382aa93e58"
                  },
                  {
                    "reference": "urn:uuid:f09857e1-7760-4120-92c9-febae16b73a5"
                  },
                  {
                    "reference": "urn:uuid:510ba46c-a0f5-4121-8361-d5c50790deff"
                  },
                  {
                    "reference": "urn:uuid:ba177e09-b8f8-488c-8751-62b34ac4101d"
                  },
                  {
                    "reference": "urn:uuid:66bf5a34-2168-4f24-9e38-fc6c818dd81b"
                  },
                  {
                    "reference": "urn:uuid:78e51e47-4010-417d-a395-c4a8e51a2862"
                  },
                  {
                    "reference": "urn:uuid:94255908-1f4e-454b-81a5-3dfbbf50a9a6"
                  },
                  {
                    "reference": "urn:uuid:c75c1a4a-ad42-4453-89df-f94fdc8647f3"
                  },
                  {
                    "reference": "urn:uuid:b49fe049-c9df-4b3e-8a33-b88497272508"
                  },
                  {
                    "reference": "urn:uuid:42bc5e9f-f4a8-43cb-b1d9-42fc35c380be"
                  },
                  {
                    "reference": "urn:uuid:84d9ff1a-c4f0-429f-bde2-20835ede7e29"
                  }
                ],
                "text": {
                  "status": "generated",
                  "div": "<div xmlns=\"http://www.w3.org/1999/xhtml\"><h3>Urinalysis</h3><table class=\"hl7__eu__lab__report\"><thead><tr><th>Test</th><th>23-JUN-2017</th><th>Reference&#xA0;Range</th><th>Unit</th></tr></thead><tbody><tr><td>Glucose [Mass/volume] in Urine by Test strip</td><td><strong>1.3 H</strong></td><td>0 - 0.8</td><td>mg/dL</td></tr><tr><td>Glucose [Presence] in Urine by Test strip</td><td>++</td><td></td><td></td></tr><tr><td>Bilirubin.total [Mass/volume] in Urine by Test strip</td><td>1.0</td><td>0 - 1.9</td><td>mg/dL</td></tr><tr><td>Bilirubin.total [Presence] in Urine by Test strip</td><td>Finding of bilirubin in urine</td><td></td><td></td></tr><tr><td>Ketones [Mass/volume] in Urine by Test strip</td><td><strong>4.0 H</strong></td><td>0 - 3</td><td>mg/dL</td></tr><tr><td>Specific gravity of Urine by Test strip</td><td><strong>1.0 L</strong></td><td>1.01 - 1.03</td><td>{nominal}</td></tr><tr><td>pH of Urine by Test strip</td><td>7.0</td><td>4.5 - 7.5</td><td>pH</td></tr><tr><td>Protein [Mass/volume] in Urine by Test strip</td><td><strong>304.9 H</strong></td><td>0 - 149</td><td>mg/dL</td></tr><tr><td>Protein [Presence] in Urine by Test strip</td><td>Urine protein test = ++</td><td></td><td></td></tr><tr><td>Nitrite [Presence] in Urine by Test strip</td><td>Urine nitrite negative</td><td></td><td></td></tr><tr><td>Hemoglobin [Presence] in Urine by Test strip</td><td>Urine blood test = negative</td><td></td><td></td></tr><tr><td>Leukocyte esterase [Presence] in Urine by Test strip</td><td>Urine leukocyte test negative</td><td></td><td></td></tr></tbody></table></div>"
                },
                "title": "Urinalysis"
              },
              {
                "code": {
                  "coding": [
                    {
                      "code": "$LP7846-1",
                      "system": "http://loinc.org",
                      "display": "Specimen information"
                    }
                  ],
                  "text": "Specimen information"
                },
                "entry": [
                  {
                    "reference": "urn:uuid:47eb64d1-b939-46c5-87f6-ae66c49e8803"
                  },
                  {
                    "reference": "urn:uuid:40593dc5-6061-4431-b929-fd0d107070bc"
                  },
                  {
                    "reference": "urn:uuid:6f4384b3-cbf8-4d13-bd3e-1b568828bd6c"
                  },
                  {
                    "reference": "urn:uuid:da85e4e9-cc4d-46b9-b67d-59bd6f722611"
                  }
                ],
                "text": {
                  "status": "generated",
                  "div": "<div xmlns=\"http://www.w3.org/1999/xhtml\"><h3>Specimen information</h3><table class=\"hl7__eu__lab__report\"><thead><tr><th>Test</th><th>23-JUN-2017</th><th>Specimen</th><th></th></tr></thead><tbody><tr><td>Appearance of Urine</td><td>Cloudy urine</td><td>Urine</td><td></td></tr><tr><td>Odor of Urine</td><td>Urine smell ammoniacal</td><td>Urine</td><td></td></tr><tr><td>Clarity of Urine</td><td>Translucent</td><td>Urine</td><td></td></tr><tr><td>Color of Urine</td><td>Brown color</td><td>Urine</td><td></td></tr></tbody></table></div>"
                },
                "title": "Specimen information"
              }
            ],
            "title": "Laboratory Report"
          },
          {
            "text": {
              "status": "generated",
              "div": "<div xmlns=\"http://www.w3.org/1999/xhtml\"><h3>Annotation</h3><table class=\"hl7__eu__lab__report\"><tr><th>Conclusion and Recommendations based on this report and previous findings known to us</th></tr><tr><td>The patient shows mildly elevated creatinine and chloride, suggesting possible mild renal impairment or dehydration. Urinalysis reveals proteinuria, glycosuria, ketonuria, low specific gravity, and abnormal urine appearance, raising suspicion for renal dysfunction and possible metabolic derangement. HbA1c is low, which may reflect anemia or recent changes in glucose control. No evidence of urinary tract infection. Recommend further renal evaluation and assessment for underlying metabolic or systemic conditions.</td></tr></table></div>"
            },
            "code": {
              "coding": [
                {
                  "system": "http://loinc.org",
                  "code": "48767-8",
                  "display": "Annotation comment"
                }
              ]
            },
            "title": "Annotation comment"
          }
        ],
        "status": "final",
        "subject": {
          "reference": "urn:uuid:27aa1732-9704-43b2-9a39-b0f93a9b1476",
          "display": "Victor Lagarde"
        },
        "date": "2017-06-23T06:48:18Z",
        "title": "Laboratory Report",
        "confidentiality": "N"
      }
    },
    {
      "fullUrl": "urn:uuid:5bb5a2ed-690b-4074-8ae7-b4545d3581ab",
      "resource": {
        "resourceType": "DiagnosticReport",
        "id": "5bb5a2ed-690b-4074-8ae7-b4545d3581ab",
        "meta": {
          "profile": [
            "http://hl7.eu/fhir/laboratory/StructureDefinition/DiagnosticReport-eu-lab"
          ]
        },
        "identifier": [
          {
            "assigner": {
              "display": "HL7 Europe"
            },
            "system": "urn:oid:2.16.840.1.113883.2.51.999",
            "value": "fbb4562a-a777-4552-80c8-37f144d05da0"
          }
        ],
        "extension": [
          {
            "url": "http://hl7.org/fhir/5.0/StructureDefinition/extension-DiagnosticReport.composition",
            "valueReference": {
              "reference": "urn:uuid:c13049f9-5859-4b89-b823-6a5ce211b406"
            }
          }
        ],
        "category": [
          {
            "coding": [
              {
                "code": "26436-6",
                "system": "http://loinc.org",
                "display": "Laboratory studies (set)"
              }
            ]
          }
        ],
        "specimen": [
          {
            "reference": "urn:uuid:d571a79b-326d-4e75-8a63-0af10b3919c9"
          },
          {
            "reference": "urn:uuid:74a752c6-cd8f-4321-8553-306c42ed35e6"
          },
          {
            "reference": "urn:uuid:a559e76e-1270-44d7-a582-dee2de27124c"
          }
        ],
        "result": [
          {
            "reference": "urn:uuid:1a63c617-4c76-4ef3-a377-800294d77a0c"
          },
          {
            "reference": "urn:uuid:c0f02957-97f1-46c1-8104-2a41f39ec892"
          },
          {
            "reference": "urn:uuid:f925f894-a6f2-4865-9176-e332e519ea8a"
          },
          {
            "reference": "urn:uuid:e581a838-a439-439d-bc3f-89e0c7ff9e99"
          },
          {
            "reference": "urn:uuid:52ab2fbe-69d7-4feb-9fd5-ab8dee392c4b"
          },
          {
            "reference": "urn:uuid:0bb6c3a3-23e2-4301-8d90-331ff694184e"
          },
          {
            "reference": "urn:uuid:29f4b305-99c6-4d59-b8a7-a5ef900105cc"
          },
          {
            "reference": "urn:uuid:02a8e887-0602-4a80-bff7-8c6a321cf7a1"
          },
          {
            "reference": "urn:uuid:47eb64d1-b939-46c5-87f6-ae66c49e8803"
          },
          {
            "reference": "urn:uuid:40593dc5-6061-4431-b929-fd0d107070bc"
          },
          {
            "reference": "urn:uuid:6f4384b3-cbf8-4d13-bd3e-1b568828bd6c"
          },
          {
            "reference": "urn:uuid:da85e4e9-cc4d-46b9-b67d-59bd6f722611"
          },
          {
            "reference": "urn:uuid:1c8203d5-38f4-4789-af74-d0c29f30c322"
          },
          {
            "reference": "urn:uuid:3c4313f3-d6aa-4a2e-8c72-61382aa93e58"
          },
          {
            "reference": "urn:uuid:f09857e1-7760-4120-92c9-febae16b73a5"
          },
          {
            "reference": "urn:uuid:510ba46c-a0f5-4121-8361-d5c50790deff"
          },
          {
            "reference": "urn:uuid:ba177e09-b8f8-488c-8751-62b34ac4101d"
          },
          {
            "reference": "urn:uuid:f1897733-0990-4556-a54e-01c5278f4361"
          },
          {
            "reference": "urn:uuid:66bf5a34-2168-4f24-9e38-fc6c818dd81b"
          },
          {
            "reference": "urn:uuid:78e51e47-4010-417d-a395-c4a8e51a2862"
          },
          {
            "reference": "urn:uuid:94255908-1f4e-454b-81a5-3dfbbf50a9a6"
          },
          {
            "reference": "urn:uuid:c75c1a4a-ad42-4453-89df-f94fdc8647f3"
          },
          {
            "reference": "urn:uuid:b49fe049-c9df-4b3e-8a33-b88497272508"
          },
          {
            "reference": "urn:uuid:42bc5e9f-f4a8-43cb-b1d9-42fc35c380be"
          },
          {
            "reference": "urn:uuid:84d9ff1a-c4f0-429f-bde2-20835ede7e29"
          },
          {
            "reference": "urn:uuid:a11e9867-f8b7-40f9-8c69-627a66e53e36"
          },
          {
            "reference": "urn:uuid:1eec0994-9184-4d99-90c7-ef10e04d4b76"
          },
          {
            "reference": "urn:uuid:6d6da077-4cdc-4630-b553-6f429e4d1ac9"
          },
          {
            "reference": "urn:uuid:c92fbdf9-62a7-4de8-9d37-2d4d480515eb"
          },
          {
            "reference": "urn:uuid:62a04bd1-1d06-4649-8b04-ab1e30fc8a88"
          },
          {
            "reference": "urn:uuid:81471b6f-9ec2-4c6e-a1d2-6a4675343adc"
          },
          {
            "reference": "urn:uuid:8ac69f69-98d0-4ac9-acfb-2e627c630683"
          },
          {
            "reference": "urn:uuid:c1b88fe9-1127-460b-bc6c-3441069b09c5"
          },
          {
            "reference": "urn:uuid:a8476425-c0ea-42a3-8d8e-f85615cf3743"
          }
        ],
        "status": "registered",
        "code": {
          "coding": [
            {
              "code": "11502-2",
              "system": "http://loinc.org",
              "display": "Laboratory report"
            }
          ]
        },
        "subject": {
          "reference": "urn:uuid:27aa1732-9704-43b2-9a39-b0f93a9b1476",
          "display": "Victor Lagarde"
        }
      }
    },
    {
      "fullUrl": "urn:uuid:27aa1732-9704-43b2-9a39-b0f93a9b1476",
      "resource": {
        "resourceType": "Patient",
        "id": "27aa1732-9704-43b2-9a39-b0f93a9b1476",
        "meta": {
          "security": [
            {
              "system": "http://terminology.hl7.org/CodeSystem/v3-ActReason",
              "code": "HTEST"
            },
            {
              "system": "http://terminology.hl7.org/CodeSystem/v3-ActReason",
              "code": "TRAIN"
            }
          ],
          "tag": [
            {
              "system": "https://synderai.net/fhir/CodeSystem/tags",
              "code": "synthetic",
              "display": "SYNDERAI Synthetic data"
            }
          ],
          "profile": [
            "http://hl7.eu/fhir/base/StructureDefinition/patient-eu-core"
          ]
        },
        "identifier": [
          {
            "type": {
              "coding": [
                {
                  "code": "PT",
                  "system": "http://terminology.hl7.org/CodeSystem/v2-0203"
                }
              ]
            },
            "system": "http://ec.europa.eu/identifier/eci",
            "value": "9925-001801-9"
          },
          {
            "type": {
              "coding": [
                {
                  "code": "MR",
                  "system": "http://terminology.hl7.org/CodeSystem/v2-0203"
                }
              ]
            },
            "system": "http://local.setting.eu/identifier",
            "value": "22c2dfd0-ac57-8833-2532-848f180896a4"
          }
        ],
        "name": [
          {
            "family": "Lagarde"
          },
          {
            "given": [
              "Victor"
            ]
          },
          {
            "text": "Victor Lagarde"
          }
        ],
        "address": [
          {
            "line": [
              "avenue Robert"
            ],
            "use": "home",
            "type": "physical",
            "postalCode": "80300",
            "city": "Albert",
            "country": "France"
          }
        ],
        "telecom": [
          {
            "system": "phone",
            "value": "0177941801"
          }
        ],
        "extension": [
          {
            "url": "http://hl7.org/fhir/StructureDefinition/patient-nationality",
            "valueCodeableConcept": {
              "coding": [
                {
                  "code": "FR",
                  "system": "http://hl7.org/fhir/ValueSet/country"
                }
              ]
            }
          }
        ],
        "text": {
          "status": "generated",
          "div": "<div xmlns=\"http://www.w3.org/1999/xhtml\"><table class=\"hl7__ips\"><tr><td>Victor Lagarde</td><td>male</td><td>31-Aug-1939</td></tr></table></div>"
        },
        "gender": "male",
        "birthDate": "1939-08-31"
      }
    },
    {
      "fullUrl": "urn:uuid:09e3a569-6c29-46ac-b9c2-19320e7dc365",
      "resource": {
        "resourceType": "ServiceRequest",
        "id": "09e3a569-6c29-46ac-b9c2-19320e7dc365",
        "meta": {
          "profile": [
            "http://hl7.eu/fhir/laboratory/StructureDefinition/ServiceRequest-eu-lab"
          ]
        },
        "identifier": [
          {
            "system": "http://example.org",
            "value": "7312bae0-f188-46c8-bb27-e7289428cd9f"
          }
        ],
        "specimen": [
          {
            "reference": "urn:uuid:d571a79b-326d-4e75-8a63-0af10b3919c9"
          },
          {
            "reference": "urn:uuid:74a752c6-cd8f-4321-8553-306c42ed35e6"
          },
          {
            "reference": "urn:uuid:a559e76e-1270-44d7-a582-dee2de27124c"
          }
        ],
        "reasonCode": [
          {
            "coding": [
              {
                "code": "433144002",
                "system": "http://snomed.info/sct",
                "display": "Chronic kidney disease stage 3"
              }
            ]
          },
          {
            "coding": [
              {
                "code": "157141000119108",
                "system": "http://snomed.info/sct",
                "display": "Proteinuria due to type 2 diabetes mellitus"
              }
            ]
          },
          {
            "coding": [
              {
                "code": "431856006",
                "system": "http://snomed.info/sct",
                "display": "Chronic kidney disease stage 2"
              }
            ]
          },
          {
            "coding": [
              {
                "code": "90781000119102",
                "system": "http://snomed.info/sct",
                "display": "Microalbuminuria due to type 2 diabetes mellitus"
              }
            ]
          },
          {
            "coding": [
              {
                "code": "127013003",
                "system": "http://snomed.info/sct",
                "display": "Disorder of kidney due to diabetes mellitus"
              }
            ]
          },
          {
            "coding": [
              {
                "code": "431855005",
                "system": "http://snomed.info/sct",
                "display": "Chronic kidney disease stage 1"
              }
            ]
          },
          {
            "coding": [
              {
                "code": "55822004",
                "system": "http://snomed.info/sct",
                "display": "Hyperlipidemia"
              }
            ]
          },
          {
            "coding": [
              {
                "code": "59621000",
                "system": "http://snomed.info/sct",
                "display": "Essential hypertension"
              }
            ]
          },
          {
            "coding": [
              {
                "code": "237602007",
                "system": "http://snomed.info/sct",
                "display": "Metabolic syndrome X"
              }
            ]
          },
          {
            "coding": [
              {
                "code": "414545008",
                "system": "http://snomed.info/sct",
                "display": "Ischemic heart disease"
              }
            ]
          },
          {
            "coding": [
              {
                "code": "40055000",
                "system": "http://snomed.info/sct",
                "display": "Chronic sinusitis"
              }
            ]
          },
          {
            "coding": [
              {
                "code": "15777000",
                "system": "http://snomed.info/sct",
                "display": "Prediabetes"
              }
            ]
          },
          {
            "coding": [
              {
                "code": "271737000",
                "system": "http://snomed.info/sct",
                "display": "Anemia"
              }
            ]
          }
        ],
        "status": "active",
        "intent": "order",
        "code": {
          "coding": [
            {
              "code": "108252007",
              "system": "http://snomed.info/sct",
              "display": "Laboratory procedure"
            }
          ]
        },
        "subject": {
          "reference": "urn:uuid:27aa1732-9704-43b2-9a39-b0f93a9b1476",
          "display": "Victor Lagarde"
        },
        "requester": {
          "reference": "urn:uuid:29cef18b-1c7a-46a5-b65a-b2168c286338"
        }
      }
    },
    {
      "fullUrl": "urn:uuid:29cef18b-1c7a-46a5-b65a-b2168c286338",
      "resource": {
        "resourceType": "PractitionerRole",
        "id": "29cef18b-1c7a-46a5-b65a-b2168c286338",
        "meta": {
          "profile": [
            "http://hl7.eu/fhir/base/StructureDefinition/practitionerRole-eu"
          ]
        },
        "text": {
          "status": "generated",
          "div": "<div xmlns=\"http://www.w3.org/1999/xhtml\">Provider Role Id: 29cef18b-1c7a-46a5-b65a-b2168c286338</div>"
        },
        "organization": {
          "reference": "urn:uuid:c8c14081-820f-4682-896d-f2b56990c974"
        }
      }
    },
    {
      "fullUrl": "urn:uuid:c8c14081-820f-4682-896d-f2b56990c974",
      "resource": {
        "resourceType": "Organization",
        "id": "c8c14081-820f-4682-896d-f2b56990c974",
        "meta": {
          "profile": [
            "http://hl7.eu/fhir/base/StructureDefinition/organization-eu"
          ]
        },
        "identifier": [
          {
            "assigner": {
              "display": "HL7 Europe"
            },
            "system": "urn:oid:2.16.840.1.113883.2.51.999",
            "value": "56e0e4a2-6074-45e4-9abb-0e3fbe695da0"
          }
        ],
        "address": [
          {
            "city": "Auxerre",
            "postalCode": "89000",
            "country": "France"
          }
        ],
        "text": {
          "status": "generated",
          "div": "<div xmlns=\"http://www.w3.org/1999/xhtml\">Provider Organization: Thiriot Didier (Cardiologie)</div>"
        },
        "name": "Thiriot Didier (Cardiologie)"
      }
    },
    {
      "fullUrl": "urn:uuid:d571a79b-326d-4e75-8a63-0af10b3919c9",
      "resource": {
        "resourceType": "Specimen",
        "id": "d571a79b-326d-4e75-8a63-0af10b3919c9",
        "meta": {
          "profile": [
            "http://hl7.eu/fhir/laboratory/StructureDefinition/Specimen-eu-lab"
          ]
        },
        "collection": {
          "collectedDateTime": "2017-06-23"
        },
        "text": {
          "status": "generated",
          "div": "<div xmlns=\"http://www.w3.org/1999/xhtml\"><table class=\"hl7__eu__lab__report\"><tr><th>Specimen</th><th>Collection Date</th></tr><tr><td>Acellular blood (serum or plasma) specimen</td><td><span class=\"nb\">23-Jun-2017</span></td></tr></table></div>"
        },
        "type": {
          "coding": [
            {
              "code": "122592007",
              "system": "http://snomed.info/sct",
              "display": "Acellular blood (serum or plasma) specimen"
            }
          ]
        }
      }
    },
    {
      "fullUrl": "urn:uuid:74a752c6-cd8f-4321-8553-306c42ed35e6",
      "resource": {
        "resourceType": "Specimen",
        "id": "74a752c6-cd8f-4321-8553-306c42ed35e6",
        "meta": {
          "profile": [
            "http://hl7.eu/fhir/laboratory/StructureDefinition/Specimen-eu-lab"
          ]
        },
        "collection": {
          "collectedDateTime": "2017-06-23"
        },
        "text": {
          "status": "generated",
          "div": "<div xmlns=\"http://www.w3.org/1999/xhtml\"><table class=\"hl7__eu__lab__report\"><tr><th>Specimen</th><th>Collection Date</th></tr><tr><td>Urine specimen</td><td><span class=\"nb\">23-Jun-2017</span></td></tr></table></div>"
        },
        "type": {
          "coding": [
            {
              "code": "122575003",
              "system": "http://snomed.info/sct",
              "display": "Urine specimen"
            }
          ]
        }
      }
    },
    {
      "fullUrl": "urn:uuid:a559e76e-1270-44d7-a582-dee2de27124c",
      "resource": {
        "resourceType": "Specimen",
        "id": "a559e76e-1270-44d7-a582-dee2de27124c",
        "meta": {
          "profile": [
            "http://hl7.eu/fhir/laboratory/StructureDefinition/Specimen-eu-lab"
          ]
        },
        "collection": {
          "collectedDateTime": "2017-06-23"
        },
        "text": {
          "status": "generated",
          "div": "<div xmlns=\"http://www.w3.org/1999/xhtml\"><table class=\"hl7__eu__lab__report\"><tr><th>Specimen</th><th>Collection Date</th></tr><tr><td>Whole blood specimen (specimen)</td><td><span class=\"nb\">23-Jun-2017</span></td></tr></table></div>"
        },
        "type": {
          "coding": [
            {
              "code": "258580003",
              "system": "http://snomed.info/sct",
              "display": "Whole blood specimen (specimen)"
            }
          ]
        }
      }
    },
    {
      "fullUrl": "urn:uuid:1a63c617-4c76-4ef3-a377-800294d77a0c",
      "resource": {
        "resourceType": "Observation",
        "id": "1a63c617-4c76-4ef3-a377-800294d77a0c",
        "meta": {
          "profile": [
            "http://hl7.eu/fhir/laboratory/StructureDefinition/Observation-resultslab-eu-lab"
          ]
        },
        "performer": [
          {
            "display": "The Central European Lab"
          }
        ],
        "category": [
          {
            "coding": [
              {
                "system": "http://terminology.hl7.org/CodeSystem/observation-category",
                "code": "laboratory"
              }
            ]
          }
        ],
        "code": {
          "coding": [
            {
              "code": "2345-7",
              "system": "http://loinc.org",
              "display": "Glucose [Mass/volume] in Serum or Plasma"
            }
          ],
          "text": "Glucose [Mass/volume] in Serum or Plasma"
        },
        "valueQuantity": {
          "system": "http://unitsofmeasure.org",
          "value": 95.5,
          "unit": "mg/dL",
          "code": "mg/dL"
        },
        "referenceRange": [
          {
            "low": {
              "value": 70,
              "code": "mg/dL",
              "system": "http://unitsofmeasure.org"
            }
          },
          {
            "high": {
              "value": 140,
              "code": "mg/dL",
              "system": "http://unitsofmeasure.org"
            }
          }
        ],
        "text": {
          "status": "generated",
          "div": "<div xmlns=\"http://www.w3.org/1999/xhtml\"><table class=\"hl7__eu__lab__report\"><tr><th>Test</th><th>23-Jun-2017</th><th>Reference&#xA0;Range</th><th>Unit</th></tr><tr><td>Glucose [Mass/volume] in Serum or Plasma</td><td>95.5</td><td>70 - 140</td><td></td><td>mg/dL</td></tr></table></div>"
        },
        "status": "final",
        "subject": {
          "reference": "urn:uuid:27aa1732-9704-43b2-9a39-b0f93a9b1476",
          "display": "Victor Lagarde"
        },
        "effectiveDateTime": "2017-06-23T04:48:18Z",
        "specimen": {
          "reference": "urn:uuid:d571a79b-326d-4e75-8a63-0af10b3919c9"
        }
      }
    },
    {
      "fullUrl": "urn:uuid:c0f02957-97f1-46c1-8104-2a41f39ec892",
      "resource": {
        "resourceType": "Observation",
        "id": "c0f02957-97f1-46c1-8104-2a41f39ec892",
        "meta": {
          "profile": [
            "http://hl7.eu/fhir/laboratory/StructureDefinition/Observation-resultslab-eu-lab"
          ]
        },
        "performer": [
          {
            "display": "The Central European Lab"
          }
        ],
        "category": [
          {
            "coding": [
              {
                "system": "http://terminology.hl7.org/CodeSystem/observation-category",
                "code": "laboratory"
              }
            ]
          }
        ],
        "code": {
          "coding": [
            {
              "code": "3094-0",
              "system": "http://loinc.org",
              "display": "Urea nitrogen [Mass/volume] in Serum or Plasma"
            }
          ],
          "text": "Urea nitrogen [Mass/volume] in Serum or Plasma"
        },
        "valueQuantity": {
          "system": "http://unitsofmeasure.org",
          "value": 12.3,
          "unit": "mg/dL",
          "code": "mg/dL"
        },
        "referenceRange": [
          {
            "low": {
              "value": 7,
              "code": "mg/dL",
              "system": "http://unitsofmeasure.org"
            }
          },
          {
            "high": {
              "value": 20,
              "code": "mg/dL",
              "system": "http://unitsofmeasure.org"
            }
          }
        ],
        "text": {
          "status": "generated",
          "div": "<div xmlns=\"http://www.w3.org/1999/xhtml\"><table class=\"hl7__eu__lab__report\"><tr><th>Test</th><th>23-Jun-2017</th><th>Reference&#xA0;Range</th><th>Unit</th></tr><tr><td>Urea nitrogen [Mass/volume] in Serum or Plasma</td><td>12.3</td><td>7 - 20</td><td></td><td>mg/dL</td></tr></table></div>"
        },
        "status": "final",
        "subject": {
          "reference": "urn:uuid:27aa1732-9704-43b2-9a39-b0f93a9b1476",
          "display": "Victor Lagarde"
        },
        "effectiveDateTime": "2017-06-23T04:48:18Z",
        "specimen": {
          "reference": "urn:uuid:d571a79b-326d-4e75-8a63-0af10b3919c9"
        }
      }
    },
    {
      "fullUrl": "urn:uuid:f925f894-a6f2-4865-9176-e332e519ea8a",
      "resource": {
        "resourceType": "Observation",
        "id": "f925f894-a6f2-4865-9176-e332e519ea8a",
        "meta": {
          "profile": [
            "http://hl7.eu/fhir/laboratory/StructureDefinition/Observation-resultslab-eu-lab"
          ]
        },
        "performer": [
          {
            "display": "The Central European Lab"
          }
        ],
        "category": [
          {
            "coding": [
              {
                "system": "http://terminology.hl7.org/CodeSystem/observation-category",
                "code": "laboratory"
              }
            ]
          }
        ],
        "code": {
          "coding": [
            {
              "code": "2160-0",
              "system": "http://loinc.org",
              "display": "Creatinine [Mass/volume] in Serum or Plasma"
            }
          ],
          "text": "Creatinine [Mass/volume] in Serum or Plasma"
        },
        "valueQuantity": {
          "system": "http://unitsofmeasure.org",
          "value": 1.9,
          "unit": "mg/dL",
          "code": "mg/dL"
        },
        "referenceRange": [
          {
            "low": {
              "value": 0.9,
              "code": "mg/dL",
              "system": "http://unitsofmeasure.org"
            }
          },
          {
            "high": {
              "value": 1.3,
              "code": "mg/dL",
              "system": "http://unitsofmeasure.org"
            }
          }
        ],
        "interpretation": [
          {
            "coding": [
              {
                "code": "H",
                "system": "http://terminology.hl7.org/CodeSystem/v3-ObservationInterpretation",
                "display": "High"
              }
            ]
          }
        ],
        "text": {
          "status": "generated",
          "div": "<div xmlns=\"http://www.w3.org/1999/xhtml\"><table class=\"hl7__eu__lab__report\"><tr><th>Test</th><th>23-Jun-2017</th><th>Reference&#xA0;Range</th><th>Unit</th></tr><tr><td>Creatinine [Mass/volume] in Serum or Plasma</td><td>1.9</td><td>0.9 - 1.3</td><td>H</td><td>mg/dL</td></tr></table></div>"
        },
        "status": "final",
        "subject": {
          "reference": "urn:uuid:27aa1732-9704-43b2-9a39-b0f93a9b1476",
          "display": "Victor Lagarde"
        },
        "effectiveDateTime": "2017-06-23T04:48:18Z",
        "specimen": {
          "reference": "urn:uuid:d571a79b-326d-4e75-8a63-0af10b3919c9"
        }
      }
    },
    {
      "fullUrl": "urn:uuid:e581a838-a439-439d-bc3f-89e0c7ff9e99",
      "resource": {
        "resourceType": "Observation",
        "id": "e581a838-a439-439d-bc3f-89e0c7ff9e99",
        "meta": {
          "profile": [
            "http://hl7.eu/fhir/laboratory/StructureDefinition/Observation-resultslab-eu-lab"
          ]
        },
        "performer": [
          {
            "display": "The Central European Lab"
          }
        ],
        "category": [
          {
            "coding": [
              {
                "system": "http://terminology.hl7.org/CodeSystem/observation-category",
                "code": "laboratory"
              }
            ]
          }
        ],
        "code": {
          "coding": [
            {
              "code": "17861-6",
              "system": "http://loinc.org",
              "display": "Calcium [Mass/volume] in Serum or Plasma"
            }
          ],
          "text": "Calcium [Mass/volume] in Serum or Plasma"
        },
        "valueQuantity": {
          "system": "http://unitsofmeasure.org",
          "value": 8.9,
          "unit": "mg/dL",
          "code": "mg/dL"
        },
        "referenceRange": [
          {
            "low": {
              "value": 8.5,
              "code": "mg/dL",
              "system": "http://unitsofmeasure.org"
            }
          },
          {
            "high": {
              "value": 10.5,
              "code": "mg/dL",
              "system": "http://unitsofmeasure.org"
            }
          }
        ],
        "text": {
          "status": "generated",
          "div": "<div xmlns=\"http://www.w3.org/1999/xhtml\"><table class=\"hl7__eu__lab__report\"><tr><th>Test</th><th>23-Jun-2017</th><th>Reference&#xA0;Range</th><th>Unit</th></tr><tr><td>Calcium [Mass/volume] in Serum or Plasma</td><td>8.9</td><td>8.5 - 10.5</td><td></td><td>mg/dL</td></tr></table></div>"
        },
        "status": "final",
        "subject": {
          "reference": "urn:uuid:27aa1732-9704-43b2-9a39-b0f93a9b1476",
          "display": "Victor Lagarde"
        },
        "effectiveDateTime": "2017-06-23T04:48:18Z",
        "specimen": {
          "reference": "urn:uuid:d571a79b-326d-4e75-8a63-0af10b3919c9"
        }
      }
    },
    {
      "fullUrl": "urn:uuid:52ab2fbe-69d7-4feb-9fd5-ab8dee392c4b",
      "resource": {
        "resourceType": "Observation",
        "id": "52ab2fbe-69d7-4feb-9fd5-ab8dee392c4b",
        "meta": {
          "profile": [
            "http://hl7.eu/fhir/laboratory/StructureDefinition/Observation-resultslab-eu-lab"
          ]
        },
        "performer": [
          {
            "display": "The Central European Lab"
          }
        ],
        "category": [
          {
            "coding": [
              {
                "system": "http://terminology.hl7.org/CodeSystem/observation-category",
                "code": "laboratory"
              }
            ]
          }
        ],
        "code": {
          "coding": [
            {
              "code": "2951-2",
              "system": "http://loinc.org",
              "display": "Sodium [Moles/volume] in Serum or Plasma"
            }
          ],
          "text": "Sodium [Moles/volume] in Serum or Plasma"
        },
        "valueQuantity": {
          "system": "http://unitsofmeasure.org",
          "value": 138.3,
          "unit": "mmol/L",
          "code": "mmol/L"
        },
        "referenceRange": [
          {
            "low": {
              "value": 135,
              "code": "mmol/L",
              "system": "http://unitsofmeasure.org"
            }
          },
          {
            "high": {
              "value": 145,
              "code": "mmol/L",
              "system": "http://unitsofmeasure.org"
            }
          }
        ],
        "text": {
          "status": "generated",
          "div": "<div xmlns=\"http://www.w3.org/1999/xhtml\"><table class=\"hl7__eu__lab__report\"><tr><th>Test</th><th>23-Jun-2017</th><th>Reference&#xA0;Range</th><th>Unit</th></tr><tr><td>Sodium [Moles/volume] in Serum or Plasma</td><td>138.3</td><td>135 - 145</td><td></td><td>mmol/L</td></tr></table></div>"
        },
        "status": "final",
        "subject": {
          "reference": "urn:uuid:27aa1732-9704-43b2-9a39-b0f93a9b1476",
          "display": "Victor Lagarde"
        },
        "effectiveDateTime": "2017-06-23T04:48:18Z",
        "specimen": {
          "reference": "urn:uuid:d571a79b-326d-4e75-8a63-0af10b3919c9"
        }
      }
    },
    {
      "fullUrl": "urn:uuid:0bb6c3a3-23e2-4301-8d90-331ff694184e",
      "resource": {
        "resourceType": "Observation",
        "id": "0bb6c3a3-23e2-4301-8d90-331ff694184e",
        "meta": {
          "profile": [
            "http://hl7.eu/fhir/laboratory/StructureDefinition/Observation-resultslab-eu-lab"
          ]
        },
        "performer": [
          {
            "display": "The Central European Lab"
          }
        ],
        "category": [
          {
            "coding": [
              {
                "system": "http://terminology.hl7.org/CodeSystem/observation-category",
                "code": "laboratory"
              }
            ]
          }
        ],
        "code": {
          "coding": [
            {
              "code": "2823-3",
              "system": "http://loinc.org",
              "display": "Potassium [Moles/volume] in Serum or Plasma"
            }
          ],
          "text": "Potassium [Moles/volume] in Serum or Plasma"
        },
        "valueQuantity": {
          "system": "http://unitsofmeasure.org",
          "value": 4.4,
          "unit": "mmol/L",
          "code": "mmol/L"
        },
        "referenceRange": [
          {
            "low": {
              "value": 3.5,
              "code": "mmol/L",
              "system": "http://unitsofmeasure.org"
            }
          },
          {
            "high": {
              "value": 5.3,
              "code": "mmol/L",
              "system": "http://unitsofmeasure.org"
            }
          }
        ],
        "text": {
          "status": "generated",
          "div": "<div xmlns=\"http://www.w3.org/1999/xhtml\"><table class=\"hl7__eu__lab__report\"><tr><th>Test</th><th>23-Jun-2017</th><th>Reference&#xA0;Range</th><th>Unit</th></tr><tr><td>Potassium [Moles/volume] in Serum or Plasma</td><td>4.4</td><td>3.5 - 5.3</td><td></td><td>mmol/L</td></tr></table></div>"
        },
        "status": "final",
        "subject": {
          "reference": "urn:uuid:27aa1732-9704-43b2-9a39-b0f93a9b1476",
          "display": "Victor Lagarde"
        },
        "effectiveDateTime": "2017-06-23T04:48:18Z",
        "specimen": {
          "reference": "urn:uuid:d571a79b-326d-4e75-8a63-0af10b3919c9"
        }
      }
    },
    {
      "fullUrl": "urn:uuid:29f4b305-99c6-4d59-b8a7-a5ef900105cc",
      "resource": {
        "resourceType": "Observation",
        "id": "29f4b305-99c6-4d59-b8a7-a5ef900105cc",
        "meta": {
          "profile": [
            "http://hl7.eu/fhir/laboratory/StructureDefinition/Observation-resultslab-eu-lab"
          ]
        },
        "performer": [
          {
            "display": "The Central European Lab"
          }
        ],
        "category": [
          {
            "coding": [
              {
                "system": "http://terminology.hl7.org/CodeSystem/observation-category",
                "code": "laboratory"
              }
            ]
          }
        ],
        "code": {
          "coding": [
            {
              "code": "2075-0",
              "system": "http://loinc.org",
              "display": "Chloride [Moles/volume] in Serum or Plasma"
            }
          ],
          "text": "Chloride [Moles/volume] in Serum or Plasma"
        },
        "valueQuantity": {
          "system": "http://unitsofmeasure.org",
          "value": 109.5,
          "unit": "mmol/L",
          "code": "mmol/L"
        },
        "referenceRange": [
          {
            "low": {
              "value": 98,
              "code": "mmol/L",
              "system": "http://unitsofmeasure.org"
            }
          },
          {
            "high": {
              "value": 107,
              "code": "mmol/L",
              "system": "http://unitsofmeasure.org"
            }
          }
        ],
        "interpretation": [
          {
            "coding": [
              {
                "code": "H",
                "system": "http://terminology.hl7.org/CodeSystem/v3-ObservationInterpretation",
                "display": "High"
              }
            ]
          }
        ],
        "text": {
          "status": "generated",
          "div": "<div xmlns=\"http://www.w3.org/1999/xhtml\"><table class=\"hl7__eu__lab__report\"><tr><th>Test</th><th>23-Jun-2017</th><th>Reference&#xA0;Range</th><th>Unit</th></tr><tr><td>Chloride [Moles/volume] in Serum or Plasma</td><td>109.5</td><td>98 - 107</td><td>H</td><td>mmol/L</td></tr></table></div>"
        },
        "status": "final",
        "subject": {
          "reference": "urn:uuid:27aa1732-9704-43b2-9a39-b0f93a9b1476",
          "display": "Victor Lagarde"
        },
        "effectiveDateTime": "2017-06-23T04:48:18Z",
        "specimen": {
          "reference": "urn:uuid:d571a79b-326d-4e75-8a63-0af10b3919c9"
        }
      }
    },
    {
      "fullUrl": "urn:uuid:02a8e887-0602-4a80-bff7-8c6a321cf7a1",
      "resource": {
        "resourceType": "Observation",
        "id": "02a8e887-0602-4a80-bff7-8c6a321cf7a1",
        "meta": {
          "profile": [
            "http://hl7.eu/fhir/laboratory/StructureDefinition/Observation-resultslab-eu-lab"
          ]
        },
        "performer": [
          {
            "display": "The Central European Lab"
          }
        ],
        "category": [
          {
            "coding": [
              {
                "system": "http://terminology.hl7.org/CodeSystem/observation-category",
                "code": "laboratory"
              }
            ]
          }
        ],
        "code": {
          "coding": [
            {
              "code": "2028-9",
              "system": "http://loinc.org",
              "display": "Carbon dioxide, total [Moles/volume] in Serum or Plasma"
            }
          ],
          "text": "Carbon dioxide, total [Moles/volume] in Serum or Plasma"
        },
        "valueQuantity": {
          "system": "http://unitsofmeasure.org",
          "value": 25.7,
          "unit": "mmol/L",
          "code": "mmol/L"
        },
        "referenceRange": [
          {
            "low": {
              "value": 22,
              "code": "mmol/L",
              "system": "http://unitsofmeasure.org"
            }
          },
          {
            "high": {
              "value": 33,
              "code": "mmol/L",
              "system": "http://unitsofmeasure.org"
            }
          }
        ],
        "text": {
          "status": "generated",
          "div": "<div xmlns=\"http://www.w3.org/1999/xhtml\"><table class=\"hl7__eu__lab__report\"><tr><th>Test</th><th>23-Jun-2017</th><th>Reference&#xA0;Range</th><th>Unit</th></tr><tr><td>Carbon dioxide, total [Moles/volume] in Serum or Plasma</td><td>25.7</td><td>22 - 33</td><td></td><td>mmol/L</td></tr></table></div>"
        },
        "status": "final",
        "subject": {
          "reference": "urn:uuid:27aa1732-9704-43b2-9a39-b0f93a9b1476",
          "display": "Victor Lagarde"
        },
        "effectiveDateTime": "2017-06-23T04:48:18Z",
        "specimen": {
          "reference": "urn:uuid:d571a79b-326d-4e75-8a63-0af10b3919c9"
        }
      }
    },
    {
      "fullUrl": "urn:uuid:47eb64d1-b939-46c5-87f6-ae66c49e8803",
      "resource": {
        "resourceType": "Observation",
        "id": "47eb64d1-b939-46c5-87f6-ae66c49e8803",
        "meta": {
          "profile": [
            "http://hl7.eu/fhir/laboratory/StructureDefinition/Observation-resultslab-eu-lab"
          ]
        },
        "performer": [
          {
            "display": "The Central European Lab"
          }
        ],
        "category": [
          {
            "coding": [
              {
                "system": "http://terminology.hl7.org/CodeSystem/observation-category",
                "code": "laboratory"
              }
            ]
          }
        ],
        "code": {
          "coding": [
            {
              "code": "5767-9",
              "system": "http://loinc.org",
              "display": "Appearance of Urine"
            }
          ],
          "text": "Appearance of Urine"
        },
        "text": {
          "status": "generated",
          "div": "<div xmlns=\"http://www.w3.org/1999/xhtml\"><table class=\"hl7__eu__lab__report\"><tr><th>Test</th><th>23-Jun-2017</th><th>Reference&#xA0;Range</th><th>Unit</th></tr><tr><td>Appearance of Urine</td></tr></table></div>"
        },
        "status": "final",
        "subject": {
          "reference": "urn:uuid:27aa1732-9704-43b2-9a39-b0f93a9b1476",
          "display": "Victor Lagarde"
        },
        "effectiveDateTime": "2017-06-23T04:48:18Z",
        "specimen": {
          "reference": "urn:uuid:74a752c6-cd8f-4321-8553-306c42ed35e6"
        }
      }
    },
    {
      "fullUrl": "urn:uuid:40593dc5-6061-4431-b929-fd0d107070bc",
      "resource": {
        "resourceType": "Observation",
        "id": "40593dc5-6061-4431-b929-fd0d107070bc",
        "meta": {
          "profile": [
            "http://hl7.eu/fhir/laboratory/StructureDefinition/Observation-resultslab-eu-lab"
          ]
        },
        "performer": [
          {
            "display": "The Central European Lab"
          }
        ],
        "category": [
          {
            "coding": [
              {
                "system": "http://terminology.hl7.org/CodeSystem/observation-category",
                "code": "laboratory"
              }
            ]
          }
        ],
        "code": {
          "coding": [
            {
              "code": "34533-0",
              "system": "http://loinc.org",
              "display": "Odor of Urine"
            }
          ],
          "text": "Odor of Urine"
        },
        "text": {
          "status": "generated",
          "div": "<div xmlns=\"http://www.w3.org/1999/xhtml\"><table class=\"hl7__eu__lab__report\"><tr><th>Test</th><th>23-Jun-2017</th><th>Reference&#xA0;Range</th><th>Unit</th></tr><tr><td>Odor of Urine</td></tr></table></div>"
        },
        "status": "final",
        "subject": {
          "reference": "urn:uuid:27aa1732-9704-43b2-9a39-b0f93a9b1476",
          "display": "Victor Lagarde"
        },
        "effectiveDateTime": "2017-06-23T04:48:18Z",
        "specimen": {
          "reference": "urn:uuid:74a752c6-cd8f-4321-8553-306c42ed35e6"
        }
      }
    },
    {
      "fullUrl": "urn:uuid:6f4384b3-cbf8-4d13-bd3e-1b568828bd6c",
      "resource": {
        "resourceType": "Observation",
        "id": "6f4384b3-cbf8-4d13-bd3e-1b568828bd6c",
        "meta": {
          "profile": [
            "http://hl7.eu/fhir/laboratory/StructureDefinition/Observation-resultslab-eu-lab"
          ]
        },
        "performer": [
          {
            "display": "The Central European Lab"
          }
        ],
        "category": [
          {
            "coding": [
              {
                "system": "http://terminology.hl7.org/CodeSystem/observation-category",
                "code": "laboratory"
              }
            ]
          }
        ],
        "code": {
          "coding": [
            {
              "code": "32167-9",
              "system": "http://loinc.org",
              "display": "Clarity of Urine"
            }
          ],
          "text": "Clarity of Urine"
        },
        "text": {
          "status": "generated",
          "div": "<div xmlns=\"http://www.w3.org/1999/xhtml\"><table class=\"hl7__eu__lab__report\"><tr><th>Test</th><th>23-Jun-2017</th><th>Reference&#xA0;Range</th><th>Unit</th></tr><tr><td>Clarity of Urine</td></tr></table></div>"
        },
        "status": "final",
        "subject": {
          "reference": "urn:uuid:27aa1732-9704-43b2-9a39-b0f93a9b1476",
          "display": "Victor Lagarde"
        },
        "effectiveDateTime": "2017-06-23T04:48:18Z",
        "specimen": {
          "reference": "urn:uuid:74a752c6-cd8f-4321-8553-306c42ed35e6"
        }
      }
    },
    {
      "fullUrl": "urn:uuid:da85e4e9-cc4d-46b9-b67d-59bd6f722611",
      "resource": {
        "resourceType": "Observation",
        "id": "da85e4e9-cc4d-46b9-b67d-59bd6f722611",
        "meta": {
          "profile": [
            "http://hl7.eu/fhir/laboratory/StructureDefinition/Observation-resultslab-eu-lab"
          ]
        },
        "performer": [
          {
            "display": "The Central European Lab"
          }
        ],
        "category": [
          {
            "coding": [
              {
                "system": "http://terminology.hl7.org/CodeSystem/observation-category",
                "code": "laboratory"
              }
            ]
          }
        ],
        "code": {
          "coding": [
            {
              "code": "5778-6",
              "system": "http://loinc.org",
              "display": "Color of Urine"
            }
          ],
          "text": "Color of Urine"
        },
        "text": {
          "status": "generated",
          "div": "<div xmlns=\"http://www.w3.org/1999/xhtml\"><table class=\"hl7__eu__lab__report\"><tr><th>Test</th><th>23-Jun-2017</th><th>Reference&#xA0;Range</th><th>Unit</th></tr><tr><td>Color of Urine</td></tr></table></div>"
        },
        "status": "final",
        "subject": {
          "reference": "urn:uuid:27aa1732-9704-43b2-9a39-b0f93a9b1476",
          "display": "Victor Lagarde"
        },
        "effectiveDateTime": "2017-06-23T04:48:18Z",
        "specimen": {
          "reference": "urn:uuid:74a752c6-cd8f-4321-8553-306c42ed35e6"
        }
      }
    },
    {
      "fullUrl": "urn:uuid:1c8203d5-38f4-4789-af74-d0c29f30c322",
      "resource": {
        "resourceType": "Observation",
        "id": "1c8203d5-38f4-4789-af74-d0c29f30c322",
        "meta": {
          "profile": [
            "http://hl7.eu/fhir/laboratory/StructureDefinition/Observation-resultslab-eu-lab"
          ]
        },
        "performer": [
          {
            "display": "The Central European Lab"
          }
        ],
        "category": [
          {
            "coding": [
              {
                "system": "http://terminology.hl7.org/CodeSystem/observation-category",
                "code": "laboratory"
              }
            ]
          }
        ],
        "code": {
          "coding": [
            {
              "code": "5792-7",
              "system": "http://loinc.org",
              "display": "Glucose [Mass/volume] in Urine by Test strip"
            }
          ],
          "text": "Glucose [Mass/volume] in Urine by Test strip"
        },
        "valueQuantity": {
          "system": "http://unitsofmeasure.org",
          "value": 1.3,
          "unit": "mg/dL",
          "code": "mg/dL"
        },
        "referenceRange": [
          {
            "low": {
              "value": 0,
              "code": "mg/dL",
              "system": "http://unitsofmeasure.org"
            }
          },
          {
            "high": {
              "value": 0.8,
              "code": "mg/dL",
              "system": "http://unitsofmeasure.org"
            }
          }
        ],
        "interpretation": [
          {
            "coding": [
              {
                "code": "H",
                "system": "http://terminology.hl7.org/CodeSystem/v3-ObservationInterpretation",
                "display": "High"
              }
            ]
          }
        ],
        "text": {
          "status": "generated",
          "div": "<div xmlns=\"http://www.w3.org/1999/xhtml\"><table class=\"hl7__eu__lab__report\"><tr><th>Test</th><th>23-Jun-2017</th><th>Reference&#xA0;Range</th><th>Unit</th></tr><tr><td>Glucose [Mass/volume] in Urine by Test strip</td><td>1.3</td><td>0 - 0.8</td><td>H</td><td>mg/dL</td></tr></table></div>"
        },
        "status": "final",
        "subject": {
          "reference": "urn:uuid:27aa1732-9704-43b2-9a39-b0f93a9b1476",
          "display": "Victor Lagarde"
        },
        "effectiveDateTime": "2017-06-23T04:48:18Z",
        "specimen": {
          "reference": "urn:uuid:74a752c6-cd8f-4321-8553-306c42ed35e6"
        }
      }
    },
    {
      "fullUrl": "urn:uuid:3c4313f3-d6aa-4a2e-8c72-61382aa93e58",
      "resource": {
        "resourceType": "Observation",
        "id": "3c4313f3-d6aa-4a2e-8c72-61382aa93e58",
        "meta": {
          "profile": [
            "http://hl7.eu/fhir/laboratory/StructureDefinition/Observation-resultslab-eu-lab"
          ]
        },
        "performer": [
          {
            "display": "The Central European Lab"
          }
        ],
        "category": [
          {
            "coding": [
              {
                "system": "http://terminology.hl7.org/CodeSystem/observation-category",
                "code": "laboratory"
              }
            ]
          }
        ],
        "code": {
          "coding": [
            {
              "code": "25428-4",
              "system": "http://loinc.org",
              "display": "Glucose [Presence] in Urine by Test strip"
            }
          ],
          "text": "Glucose [Presence] in Urine by Test strip"
        },
        "text": {
          "status": "generated",
          "div": "<div xmlns=\"http://www.w3.org/1999/xhtml\"><table class=\"hl7__eu__lab__report\"><tr><th>Test</th><th>23-Jun-2017</th><th>Reference&#xA0;Range</th><th>Unit</th></tr><tr><td>Glucose [Presence] in Urine by Test strip</td></tr></table></div>"
        },
        "status": "final",
        "subject": {
          "reference": "urn:uuid:27aa1732-9704-43b2-9a39-b0f93a9b1476",
          "display": "Victor Lagarde"
        },
        "effectiveDateTime": "2017-06-23T04:48:18Z",
        "specimen": {
          "reference": "urn:uuid:74a752c6-cd8f-4321-8553-306c42ed35e6"
        }
      }
    },
    {
      "fullUrl": "urn:uuid:f09857e1-7760-4120-92c9-febae16b73a5",
      "resource": {
        "resourceType": "Observation",
        "id": "f09857e1-7760-4120-92c9-febae16b73a5",
        "meta": {
          "profile": [
            "http://hl7.eu/fhir/laboratory/StructureDefinition/Observation-resultslab-eu-lab"
          ]
        },
        "performer": [
          {
            "display": "The Central European Lab"
          }
        ],
        "category": [
          {
            "coding": [
              {
                "system": "http://terminology.hl7.org/CodeSystem/observation-category",
                "code": "laboratory"
              }
            ]
          }
        ],
        "code": {
          "coding": [
            {
              "code": "20505-4",
              "system": "http://loinc.org",
              "display": "Bilirubin.total [Mass/volume] in Urine by Test strip"
            }
          ],
          "text": "Bilirubin.total [Mass/volume] in Urine by Test strip"
        },
        "valueQuantity": {
          "system": "http://unitsofmeasure.org",
          "value": 1,
          "unit": "mg/dL",
          "code": "mg/dL"
        },
        "referenceRange": [
          {
            "low": {
              "value": 0,
              "code": "mg/dL",
              "system": "http://unitsofmeasure.org"
            }
          },
          {
            "high": {
              "value": 1.9,
              "code": "mg/dL",
              "system": "http://unitsofmeasure.org"
            }
          }
        ],
        "text": {
          "status": "generated",
          "div": "<div xmlns=\"http://www.w3.org/1999/xhtml\"><table class=\"hl7__eu__lab__report\"><tr><th>Test</th><th>23-Jun-2017</th><th>Reference&#xA0;Range</th><th>Unit</th></tr><tr><td>Bilirubin.total [Mass/volume] in Urine by Test strip</td><td>1.0</td><td>0 - 1.9</td><td></td><td>mg/dL</td></tr></table></div>"
        },
        "status": "final",
        "subject": {
          "reference": "urn:uuid:27aa1732-9704-43b2-9a39-b0f93a9b1476",
          "display": "Victor Lagarde"
        },
        "effectiveDateTime": "2017-06-23T04:48:18Z",
        "specimen": {
          "reference": "urn:uuid:74a752c6-cd8f-4321-8553-306c42ed35e6"
        }
      }
    },
    {
      "fullUrl": "urn:uuid:510ba46c-a0f5-4121-8361-d5c50790deff",
      "resource": {
        "resourceType": "Observation",
        "id": "510ba46c-a0f5-4121-8361-d5c50790deff",
        "meta": {
          "profile": [
            "http://hl7.eu/fhir/laboratory/StructureDefinition/Observation-resultslab-eu-lab"
          ]
        },
        "performer": [
          {
            "display": "The Central European Lab"
          }
        ],
        "category": [
          {
            "coding": [
              {
                "system": "http://terminology.hl7.org/CodeSystem/observation-category",
                "code": "laboratory"
              }
            ]
          }
        ],
        "code": {
          "coding": [
            {
              "code": "5770-3",
              "system": "http://loinc.org",
              "display": "Bilirubin.total [Presence] in Urine by Test strip"
            }
          ],
          "text": "Bilirubin.total [Presence] in Urine by Test strip"
        },
        "text": {
          "status": "generated",
          "div": "<div xmlns=\"http://www.w3.org/1999/xhtml\"><table class=\"hl7__eu__lab__report\"><tr><th>Test</th><th>23-Jun-2017</th><th>Reference&#xA0;Range</th><th>Unit</th></tr><tr><td>Bilirubin.total [Presence] in Urine by Test strip</td></tr></table></div>"
        },
        "status": "final",
        "subject": {
          "reference": "urn:uuid:27aa1732-9704-43b2-9a39-b0f93a9b1476",
          "display": "Victor Lagarde"
        },
        "effectiveDateTime": "2017-06-23T04:48:18Z",
        "specimen": {
          "reference": "urn:uuid:74a752c6-cd8f-4321-8553-306c42ed35e6"
        }
      }
    },
    {
      "fullUrl": "urn:uuid:ba177e09-b8f8-488c-8751-62b34ac4101d",
      "resource": {
        "resourceType": "Observation",
        "id": "ba177e09-b8f8-488c-8751-62b34ac4101d",
        "meta": {
          "profile": [
            "http://hl7.eu/fhir/laboratory/StructureDefinition/Observation-resultslab-eu-lab"
          ]
        },
        "performer": [
          {
            "display": "The Central European Lab"
          }
        ],
        "category": [
          {
            "coding": [
              {
                "system": "http://terminology.hl7.org/CodeSystem/observation-category",
                "code": "laboratory"
              }
            ]
          }
        ],
        "code": {
          "coding": [
            {
              "code": "5797-6",
              "system": "http://loinc.org",
              "display": "Ketones [Mass/volume] in Urine by Test strip"
            }
          ],
          "text": "Ketones [Mass/volume] in Urine by Test strip"
        },
        "valueQuantity": {
          "system": "http://unitsofmeasure.org",
          "value": 4,
          "unit": "mg/dL",
          "code": "mg/dL"
        },
        "referenceRange": [
          {
            "low": {
              "value": 0,
              "code": "mg/dL",
              "system": "http://unitsofmeasure.org"
            }
          },
          {
            "high": {
              "value": 3,
              "code": "mg/dL",
              "system": "http://unitsofmeasure.org"
            }
          }
        ],
        "interpretation": [
          {
            "coding": [
              {
                "code": "H",
                "system": "http://terminology.hl7.org/CodeSystem/v3-ObservationInterpretation",
                "display": "High"
              }
            ]
          }
        ],
        "text": {
          "status": "generated",
          "div": "<div xmlns=\"http://www.w3.org/1999/xhtml\"><table class=\"hl7__eu__lab__report\"><tr><th>Test</th><th>23-Jun-2017</th><th>Reference&#xA0;Range</th><th>Unit</th></tr><tr><td>Ketones [Mass/volume] in Urine by Test strip</td><td>4.0</td><td>0 - 3</td><td>H</td><td>mg/dL</td></tr></table></div>"
        },
        "status": "final",
        "subject": {
          "reference": "urn:uuid:27aa1732-9704-43b2-9a39-b0f93a9b1476",
          "display": "Victor Lagarde"
        },
        "effectiveDateTime": "2017-06-23T04:48:18Z",
        "specimen": {
          "reference": "urn:uuid:74a752c6-cd8f-4321-8553-306c42ed35e6"
        }
      }
    },
    {
      "fullUrl": "urn:uuid:f1897733-0990-4556-a54e-01c5278f4361",
      "resource": {
        "resourceType": "Observation",
        "id": "f1897733-0990-4556-a54e-01c5278f4361",
        "meta": {
          "profile": [
            "http://hl7.eu/fhir/laboratory/StructureDefinition/Observation-resultslab-eu-lab"
          ]
        },
        "performer": [
          {
            "display": "The Central European Lab"
          }
        ],
        "category": [
          {
            "coding": [
              {
                "system": "http://terminology.hl7.org/CodeSystem/observation-category",
                "code": "laboratory"
              }
            ]
          }
        ],
        "code": {
          "coding": [
            {
              "code": "2514-8",
              "system": "http://loinc.org",
              "display": "Ketones [Presence] in Urine by Test strip"
            }
          ],
          "text": "Ketones [Presence] in Urine by Test strip"
        },
        "text": {
          "status": "generated",
          "div": "<div xmlns=\"http://www.w3.org/1999/xhtml\"><table class=\"hl7__eu__lab__report\"><tr><th>Test</th><th>23-Jun-2017</th><th>Reference&#xA0;Range</th><th>Unit</th></tr><tr><td>Ketones [Presence] in Urine by Test strip</td></tr></table></div>"
        },
        "status": "final",
        "subject": {
          "reference": "urn:uuid:27aa1732-9704-43b2-9a39-b0f93a9b1476",
          "display": "Victor Lagarde"
        },
        "effectiveDateTime": "2017-06-23T04:48:18Z",
        "specimen": {
          "reference": "urn:uuid:74a752c6-cd8f-4321-8553-306c42ed35e6"
        }
      }
    },
    {
      "fullUrl": "urn:uuid:66bf5a34-2168-4f24-9e38-fc6c818dd81b",
      "resource": {
        "resourceType": "Observation",
        "id": "66bf5a34-2168-4f24-9e38-fc6c818dd81b",
        "meta": {
          "profile": [
            "http://hl7.eu/fhir/laboratory/StructureDefinition/Observation-resultslab-eu-lab"
          ]
        },
        "performer": [
          {
            "display": "The Central European Lab"
          }
        ],
        "category": [
          {
            "coding": [
              {
                "system": "http://terminology.hl7.org/CodeSystem/observation-category",
                "code": "laboratory"
              }
            ]
          }
        ],
        "code": {
          "coding": [
            {
              "code": "5811-5",
              "system": "http://loinc.org",
              "display": "Specific gravity of Urine by Test strip"
            }
          ],
          "text": "Specific gravity of Urine by Test strip"
        },
        "valueQuantity": {
          "system": "http://unitsofmeasure.org",
          "value": 1,
          "unit": "{nominal}",
          "code": "{nominal}"
        },
        "referenceRange": [
          {
            "low": {
              "value": 1.01,
              "code": "g/mL",
              "system": "http://unitsofmeasure.org"
            }
          },
          {
            "high": {
              "value": 1.03,
              "code": "g/mL",
              "system": "http://unitsofmeasure.org"
            }
          }
        ],
        "interpretation": [
          {
            "coding": [
              {
                "code": "L",
                "system": "http://terminology.hl7.org/CodeSystem/v3-ObservationInterpretation",
                "display": "Low"
              }
            ]
          }
        ],
        "text": {
          "status": "generated",
          "div": "<div xmlns=\"http://www.w3.org/1999/xhtml\"><table class=\"hl7__eu__lab__report\"><tr><th>Test</th><th>23-Jun-2017</th><th>Reference&#xA0;Range</th><th>Unit</th></tr><tr><td>Specific gravity of Urine by Test strip</td><td>1.0</td><td>1.01 - 1.03</td><td>L</td><td>{nominal}</td></tr></table></div>"
        },
        "status": "final",
        "subject": {
          "reference": "urn:uuid:27aa1732-9704-43b2-9a39-b0f93a9b1476",
          "display": "Victor Lagarde"
        },
        "effectiveDateTime": "2017-06-23T04:48:18Z",
        "specimen": {
          "reference": "urn:uuid:74a752c6-cd8f-4321-8553-306c42ed35e6"
        }
      }
    },
    {
      "fullUrl": "urn:uuid:78e51e47-4010-417d-a395-c4a8e51a2862",
      "resource": {
        "resourceType": "Observation",
        "id": "78e51e47-4010-417d-a395-c4a8e51a2862",
        "meta": {
          "profile": [
            "http://hl7.eu/fhir/laboratory/StructureDefinition/Observation-resultslab-eu-lab"
          ]
        },
        "performer": [
          {
            "display": "The Central European Lab"
          }
        ],
        "category": [
          {
            "coding": [
              {
                "system": "http://terminology.hl7.org/CodeSystem/observation-category",
                "code": "laboratory"
              }
            ]
          }
        ],
        "code": {
          "coding": [
            {
              "code": "5803-2",
              "system": "http://loinc.org",
              "display": "pH of Urine by Test strip"
            }
          ],
          "text": "pH of Urine by Test strip"
        },
        "valueQuantity": {
          "system": "http://unitsofmeasure.org",
          "value": 7,
          "unit": "pH",
          "code": "pH"
        },
        "referenceRange": [
          {
            "low": {
              "value": 4.5,
              "code": "pH",
              "system": "http://unitsofmeasure.org"
            }
          },
          {
            "high": {
              "value": 7.5,
              "code": "pH",
              "system": "http://unitsofmeasure.org"
            }
          }
        ],
        "text": {
          "status": "generated",
          "div": "<div xmlns=\"http://www.w3.org/1999/xhtml\"><table class=\"hl7__eu__lab__report\"><tr><th>Test</th><th>23-Jun-2017</th><th>Reference&#xA0;Range</th><th>Unit</th></tr><tr><td>pH of Urine by Test strip</td><td>7.0</td><td>4.5 - 7.5</td><td></td><td>pH</td></tr></table></div>"
        },
        "status": "final",
        "subject": {
          "reference": "urn:uuid:27aa1732-9704-43b2-9a39-b0f93a9b1476",
          "display": "Victor Lagarde"
        },
        "effectiveDateTime": "2017-06-23T04:48:18Z",
        "specimen": {
          "reference": "urn:uuid:74a752c6-cd8f-4321-8553-306c42ed35e6"
        }
      }
    },
    {
      "fullUrl": "urn:uuid:94255908-1f4e-454b-81a5-3dfbbf50a9a6",
      "resource": {
        "resourceType": "Observation",
        "id": "94255908-1f4e-454b-81a5-3dfbbf50a9a6",
        "meta": {
          "profile": [
            "http://hl7.eu/fhir/laboratory/StructureDefinition/Observation-resultslab-eu-lab"
          ]
        },
        "performer": [
          {
            "display": "The Central European Lab"
          }
        ],
        "category": [
          {
            "coding": [
              {
                "system": "http://terminology.hl7.org/CodeSystem/observation-category",
                "code": "laboratory"
              }
            ]
          }
        ],
        "code": {
          "coding": [
            {
              "code": "5804-0",
              "system": "http://loinc.org",
              "display": "Protein [Mass/volume] in Urine by Test strip"
            }
          ],
          "text": "Protein [Mass/volume] in Urine by Test strip"
        },
        "valueQuantity": {
          "system": "http://unitsofmeasure.org",
          "value": 304.9,
          "unit": "mg/dL",
          "code": "mg/dL"
        },
        "referenceRange": [
          {
            "low": {
              "value": 0,
              "code": "mg/dL",
              "system": "http://unitsofmeasure.org"
            }
          },
          {
            "high": {
              "value": 149,
              "code": "mg/dL",
              "system": "http://unitsofmeasure.org"
            }
          }
        ],
        "interpretation": [
          {
            "coding": [
              {
                "code": "H",
                "system": "http://terminology.hl7.org/CodeSystem/v3-ObservationInterpretation",
                "display": "High"
              }
            ]
          }
        ],
        "text": {
          "status": "generated",
          "div": "<div xmlns=\"http://www.w3.org/1999/xhtml\"><table class=\"hl7__eu__lab__report\"><tr><th>Test</th><th>23-Jun-2017</th><th>Reference&#xA0;Range</th><th>Unit</th></tr><tr><td>Protein [Mass/volume] in Urine by Test strip</td><td>304.9</td><td>0 - 149</td><td>H</td><td>mg/dL</td></tr></table></div>"
        },
        "status": "final",
        "subject": {
          "reference": "urn:uuid:27aa1732-9704-43b2-9a39-b0f93a9b1476",
          "display": "Victor Lagarde"
        },
        "effectiveDateTime": "2017-06-23T04:48:18Z",
        "specimen": {
          "reference": "urn:uuid:74a752c6-cd8f-4321-8553-306c42ed35e6"
        }
      }
    },
    {
      "fullUrl": "urn:uuid:c75c1a4a-ad42-4453-89df-f94fdc8647f3",
      "resource": {
        "resourceType": "Observation",
        "id": "c75c1a4a-ad42-4453-89df-f94fdc8647f3",
        "meta": {
          "profile": [
            "http://hl7.eu/fhir/laboratory/StructureDefinition/Observation-resultslab-eu-lab"
          ]
        },
        "performer": [
          {
            "display": "The Central European Lab"
          }
        ],
        "category": [
          {
            "coding": [
              {
                "system": "http://terminology.hl7.org/CodeSystem/observation-category",
                "code": "laboratory"
              }
            ]
          }
        ],
        "code": {
          "coding": [
            {
              "code": "20454-5",
              "system": "http://loinc.org",
              "display": "Protein [Presence] in Urine by Test strip"
            }
          ],
          "text": "Protein [Presence] in Urine by Test strip"
        },
        "text": {
          "status": "generated",
          "div": "<div xmlns=\"http://www.w3.org/1999/xhtml\"><table class=\"hl7__eu__lab__report\"><tr><th>Test</th><th>23-Jun-2017</th><th>Reference&#xA0;Range</th><th>Unit</th></tr><tr><td>Protein [Presence] in Urine by Test strip</td></tr></table></div>"
        },
        "status": "final",
        "subject": {
          "reference": "urn:uuid:27aa1732-9704-43b2-9a39-b0f93a9b1476",
          "display": "Victor Lagarde"
        },
        "effectiveDateTime": "2017-06-23T04:48:18Z",
        "specimen": {
          "reference": "urn:uuid:74a752c6-cd8f-4321-8553-306c42ed35e6"
        }
      }
    },
    {
      "fullUrl": "urn:uuid:b49fe049-c9df-4b3e-8a33-b88497272508",
      "resource": {
        "resourceType": "Observation",
        "id": "b49fe049-c9df-4b3e-8a33-b88497272508",
        "meta": {
          "profile": [
            "http://hl7.eu/fhir/laboratory/StructureDefinition/Observation-resultslab-eu-lab"
          ]
        },
        "performer": [
          {
            "display": "The Central European Lab"
          }
        ],
        "category": [
          {
            "coding": [
              {
                "system": "http://terminology.hl7.org/CodeSystem/observation-category",
                "code": "laboratory"
              }
            ]
          }
        ],
        "code": {
          "coding": [
            {
              "code": "5802-4",
              "system": "http://loinc.org",
              "display": "Nitrite [Presence] in Urine by Test strip"
            }
          ],
          "text": "Nitrite [Presence] in Urine by Test strip"
        },
        "text": {
          "status": "generated",
          "div": "<div xmlns=\"http://www.w3.org/1999/xhtml\"><table class=\"hl7__eu__lab__report\"><tr><th>Test</th><th>23-Jun-2017</th><th>Reference&#xA0;Range</th><th>Unit</th></tr><tr><td>Nitrite [Presence] in Urine by Test strip</td></tr></table></div>"
        },
        "status": "final",
        "subject": {
          "reference": "urn:uuid:27aa1732-9704-43b2-9a39-b0f93a9b1476",
          "display": "Victor Lagarde"
        },
        "effectiveDateTime": "2017-06-23T04:48:18Z",
        "specimen": {
          "reference": "urn:uuid:74a752c6-cd8f-4321-8553-306c42ed35e6"
        }
      }
    },
    {
      "fullUrl": "urn:uuid:42bc5e9f-f4a8-43cb-b1d9-42fc35c380be",
      "resource": {
        "resourceType": "Observation",
        "id": "42bc5e9f-f4a8-43cb-b1d9-42fc35c380be",
        "meta": {
          "profile": [
            "http://hl7.eu/fhir/laboratory/StructureDefinition/Observation-resultslab-eu-lab"
          ]
        },
        "performer": [
          {
            "display": "The Central European Lab"
          }
        ],
        "category": [
          {
            "coding": [
              {
                "system": "http://terminology.hl7.org/CodeSystem/observation-category",
                "code": "laboratory"
              }
            ]
          }
        ],
        "code": {
          "coding": [
            {
              "code": "5794-3",
              "system": "http://loinc.org",
              "display": "Hemoglobin [Presence] in Urine by Test strip"
            }
          ],
          "text": "Hemoglobin [Presence] in Urine by Test strip"
        },
        "text": {
          "status": "generated",
          "div": "<div xmlns=\"http://www.w3.org/1999/xhtml\"><table class=\"hl7__eu__lab__report\"><tr><th>Test</th><th>23-Jun-2017</th><th>Reference&#xA0;Range</th><th>Unit</th></tr><tr><td>Hemoglobin [Presence] in Urine by Test strip</td></tr></table></div>"
        },
        "status": "final",
        "subject": {
          "reference": "urn:uuid:27aa1732-9704-43b2-9a39-b0f93a9b1476",
          "display": "Victor Lagarde"
        },
        "effectiveDateTime": "2017-06-23T04:48:18Z",
        "specimen": {
          "reference": "urn:uuid:74a752c6-cd8f-4321-8553-306c42ed35e6"
        }
      }
    },
    {
      "fullUrl": "urn:uuid:84d9ff1a-c4f0-429f-bde2-20835ede7e29",
      "resource": {
        "resourceType": "Observation",
        "id": "84d9ff1a-c4f0-429f-bde2-20835ede7e29",
        "meta": {
          "profile": [
            "http://hl7.eu/fhir/laboratory/StructureDefinition/Observation-resultslab-eu-lab"
          ]
        },
        "performer": [
          {
            "display": "The Central European Lab"
          }
        ],
        "category": [
          {
            "coding": [
              {
                "system": "http://terminology.hl7.org/CodeSystem/observation-category",
                "code": "laboratory"
              }
            ]
          }
        ],
        "code": {
          "coding": [
            {
              "code": "5799-2",
              "system": "http://loinc.org",
              "display": "Leukocyte esterase [Presence] in Urine by Test strip"
            }
          ],
          "text": "Leukocyte esterase [Presence] in Urine by Test strip"
        },
        "text": {
          "status": "generated",
          "div": "<div xmlns=\"http://www.w3.org/1999/xhtml\"><table class=\"hl7__eu__lab__report\"><tr><th>Test</th><th>23-Jun-2017</th><th>Reference&#xA0;Range</th><th>Unit</th></tr><tr><td>Leukocyte esterase [Presence] in Urine by Test strip</td></tr></table></div>"
        },
        "status": "final",
        "subject": {
          "reference": "urn:uuid:27aa1732-9704-43b2-9a39-b0f93a9b1476",
          "display": "Victor Lagarde"
        },
        "effectiveDateTime": "2017-06-23T04:48:18Z",
        "specimen": {
          "reference": "urn:uuid:74a752c6-cd8f-4321-8553-306c42ed35e6"
        }
      }
    },
    {
      "fullUrl": "urn:uuid:a11e9867-f8b7-40f9-8c69-627a66e53e36",
      "resource": {
        "resourceType": "Observation",
        "id": "a11e9867-f8b7-40f9-8c69-627a66e53e36",
        "meta": {
          "profile": [
            "http://hl7.eu/fhir/laboratory/StructureDefinition/Observation-resultslab-eu-lab"
          ]
        },
        "performer": [
          {
            "display": "The Central European Lab"
          }
        ],
        "category": [
          {
            "coding": [
              {
                "system": "http://terminology.hl7.org/CodeSystem/observation-category",
                "code": "laboratory"
              }
            ]
          }
        ],
        "code": {
          "coding": [
            {
              "code": "4548-4",
              "system": "http://loinc.org",
              "display": "Hemoglobin A1c/Hemoglobin.total in Blood"
            }
          ],
          "text": "Hemoglobin A1c/Hemoglobin.total in Blood"
        },
        "valueQuantity": {
          "system": "http://unitsofmeasure.org",
          "value": 3,
          "unit": "%",
          "code": "%"
        },
        "referenceRange": [
          {
            "low": {
              "value": 4.3,
              "code": "%",
              "system": "http://unitsofmeasure.org"
            }
          },
          {
            "high": {
              "value": 6,
              "code": "%",
              "system": "http://unitsofmeasure.org"
            }
          }
        ],
        "interpretation": [
          {
            "coding": [
              {
                "code": "L",
                "system": "http://terminology.hl7.org/CodeSystem/v3-ObservationInterpretation",
                "display": "Low"
              }
            ]
          }
        ],
        "text": {
          "status": "generated",
          "div": "<div xmlns=\"http://www.w3.org/1999/xhtml\"><table class=\"hl7__eu__lab__report\"><tr><th>Test</th><th>23-Jun-2017</th><th>Reference&#xA0;Range</th><th>Unit</th></tr><tr><td>Hemoglobin A1c/Hemoglobin.total in Blood</td><td>3.0</td><td>4.3 - 6</td><td>L</td><td>%</td></tr></table></div>"
        },
        "status": "final",
        "subject": {
          "reference": "urn:uuid:27aa1732-9704-43b2-9a39-b0f93a9b1476",
          "display": "Victor Lagarde"
        },
        "effectiveDateTime": "2017-06-23T04:48:18Z",
        "specimen": {
          "reference": "urn:uuid:a559e76e-1270-44d7-a582-dee2de27124c"
        }
      }
    },
    {
      "fullUrl": "urn:uuid:1eec0994-9184-4d99-90c7-ef10e04d4b76",
      "resource": {
        "resourceType": "Observation",
        "id": "1eec0994-9184-4d99-90c7-ef10e04d4b76",
        "meta": {
          "profile": [
            "http://hl7.eu/fhir/laboratory/StructureDefinition/Observation-resultslab-eu-lab"
          ]
        },
        "performer": [
          {
            "display": "The Central European Lab"
          }
        ],
        "category": [
          {
            "coding": [
              {
                "system": "http://terminology.hl7.org/CodeSystem/observation-category",
                "code": "laboratory"
              }
            ]
          }
        ],
        "code": {
          "coding": [
            {
              "code": "2339-0",
              "system": "http://loinc.org",
              "display": "Glucose [Mass/volume] in Blood"
            }
          ],
          "text": "Glucose [Mass/volume] in Blood"
        },
        "valueQuantity": {
          "system": "http://unitsofmeasure.org",
          "value": 95.5,
          "unit": "mg/dL",
          "code": "mg/dL"
        },
        "referenceRange": [
          {
            "low": {
              "value": 70,
              "code": "mg/dL",
              "system": "http://unitsofmeasure.org"
            }
          },
          {
            "high": {
              "value": 140,
              "code": "mg/dL",
              "system": "http://unitsofmeasure.org"
            }
          }
        ],
        "text": {
          "status": "generated",
          "div": "<div xmlns=\"http://www.w3.org/1999/xhtml\"><table class=\"hl7__eu__lab__report\"><tr><th>Test</th><th>23-Jun-2017</th><th>Reference&#xA0;Range</th><th>Unit</th></tr><tr><td>Glucose [Mass/volume] in Blood</td><td>95.5</td><td>70 - 140</td><td></td><td>mg/dL</td></tr></table></div>"
        },
        "status": "final",
        "subject": {
          "reference": "urn:uuid:27aa1732-9704-43b2-9a39-b0f93a9b1476",
          "display": "Victor Lagarde"
        },
        "effectiveDateTime": "2017-06-23T04:48:18Z",
        "specimen": {
          "reference": "urn:uuid:a559e76e-1270-44d7-a582-dee2de27124c"
        }
      }
    },
    {
      "fullUrl": "urn:uuid:6d6da077-4cdc-4630-b553-6f429e4d1ac9",
      "resource": {
        "resourceType": "Observation",
        "id": "6d6da077-4cdc-4630-b553-6f429e4d1ac9",
        "meta": {
          "profile": [
            "http://hl7.eu/fhir/laboratory/StructureDefinition/Observation-resultslab-eu-lab"
          ]
        },
        "performer": [
          {
            "display": "The Central European Lab"
          }
        ],
        "category": [
          {
            "coding": [
              {
                "system": "http://terminology.hl7.org/CodeSystem/observation-category",
                "code": "laboratory"
              }
            ]
          }
        ],
        "code": {
          "coding": [
            {
              "code": "6299-2",
              "system": "http://loinc.org",
              "display": "Urea nitrogen [Mass/volume] in Blood"
            }
          ],
          "text": "Urea nitrogen [Mass/volume] in Blood"
        },
        "valueQuantity": {
          "system": "http://unitsofmeasure.org",
          "value": 12.3,
          "unit": "mg/dL",
          "code": "mg/dL"
        },
        "referenceRange": [
          {
            "low": {
              "value": 7,
              "code": "mg/dL",
              "system": "http://unitsofmeasure.org"
            }
          },
          {
            "high": {
              "value": 20,
              "code": "mg/dL",
              "system": "http://unitsofmeasure.org"
            }
          }
        ],
        "text": {
          "status": "generated",
          "div": "<div xmlns=\"http://www.w3.org/1999/xhtml\"><table class=\"hl7__eu__lab__report\"><tr><th>Test</th><th>23-Jun-2017</th><th>Reference&#xA0;Range</th><th>Unit</th></tr><tr><td>Urea nitrogen [Mass/volume] in Blood</td><td>12.3</td><td>7 - 20</td><td></td><td>mg/dL</td></tr></table></div>"
        },
        "status": "final",
        "subject": {
          "reference": "urn:uuid:27aa1732-9704-43b2-9a39-b0f93a9b1476",
          "display": "Victor Lagarde"
        },
        "effectiveDateTime": "2017-06-23T04:48:18Z",
        "specimen": {
          "reference": "urn:uuid:a559e76e-1270-44d7-a582-dee2de27124c"
        }
      }
    },
    {
      "fullUrl": "urn:uuid:c92fbdf9-62a7-4de8-9d37-2d4d480515eb",
      "resource": {
        "resourceType": "Observation",
        "id": "c92fbdf9-62a7-4de8-9d37-2d4d480515eb",
        "meta": {
          "profile": [
            "http://hl7.eu/fhir/laboratory/StructureDefinition/Observation-resultslab-eu-lab"
          ]
        },
        "performer": [
          {
            "display": "The Central European Lab"
          }
        ],
        "category": [
          {
            "coding": [
              {
                "system": "http://terminology.hl7.org/CodeSystem/observation-category",
                "code": "laboratory"
              }
            ]
          }
        ],
        "code": {
          "coding": [
            {
              "code": "38483-4",
              "system": "http://loinc.org",
              "display": "Creatinine [Mass/volume] in Blood"
            }
          ],
          "text": "Creatinine [Mass/volume] in Blood"
        },
        "valueQuantity": {
          "system": "http://unitsofmeasure.org",
          "value": 1.4,
          "unit": "mg/dL",
          "code": "mg/dL"
        },
        "referenceRange": [
          {
            "low": {
              "value": 0.9,
              "code": "mg/dL",
              "system": "http://unitsofmeasure.org"
            }
          },
          {
            "high": {
              "value": 1.3,
              "code": "mg/dL",
              "system": "http://unitsofmeasure.org"
            }
          }
        ],
        "interpretation": [
          {
            "coding": [
              {
                "code": "H",
                "system": "http://terminology.hl7.org/CodeSystem/v3-ObservationInterpretation",
                "display": "High"
              }
            ]
          }
        ],
        "text": {
          "status": "generated",
          "div": "<div xmlns=\"http://www.w3.org/1999/xhtml\"><table class=\"hl7__eu__lab__report\"><tr><th>Test</th><th>23-Jun-2017</th><th>Reference&#xA0;Range</th><th>Unit</th></tr><tr><td>Creatinine [Mass/volume] in Blood</td><td>1.4</td><td>0.9 - 1.3</td><td>H</td><td>mg/dL</td></tr></table></div>"
        },
        "status": "final",
        "subject": {
          "reference": "urn:uuid:27aa1732-9704-43b2-9a39-b0f93a9b1476",
          "display": "Victor Lagarde"
        },
        "effectiveDateTime": "2017-06-23T04:48:18Z",
        "specimen": {
          "reference": "urn:uuid:a559e76e-1270-44d7-a582-dee2de27124c"
        }
      }
    },
    {
      "fullUrl": "urn:uuid:62a04bd1-1d06-4649-8b04-ab1e30fc8a88",
      "resource": {
        "resourceType": "Observation",
        "id": "62a04bd1-1d06-4649-8b04-ab1e30fc8a88",
        "meta": {
          "profile": [
            "http://hl7.eu/fhir/laboratory/StructureDefinition/Observation-resultslab-eu-lab"
          ]
        },
        "performer": [
          {
            "display": "The Central European Lab"
          }
        ],
        "category": [
          {
            "coding": [
              {
                "system": "http://terminology.hl7.org/CodeSystem/observation-category",
                "code": "laboratory"
              }
            ]
          }
        ],
        "code": {
          "coding": [
            {
              "code": "49765-1",
              "system": "http://loinc.org",
              "display": "Calcium [Mass/volume] in Blood"
            }
          ],
          "text": "Calcium [Mass/volume] in Blood"
        },
        "valueQuantity": {
          "system": "http://unitsofmeasure.org",
          "value": 8.9,
          "unit": "mg/dL",
          "code": "mg/dL"
        },
        "referenceRange": [
          {
            "low": {
              "value": 8.5,
              "code": "mg/dL",
              "system": "http://unitsofmeasure.org"
            }
          },
          {
            "high": {
              "value": 10.5,
              "code": "mg/dL",
              "system": "http://unitsofmeasure.org"
            }
          }
        ],
        "text": {
          "status": "generated",
          "div": "<div xmlns=\"http://www.w3.org/1999/xhtml\"><table class=\"hl7__eu__lab__report\"><tr><th>Test</th><th>23-Jun-2017</th><th>Reference&#xA0;Range</th><th>Unit</th></tr><tr><td>Calcium [Mass/volume] in Blood</td><td>8.9</td><td>8.5 - 10.5</td><td></td><td>mg/dL</td></tr></table></div>"
        },
        "status": "final",
        "subject": {
          "reference": "urn:uuid:27aa1732-9704-43b2-9a39-b0f93a9b1476",
          "display": "Victor Lagarde"
        },
        "effectiveDateTime": "2017-06-23T04:48:18Z",
        "specimen": {
          "reference": "urn:uuid:a559e76e-1270-44d7-a582-dee2de27124c"
        }
      }
    },
    {
      "fullUrl": "urn:uuid:81471b6f-9ec2-4c6e-a1d2-6a4675343adc",
      "resource": {
        "resourceType": "Observation",
        "id": "81471b6f-9ec2-4c6e-a1d2-6a4675343adc",
        "meta": {
          "profile": [
            "http://hl7.eu/fhir/laboratory/StructureDefinition/Observation-resultslab-eu-lab"
          ]
        },
        "performer": [
          {
            "display": "The Central European Lab"
          }
        ],
        "category": [
          {
            "coding": [
              {
                "system": "http://terminology.hl7.org/CodeSystem/observation-category",
                "code": "laboratory"
              }
            ]
          }
        ],
        "code": {
          "coding": [
            {
              "code": "2947-0",
              "system": "http://loinc.org",
              "display": "Sodium [Moles/volume] in Blood"
            }
          ],
          "text": "Sodium [Moles/volume] in Blood"
        },
        "valueQuantity": {
          "system": "http://unitsofmeasure.org",
          "value": 138.3,
          "unit": "mmol/L",
          "code": "mmol/L"
        },
        "referenceRange": [
          {
            "low": {
              "value": 135,
              "code": "mmol/L",
              "system": "http://unitsofmeasure.org"
            }
          },
          {
            "high": {
              "value": 145,
              "code": "mmol/L",
              "system": "http://unitsofmeasure.org"
            }
          }
        ],
        "text": {
          "status": "generated",
          "div": "<div xmlns=\"http://www.w3.org/1999/xhtml\"><table class=\"hl7__eu__lab__report\"><tr><th>Test</th><th>23-Jun-2017</th><th>Reference&#xA0;Range</th><th>Unit</th></tr><tr><td>Sodium [Moles/volume] in Blood</td><td>138.3</td><td>135 - 145</td><td></td><td>mmol/L</td></tr></table></div>"
        },
        "status": "final",
        "subject": {
          "reference": "urn:uuid:27aa1732-9704-43b2-9a39-b0f93a9b1476",
          "display": "Victor Lagarde"
        },
        "effectiveDateTime": "2017-06-23T04:48:18Z",
        "specimen": {
          "reference": "urn:uuid:a559e76e-1270-44d7-a582-dee2de27124c"
        }
      }
    },
    {
      "fullUrl": "urn:uuid:8ac69f69-98d0-4ac9-acfb-2e627c630683",
      "resource": {
        "resourceType": "Observation",
        "id": "8ac69f69-98d0-4ac9-acfb-2e627c630683",
        "meta": {
          "profile": [
            "http://hl7.eu/fhir/laboratory/StructureDefinition/Observation-resultslab-eu-lab"
          ]
        },
        "performer": [
          {
            "display": "The Central European Lab"
          }
        ],
        "category": [
          {
            "coding": [
              {
                "system": "http://terminology.hl7.org/CodeSystem/observation-category",
                "code": "laboratory"
              }
            ]
          }
        ],
        "code": {
          "coding": [
            {
              "code": "6298-4",
              "system": "http://loinc.org",
              "display": "Potassium [Moles/volume] in Blood"
            }
          ],
          "text": "Potassium [Moles/volume] in Blood"
        },
        "valueQuantity": {
          "system": "http://unitsofmeasure.org",
          "value": 4.4,
          "unit": "mmol/L",
          "code": "mmol/L"
        },
        "referenceRange": [
          {
            "low": {
              "value": 3.5,
              "code": "mmol/L",
              "system": "http://unitsofmeasure.org"
            }
          },
          {
            "high": {
              "value": 5.1,
              "code": "mmol/L",
              "system": "http://unitsofmeasure.org"
            }
          }
        ],
        "text": {
          "status": "generated",
          "div": "<div xmlns=\"http://www.w3.org/1999/xhtml\"><table class=\"hl7__eu__lab__report\"><tr><th>Test</th><th>23-Jun-2017</th><th>Reference&#xA0;Range</th><th>Unit</th></tr><tr><td>Potassium [Moles/volume] in Blood</td><td>4.4</td><td>3.5 - 5.1</td><td></td><td>mmol/L</td></tr></table></div>"
        },
        "status": "final",
        "subject": {
          "reference": "urn:uuid:27aa1732-9704-43b2-9a39-b0f93a9b1476",
          "display": "Victor Lagarde"
        },
        "effectiveDateTime": "2017-06-23T04:48:18Z",
        "specimen": {
          "reference": "urn:uuid:a559e76e-1270-44d7-a582-dee2de27124c"
        }
      }
    },
    {
      "fullUrl": "urn:uuid:c1b88fe9-1127-460b-bc6c-3441069b09c5",
      "resource": {
        "resourceType": "Observation",
        "id": "c1b88fe9-1127-460b-bc6c-3441069b09c5",
        "meta": {
          "profile": [
            "http://hl7.eu/fhir/laboratory/StructureDefinition/Observation-resultslab-eu-lab"
          ]
        },
        "performer": [
          {
            "display": "The Central European Lab"
          }
        ],
        "category": [
          {
            "coding": [
              {
                "system": "http://terminology.hl7.org/CodeSystem/observation-category",
                "code": "laboratory"
              }
            ]
          }
        ],
        "code": {
          "coding": [
            {
              "code": "2069-3",
              "system": "http://loinc.org",
              "display": "Chloride [Moles/volume] in Blood"
            }
          ],
          "text": "Chloride [Moles/volume] in Blood"
        },
        "valueQuantity": {
          "system": "http://unitsofmeasure.org",
          "value": 109.5,
          "unit": "mmol/L",
          "code": "mmol/L"
        },
        "referenceRange": [
          {
            "low": {
              "value": 98,
              "code": "mmol/L",
              "system": "http://unitsofmeasure.org"
            }
          },
          {
            "high": {
              "value": 108,
              "code": "mmol/L",
              "system": "http://unitsofmeasure.org"
            }
          }
        ],
        "interpretation": [
          {
            "coding": [
              {
                "code": "H",
                "system": "http://terminology.hl7.org/CodeSystem/v3-ObservationInterpretation",
                "display": "High"
              }
            ]
          }
        ],
        "text": {
          "status": "generated",
          "div": "<div xmlns=\"http://www.w3.org/1999/xhtml\"><table class=\"hl7__eu__lab__report\"><tr><th>Test</th><th>23-Jun-2017</th><th>Reference&#xA0;Range</th><th>Unit</th></tr><tr><td>Chloride [Moles/volume] in Blood</td><td>109.5</td><td>98 - 108</td><td>H</td><td>mmol/L</td></tr></table></div>"
        },
        "status": "final",
        "subject": {
          "reference": "urn:uuid:27aa1732-9704-43b2-9a39-b0f93a9b1476",
          "display": "Victor Lagarde"
        },
        "effectiveDateTime": "2017-06-23T04:48:18Z",
        "specimen": {
          "reference": "urn:uuid:a559e76e-1270-44d7-a582-dee2de27124c"
        }
      }
    },
    {
      "fullUrl": "urn:uuid:a8476425-c0ea-42a3-8d8e-f85615cf3743",
      "resource": {
        "resourceType": "Observation",
        "id": "a8476425-c0ea-42a3-8d8e-f85615cf3743",
        "meta": {
          "profile": [
            "http://hl7.eu/fhir/laboratory/StructureDefinition/Observation-resultslab-eu-lab"
          ]
        },
        "performer": [
          {
            "display": "The Central European Lab"
          }
        ],
        "category": [
          {
            "coding": [
              {
                "system": "http://terminology.hl7.org/CodeSystem/observation-category",
                "code": "laboratory"
              }
            ]
          }
        ],
        "code": {
          "coding": [
            {
              "code": "20565-8",
              "system": "http://loinc.org",
              "display": "Carbon dioxide, total [Moles/volume] in Blood"
            }
          ],
          "text": "Carbon dioxide, total [Moles/volume] in Blood"
        },
        "valueQuantity": {
          "system": "http://unitsofmeasure.org",
          "value": 25.7,
          "unit": "mmol/L",
          "code": "mmol/L"
        },
        "referenceRange": [
          {
            "low": {
              "value": 22,
              "code": "mmol/L",
              "system": "http://unitsofmeasure.org"
            }
          },
          {
            "high": {
              "value": 29,
              "code": "mmol/L",
              "system": "http://unitsofmeasure.org"
            }
          }
        ],
        "text": {
          "status": "generated",
          "div": "<div xmlns=\"http://www.w3.org/1999/xhtml\"><table class=\"hl7__eu__lab__report\"><tr><th>Test</th><th>23-Jun-2017</th><th>Reference&#xA0;Range</th><th>Unit</th></tr><tr><td>Carbon dioxide, total [Moles/volume] in Blood</td><td>25.7</td><td>22 - 29</td><td></td><td>mmol/L</td></tr></table></div>"
        },
        "status": "final",
        "subject": {
          "reference": "urn:uuid:27aa1732-9704-43b2-9a39-b0f93a9b1476",
          "display": "Victor Lagarde"
        },
        "effectiveDateTime": "2017-06-23T04:48:18Z",
        "specimen": {
          "reference": "urn:uuid:a559e76e-1270-44d7-a582-dee2de27124c"
        }
      }
    },
    {
      "fullUrl": "urn:uuid:401aa18b-ac19-4f12-8acc-92ab0e4538b2",
      "resource": {
        "resourceType": "Device",
        "id": "401aa18b-ac19-4f12-8acc-92ab0e4538b2",
        "deviceName": [
          {
            "name": "SYNDERAI Synthetic Generator",
            "type": "manufacturer-name"
          }
        ],
        "version": [
          {
            "value": "5.0"
          }
        ],
        "text": {
          "status": "generated",
          "div": "<div xmlns=\"http://www.w3.org/1999/xhtml\">SYNDERAI Synthetic Generator v5.0</div>"
        },
        "status": "active\"",
        "distinctIdentifier": "synderai-generator-50",
        "manufacturer": "SYNDERAI Project"
      }
    },
    {
      "fullUrl": "urn:uuid:1c618317-892d-4339-a430-a72acda5d83d",
      "resource": {
        "resourceType": "Provenance",
        "id": "1c618317-892d-4339-a430-a72acda5d83d",
        "target": [
          {
            "reference": "Patient/27aa1732-9704-43b2-9a39-b0f93a9b1476"
          },
          {
            "reference": "Bundle/5b8f0715-9fcb-4ec5-8acf-ab45b6099e52"
          },
          {
            "reference": "Composition/d81d6733-e11c-42d7-bb8f-0b61ffe40398"
          },
          {
            "reference": "PractitionerRole/76309786-26a0-4d1e-a1e3-aad1d3ce23ee"
          },
          {
            "reference": "Practitioner/f140f2a1-befc-4f71-97aa-a2d7645072fe"
          },
          {
            "reference": "PractitionerRole/29cef18b-1c7a-46a5-b65a-b2168c286338"
          },
          {
            "reference": "Organization/c8c14081-820f-4682-896d-f2b56990c974"
          }
        ],
        "activity": {
          "text": "Synthetic Example Data Generation"
        },
        "policy": [
          "https://synderai.net/synderai-synthetic-data-policy"
        ],
        "agent": [
          {
            "type": {
              "text": "author"
            },
            "who": {
              "reference": "Device/401aa18b-ac19-4f12-8acc-92ab0e4538b2"
            }
          }
        ],
        "reason": [
          {
            "text": "Interoperability Testing and Training (non-clinical use)"
          }
        ],
        "text": {
          "status": "generated",
          "div": "<div xmlns=\"http://www.w3.org/1999/xhtml\">Provenance for SYNDERAI Synthetic Example Data Resource</div>"
        },
        "recorded": "2017-06-23T06:48:18Z"
      }
    },
    {
      "fullUrl": "urn:uuid:76309786-26a0-4d1e-a1e3-aad1d3ce23ee",
      "resource": {
        "resourceType": "PractitionerRole",
        "id": "76309786-26a0-4d1e-a1e3-aad1d3ce23ee",
        "meta": {
          "profile": [
            "http://hl7.eu/fhir/base/StructureDefinition/practitionerRole-eu"
          ]
        },
        "text": {
          "status": "generated",
          "div": "<div xmlns=\"http://www.w3.org/1999/xhtml\">Laboratory Role Id: 76309786-26a0-4d1e-a1e3-aad1d3ce23ee</div>"
        },
        "practitioner": {
          "reference": "urn:uuid:f140f2a1-befc-4f71-97aa-a2d7645072fe"
        }
      }
    },
    {
      "fullUrl": "urn:uuid:f140f2a1-befc-4f71-97aa-a2d7645072fe",
      "resource": {
        "resourceType": "Practitioner",
        "id": "f140f2a1-befc-4f71-97aa-a2d7645072fe",
        "meta": {
          "profile": [
            "http://hl7.eu/fhir/base/StructureDefinition/practitioner-eu"
          ]
        },
        "identifier": [
          {
            "assigner": {
              "display": "HL7 Europe"
            },
            "system": "urn:oid:2.16.840.1.113883.2.51.999",
            "value": "0b7df245-edab-47b8-bd06-1625275bdf53"
          }
        ],
        "name": [
          {
            "prefix": [
              "dr"
            ],
            "given": [
              "Ex"
            ],
            "family": "Ample"
          }
        ],
        "address": [
          {
            "line": [
              "Laboratoire Central Europenne",
              "Boulevard du Jardin Botanique 32"
            ],
            "postalCode": "1000",
            "city": "Brussels",
            "country": "Belgium"
          }
        ],
        "text": {
          "status": "generated",
          "div": "<div xmlns=\"http://www.w3.org/1999/xhtml\">Laboratory: Laboratoire Central Europenne, 1000 Brussels, Belgium</div>"
        }
      }
    }
  ],
  "type": "document",
  "timestamp": "2017-06-23T06:48:18Z"
}
