{
  "resourceType": "Bundle",
  "id": "f45e9aa9-c344-4731-92a7-8174f2d90ae9",
  "meta": {
    "profile": [
      "http://hl7.eu/fhir/laboratory/StructureDefinition/Bundle-eu-lab"
    ]
  },
  "identifier": {
    "assigner": {
      "display": "HL7 Europe"
    },
    "system": "urn:oid:2.16.840.1.113883.2.51.999",
    "value": "faa076a0-d423-481f-be97-53187f79353e"
  },
  "entry": [
    {
      "fullUrl": "urn:uuid:4683b244-1ba3-42b1-b4cc-a42c3c99f9b9",
      "resource": {
        "resourceType": "Composition",
        "id": "4683b244-1ba3-42b1-b4cc-a42c3c99f9b9",
        "meta": {
          "profile": [
            "http://hl7.eu/fhir/laboratory/StructureDefinition/Composition-eu-lab"
          ]
        },
        "identifier": {
          "assigner": {
            "display": "HL7 Europe"
          },
          "system": "urn:oid:2.16.840.1.113883.2.51.999",
          "value": "8ecf6f7b-f241-4474-8249-70cbccb8948d"
        },
        "author": [
          {
            "reference": "urn:uuid:563c43db-64b2-43f5-a8d9-b0f942f3e5b9"
          }
        ],
        "category": [
          {
            "coding": [
              {
                "code": "26436-6",
                "system": "http://loinc.org",
                "display": "Laboratory studies (set)"
              }
            ]
          }
        ],
        "type": {
          "coding": [
            {
              "code": "11502-2",
              "system": "http://loinc.org",
              "display": "Laboratory report"
            }
          ],
          "text": "Laboratory Report"
        },
        "section": [
          {
            "code": {
              "coding": [
                {
                  "code": "26436-6",
                  "system": "http://loinc.org",
                  "display": "Laboratory studies (set)"
                }
              ],
              "text": "Laboratory studies"
            },
            "section": [
              {
                "code": {
                  "coding": [
                    {
                      "code": "$18719-5",
                      "system": "http://loinc.org",
                      "display": "Chemistry studies (set)"
                    }
                  ],
                  "text": "Chemistry"
                },
                "entry": [
                  {
                    "reference": "urn:uuid:57d3783e-8085-4e10-9150-a70300c47fde"
                  },
                  {
                    "reference": "urn:uuid:d121003f-d49b-4ce3-ab96-190fd02f05e6"
                  },
                  {
                    "reference": "urn:uuid:af5d7bf9-0b36-41d6-bd2d-3c2c9aba79fe"
                  },
                  {
                    "reference": "urn:uuid:5e351306-bf54-4e1e-9f8b-a3784fc1f374"
                  },
                  {
                    "reference": "urn:uuid:a013da51-05ec-457e-adce-ce59905ea5cb"
                  },
                  {
                    "reference": "urn:uuid:02a56b3b-c4c2-4fd5-bf5b-7cb72c7926d0"
                  },
                  {
                    "reference": "urn:uuid:7aa1abd1-f39f-4376-a71a-5fbe3a23bb7b"
                  },
                  {
                    "reference": "urn:uuid:dc5816ec-cffa-4e1f-9685-0131c56cbc49"
                  },
                  {
                    "reference": "urn:uuid:7e3067f5-6c5e-4ca1-9566-431a6ee4a6cf"
                  },
                  {
                    "reference": "urn:uuid:a88d9551-2ea9-4def-adbe-7d875e25aa30"
                  },
                  {
                    "reference": "urn:uuid:98147c76-44ba-495c-b9a5-5eb63cb1974e"
                  },
                  {
                    "reference": "urn:uuid:11a43d23-0986-458b-bfb0-1476763fb6e3"
                  },
                  {
                    "reference": "urn:uuid:ae2fe041-b7a2-49c1-b05b-fdce35542707"
                  }
                ],
                "text": {
                  "status": "generated",
                  "div": "<div xmlns=\"http://www.w3.org/1999/xhtml\"><h3>Chemistry</h3><table class=\"hl7__eu__lab__report\"><thead><tr><th>Test</th><th>20-MAR-2020</th><th>Reference&#xA0;Range</th><th>Unit</th></tr></thead><tbody><tr><td>Hemoglobin A1c/Hemoglobin.total in Blood</td><td><strong>5.9 H</strong></td><td>4.8 - 5.7</td><td>%</td></tr><tr><td>Glucose [Mass/volume] in Blood</td><td>76.2</td><td>70 - 140</td><td>mg/dL</td></tr><tr><td>Urea nitrogen [Mass/volume] in Blood</td><td>19.8</td><td>7 - 25</td><td>mg/dL</td></tr><tr><td>Creatinine [Mass/volume] in Blood</td><td>0.8</td><td>0.6 - 1.3</td><td>mg/dL</td></tr><tr><td>Calcium [Mass/volume] in Blood</td><td>8.7</td><td>8.5 - 10.5</td><td>mg/dL</td></tr><tr><td>Sodium [Moles/volume] in Blood</td><td>139.6</td><td>135 - 145</td><td>mmol/L</td></tr><tr><td>Potassium [Moles/volume] in Blood</td><td>4.4</td><td>3.5 - 5.1</td><td>mmol/L</td></tr><tr><td>Chloride [Moles/volume] in Blood</td><td>102.1</td><td>98 - 108</td><td>mmol/L</td></tr><tr><td>Carbon dioxide, total [Moles/volume] in Blood</td><td>28.5</td><td>22 - 29</td><td>mmol/L</td></tr><tr><td>Cholesterol [Mass/volume] in Serum or Plasma</td><td>165.6</td><td>125 - 200</td><td>mg/dL</td></tr><tr><td>Triglyceride [Mass/volume] in Serum or Plasma</td><td>121.4</td><td>35 - 150</td><td>mg/dL</td></tr><tr><td>Cholesterol in LDL [Mass/volume] in Serum or Plasma by Direct assay</td><td>83.1</td><td>0 - 130</td><td>mg/dL</td></tr><tr><td>Cholesterol in HDL [Mass/volume] in Serum or Plasma</td><td>58.2</td><td>40 - 60</td><td>mg/dL</td></tr></tbody></table></div>"
                },
                "title": "Chemistry"
              }
            ],
            "title": "Laboratory Report"
          },
          {
            "text": {
              "status": "generated",
              "div": "<div xmlns=\"http://www.w3.org/1999/xhtml\"><h3>Annotation</h3><table class=\"hl7__eu__lab__report\"><tr><th>Conclusion and Recommendations based on this report and previous findings known to us</th></tr><tr><td>All results are within normal limits except for a mildly elevated HbA1c (5.9%), indicating prediabetes. Renal function, electrolytes, and lipid profile are unremarkable. Recommend lifestyle modification and follow-up of glycemic status to prevent progression to diabetes. No acute laboratory concerns at this time.</td></tr></table></div>"
            },
            "code": {
              "coding": [
                {
                  "system": "http://loinc.org",
                  "code": "48767-8",
                  "display": "Annotation comment"
                }
              ]
            },
            "title": "Annotation comment"
          }
        ],
        "status": "final",
        "subject": {
          "reference": "urn:uuid:5d7906e8-6903-4e39-877b-52b46f19e297",
          "display": "Bethany Begum"
        },
        "date": "2020-03-20T12:40:40Z",
        "title": "Laboratory Report",
        "confidentiality": "N"
      }
    },
    {
      "fullUrl": "urn:uuid:b17b28e5-4691-4d64-a9f1-d2b4f5435904",
      "resource": {
        "resourceType": "DiagnosticReport",
        "id": "b17b28e5-4691-4d64-a9f1-d2b4f5435904",
        "meta": {
          "profile": [
            "http://hl7.eu/fhir/laboratory/StructureDefinition/DiagnosticReport-eu-lab"
          ]
        },
        "identifier": [
          {
            "assigner": {
              "display": "HL7 Europe"
            },
            "system": "urn:oid:2.16.840.1.113883.2.51.999",
            "value": "78e77e6b-0d35-43b0-bed2-0b0d768eff0b"
          }
        ],
        "extension": [
          {
            "url": "http://hl7.org/fhir/5.0/StructureDefinition/extension-DiagnosticReport.composition",
            "valueReference": {
              "reference": "urn:uuid:8ecf6f7b-f241-4474-8249-70cbccb8948d"
            }
          }
        ],
        "category": [
          {
            "coding": [
              {
                "code": "26436-6",
                "system": "http://loinc.org",
                "display": "Laboratory studies (set)"
              }
            ]
          }
        ],
        "specimen": [
          {
            "reference": "urn:uuid:079a90a6-a9f3-46b3-83d2-a62e2b4bd729"
          },
          {
            "reference": "urn:uuid:bc06f843-1f41-4b96-8ff7-66ec0dce20f5"
          }
        ],
        "result": [
          {
            "reference": "urn:uuid:57d3783e-8085-4e10-9150-a70300c47fde"
          },
          {
            "reference": "urn:uuid:d121003f-d49b-4ce3-ab96-190fd02f05e6"
          },
          {
            "reference": "urn:uuid:af5d7bf9-0b36-41d6-bd2d-3c2c9aba79fe"
          },
          {
            "reference": "urn:uuid:5e351306-bf54-4e1e-9f8b-a3784fc1f374"
          },
          {
            "reference": "urn:uuid:a013da51-05ec-457e-adce-ce59905ea5cb"
          },
          {
            "reference": "urn:uuid:02a56b3b-c4c2-4fd5-bf5b-7cb72c7926d0"
          },
          {
            "reference": "urn:uuid:7aa1abd1-f39f-4376-a71a-5fbe3a23bb7b"
          },
          {
            "reference": "urn:uuid:dc5816ec-cffa-4e1f-9685-0131c56cbc49"
          },
          {
            "reference": "urn:uuid:7e3067f5-6c5e-4ca1-9566-431a6ee4a6cf"
          },
          {
            "reference": "urn:uuid:a88d9551-2ea9-4def-adbe-7d875e25aa30"
          },
          {
            "reference": "urn:uuid:98147c76-44ba-495c-b9a5-5eb63cb1974e"
          },
          {
            "reference": "urn:uuid:11a43d23-0986-458b-bfb0-1476763fb6e3"
          },
          {
            "reference": "urn:uuid:ae2fe041-b7a2-49c1-b05b-fdce35542707"
          }
        ],
        "status": "registered",
        "code": {
          "coding": [
            {
              "code": "11502-2",
              "system": "http://loinc.org",
              "display": "Laboratory report"
            }
          ]
        },
        "subject": {
          "reference": "urn:uuid:5d7906e8-6903-4e39-877b-52b46f19e297",
          "display": "Bethany Begum"
        }
      }
    },
    {
      "fullUrl": "urn:uuid:5d7906e8-6903-4e39-877b-52b46f19e297",
      "resource": {
        "resourceType": "Patient",
        "id": "5d7906e8-6903-4e39-877b-52b46f19e297",
        "meta": {
          "security": [
            {
              "system": "http://terminology.hl7.org/CodeSystem/v3-ActReason",
              "code": "HTEST"
            },
            {
              "system": "http://terminology.hl7.org/CodeSystem/v3-ActReason",
              "code": "TRAIN"
            }
          ],
          "tag": [
            {
              "system": "https://synderai.net/fhir/CodeSystem/tags",
              "code": "synthetic",
              "display": "SYNDERAI Synthetic data"
            }
          ],
          "profile": [
            "http://hl7.eu/fhir/base/StructureDefinition/patient-eu-core"
          ]
        },
        "identifier": [
          {
            "type": {
              "coding": [
                {
                  "code": "PT",
                  "system": "http://terminology.hl7.org/CodeSystem/v2-0203"
                }
              ]
            },
            "system": "http://ec.europa.eu/identifier/eci",
            "value": "2365-936148-1"
          },
          {
            "type": {
              "coding": [
                {
                  "code": "MR",
                  "system": "http://terminology.hl7.org/CodeSystem/v2-0203"
                }
              ]
            },
            "system": "http://local.setting.eu/identifier",
            "value": "853b213b-8bf3-d90f-2018-79d547156fd7"
          }
        ],
        "name": [
          {
            "family": "Begum"
          },
          {
            "given": [
              "Bethany"
            ]
          },
          {
            "text": "Bethany Begum"
          }
        ],
        "address": [
          {
            "line": [
              "Studio 22e",
              "Joe unions"
            ],
            "use": "home",
            "type": "physical",
            "postalCode": "M1",
            "city": "Manchester",
            "country": "United Kingdom"
          }
        ],
        "telecom": [
          {
            "system": "phone",
            "value": "(029) 2018200"
          }
        ],
        "extension": [
          {
            "url": "http://hl7.org/fhir/StructureDefinition/patient-nationality",
            "valueCodeableConcept": {
              "coding": [
                {
                  "code": "GB",
                  "system": "http://hl7.org/fhir/ValueSet/country"
                }
              ]
            }
          }
        ],
        "text": {
          "status": "generated",
          "div": "<div xmlns=\"http://www.w3.org/1999/xhtml\"><table class=\"hl7__ips\"><tr><td>Bethany Begum</td><td>female</td><td>19-Jan-1976</td></tr></table></div>"
        },
        "gender": "female",
        "birthDate": "1976-01-19"
      }
    },
    {
      "fullUrl": "urn:uuid:a415a784-4ea6-4008-a448-2f9b584c85d2",
      "resource": {
        "resourceType": "ServiceRequest",
        "id": "a415a784-4ea6-4008-a448-2f9b584c85d2",
        "meta": {
          "profile": [
            "http://hl7.eu/fhir/laboratory/StructureDefinition/ServiceRequest-eu-lab"
          ]
        },
        "identifier": [
          {
            "system": "http://example.org",
            "value": "4fac6fef-7718-4afa-863d-0bcb0e36a688"
          }
        ],
        "specimen": [
          {
            "reference": "urn:uuid:079a90a6-a9f3-46b3-83d2-a62e2b4bd729"
          },
          {
            "reference": "urn:uuid:bc06f843-1f41-4b96-8ff7-66ec0dce20f5"
          }
        ],
        "reasonCode": [
          {
            "coding": [
              {
                "code": "55822004",
                "system": "http://snomed.info/sct",
                "display": "Hyperlipidemia"
              }
            ]
          },
          {
            "coding": [
              {
                "code": "15777000",
                "system": "http://snomed.info/sct",
                "display": "Prediabetes"
              }
            ]
          },
          {
            "coding": [
              {
                "code": "40055000",
                "system": "http://snomed.info/sct",
                "display": "Chronic sinusitis"
              }
            ]
          }
        ],
        "status": "active",
        "intent": "order",
        "code": {
          "coding": [
            {
              "code": "108252007",
              "system": "http://snomed.info/sct",
              "display": "Laboratory procedure"
            }
          ]
        },
        "subject": {
          "reference": "urn:uuid:5d7906e8-6903-4e39-877b-52b46f19e297",
          "display": "Bethany Begum"
        },
        "requester": {
          "reference": "urn:uuid:710b430e-93f6-4829-9d65-a4be1c1d54d5"
        }
      }
    },
    {
      "fullUrl": "urn:uuid:710b430e-93f6-4829-9d65-a4be1c1d54d5",
      "resource": {
        "resourceType": "PractitionerRole",
        "id": "710b430e-93f6-4829-9d65-a4be1c1d54d5",
        "meta": {
          "profile": [
            "http://hl7.eu/fhir/base/StructureDefinition/practitionerRole-eu"
          ]
        },
        "text": {
          "status": "generated",
          "div": "<div xmlns=\"http://www.w3.org/1999/xhtml\">Provider Role Id: 710b430e-93f6-4829-9d65-a4be1c1d54d5</div>"
        },
        "organization": {
          "reference": "urn:uuid:73f83e5b-cdde-4802-8104-d43e44e9aff5"
        }
      }
    },
    {
      "fullUrl": "urn:uuid:73f83e5b-cdde-4802-8104-d43e44e9aff5",
      "resource": {
        "resourceType": "Organization",
        "id": "73f83e5b-cdde-4802-8104-d43e44e9aff5",
        "meta": {
          "profile": [
            "http://hl7.eu/fhir/base/StructureDefinition/organization-eu"
          ]
        },
        "identifier": [
          {
            "assigner": {
              "display": "HL7 Europe"
            },
            "system": "urn:oid:2.16.840.1.113883.2.51.999",
            "value": "ba9723f1-9843-4ca9-98ab-5442417f046b"
          }
        ],
        "address": [
          {
            "line": [
              "City Road 204"
            ],
            "city": "Manchester",
            "postalCode": "M3 3",
            "country": "United Kingdom"
          }
        ],
        "text": {
          "status": "generated",
          "div": "<div xmlns=\"http://www.w3.org/1999/xhtml\">Provider Organization: Cornbrook Medical Practice</div>"
        },
        "name": "Cornbrook Medical Practice"
      }
    },
    {
      "fullUrl": "urn:uuid:079a90a6-a9f3-46b3-83d2-a62e2b4bd729",
      "resource": {
        "resourceType": "Specimen",
        "id": "079a90a6-a9f3-46b3-83d2-a62e2b4bd729",
        "meta": {
          "profile": [
            "http://hl7.eu/fhir/laboratory/StructureDefinition/Specimen-eu-lab"
          ]
        },
        "collection": {
          "collectedDateTime": "2020-03-20"
        },
        "text": {
          "status": "generated",
          "div": "<div xmlns=\"http://www.w3.org/1999/xhtml\"><table class=\"hl7__eu__lab__report\"><tr><th>Specimen</th><th>Collection Date</th></tr><tr><td>Whole blood specimen (specimen)</td><td><span class=\"nb\">20-Mar-2020</span></td></tr></table></div>"
        },
        "type": {
          "coding": [
            {
              "code": "258580003",
              "system": "http://snomed.info/sct",
              "display": "Whole blood specimen (specimen)"
            }
          ]
        }
      }
    },
    {
      "fullUrl": "urn:uuid:bc06f843-1f41-4b96-8ff7-66ec0dce20f5",
      "resource": {
        "resourceType": "Specimen",
        "id": "bc06f843-1f41-4b96-8ff7-66ec0dce20f5",
        "meta": {
          "profile": [
            "http://hl7.eu/fhir/laboratory/StructureDefinition/Specimen-eu-lab"
          ]
        },
        "collection": {
          "collectedDateTime": "2020-03-20"
        },
        "text": {
          "status": "generated",
          "div": "<div xmlns=\"http://www.w3.org/1999/xhtml\"><table class=\"hl7__eu__lab__report\"><tr><th>Specimen</th><th>Collection Date</th></tr><tr><td>Acellular blood (serum or plasma) specimen</td><td><span class=\"nb\">20-Mar-2020</span></td></tr></table></div>"
        },
        "type": {
          "coding": [
            {
              "code": "122592007",
              "system": "http://snomed.info/sct",
              "display": "Acellular blood (serum or plasma) specimen"
            }
          ]
        }
      }
    },
    {
      "fullUrl": "urn:uuid:57d3783e-8085-4e10-9150-a70300c47fde",
      "resource": {
        "resourceType": "Observation",
        "id": "57d3783e-8085-4e10-9150-a70300c47fde",
        "meta": {
          "profile": [
            "http://hl7.eu/fhir/laboratory/StructureDefinition/Observation-resultslab-eu-lab"
          ]
        },
        "performer": [
          {
            "display": "The Central European Lab"
          }
        ],
        "category": [
          {
            "coding": [
              {
                "system": "http://terminology.hl7.org/CodeSystem/observation-category",
                "code": "laboratory"
              }
            ]
          }
        ],
        "code": {
          "coding": [
            {
              "code": "4548-4",
              "system": "http://loinc.org",
              "display": "Hemoglobin A1c/Hemoglobin.total in Blood"
            }
          ],
          "text": "Hemoglobin A1c/Hemoglobin.total in Blood"
        },
        "valueQuantity": {
          "system": "http://unitsofmeasure.org",
          "value": 5.9,
          "unit": "%",
          "code": "%"
        },
        "referenceRange": [
          {
            "low": {
              "value": 4.8,
              "code": "%",
              "system": "http://unitsofmeasure.org"
            }
          },
          {
            "high": {
              "value": 5.7,
              "code": "%",
              "system": "http://unitsofmeasure.org"
            }
          }
        ],
        "interpretation": [
          {
            "coding": [
              {
                "code": "H",
                "system": "http://terminology.hl7.org/CodeSystem/v3-ObservationInterpretation",
                "display": "High"
              }
            ]
          }
        ],
        "text": {
          "status": "generated",
          "div": "<div xmlns=\"http://www.w3.org/1999/xhtml\"><table class=\"hl7__eu__lab__report\"><tr><th>Test</th><th>20-Mar-2020</th><th>Reference&#xA0;Range</th><th>Unit</th></tr><tr><td>Hemoglobin A1c/Hemoglobin.total in Blood</td><td>5.9</td><td>4.8 - 5.7</td><td>H</td><td>%</td></tr></table></div>"
        },
        "status": "final",
        "subject": {
          "reference": "urn:uuid:5d7906e8-6903-4e39-877b-52b46f19e297",
          "display": "Bethany Begum"
        },
        "effectiveDateTime": "2020-03-20T11:40:40Z",
        "specimen": {
          "reference": "urn:uuid:079a90a6-a9f3-46b3-83d2-a62e2b4bd729"
        }
      }
    },
    {
      "fullUrl": "urn:uuid:d121003f-d49b-4ce3-ab96-190fd02f05e6",
      "resource": {
        "resourceType": "Observation",
        "id": "d121003f-d49b-4ce3-ab96-190fd02f05e6",
        "meta": {
          "profile": [
            "http://hl7.eu/fhir/laboratory/StructureDefinition/Observation-resultslab-eu-lab"
          ]
        },
        "performer": [
          {
            "display": "The Central European Lab"
          }
        ],
        "category": [
          {
            "coding": [
              {
                "system": "http://terminology.hl7.org/CodeSystem/observation-category",
                "code": "laboratory"
              }
            ]
          }
        ],
        "code": {
          "coding": [
            {
              "code": "2339-0",
              "system": "http://loinc.org",
              "display": "Glucose [Mass/volume] in Blood"
            }
          ],
          "text": "Glucose [Mass/volume] in Blood"
        },
        "valueQuantity": {
          "system": "http://unitsofmeasure.org",
          "value": 76.2,
          "unit": "mg/dL",
          "code": "mg/dL"
        },
        "referenceRange": [
          {
            "low": {
              "value": 70,
              "code": "mg/dL",
              "system": "http://unitsofmeasure.org"
            }
          },
          {
            "high": {
              "value": 140,
              "code": "mg/dL",
              "system": "http://unitsofmeasure.org"
            }
          }
        ],
        "text": {
          "status": "generated",
          "div": "<div xmlns=\"http://www.w3.org/1999/xhtml\"><table class=\"hl7__eu__lab__report\"><tr><th>Test</th><th>20-Mar-2020</th><th>Reference&#xA0;Range</th><th>Unit</th></tr><tr><td>Glucose [Mass/volume] in Blood</td><td>76.2</td><td>70 - 140</td><td></td><td>mg/dL</td></tr></table></div>"
        },
        "status": "final",
        "subject": {
          "reference": "urn:uuid:5d7906e8-6903-4e39-877b-52b46f19e297",
          "display": "Bethany Begum"
        },
        "effectiveDateTime": "2020-03-20T11:40:40Z",
        "specimen": {
          "reference": "urn:uuid:079a90a6-a9f3-46b3-83d2-a62e2b4bd729"
        }
      }
    },
    {
      "fullUrl": "urn:uuid:af5d7bf9-0b36-41d6-bd2d-3c2c9aba79fe",
      "resource": {
        "resourceType": "Observation",
        "id": "af5d7bf9-0b36-41d6-bd2d-3c2c9aba79fe",
        "meta": {
          "profile": [
            "http://hl7.eu/fhir/laboratory/StructureDefinition/Observation-resultslab-eu-lab"
          ]
        },
        "performer": [
          {
            "display": "The Central European Lab"
          }
        ],
        "category": [
          {
            "coding": [
              {
                "system": "http://terminology.hl7.org/CodeSystem/observation-category",
                "code": "laboratory"
              }
            ]
          }
        ],
        "code": {
          "coding": [
            {
              "code": "6299-2",
              "system": "http://loinc.org",
              "display": "Urea nitrogen [Mass/volume] in Blood"
            }
          ],
          "text": "Urea nitrogen [Mass/volume] in Blood"
        },
        "valueQuantity": {
          "system": "http://unitsofmeasure.org",
          "value": 19.8,
          "unit": "mg/dL",
          "code": "mg/dL"
        },
        "referenceRange": [
          {
            "low": {
              "value": 7,
              "code": "mg/dL",
              "system": "http://unitsofmeasure.org"
            }
          },
          {
            "high": {
              "value": 25,
              "code": "mg/dL",
              "system": "http://unitsofmeasure.org"
            }
          }
        ],
        "text": {
          "status": "generated",
          "div": "<div xmlns=\"http://www.w3.org/1999/xhtml\"><table class=\"hl7__eu__lab__report\"><tr><th>Test</th><th>20-Mar-2020</th><th>Reference&#xA0;Range</th><th>Unit</th></tr><tr><td>Urea nitrogen [Mass/volume] in Blood</td><td>19.8</td><td>7 - 25</td><td></td><td>mg/dL</td></tr></table></div>"
        },
        "status": "final",
        "subject": {
          "reference": "urn:uuid:5d7906e8-6903-4e39-877b-52b46f19e297",
          "display": "Bethany Begum"
        },
        "effectiveDateTime": "2020-03-20T11:40:40Z",
        "specimen": {
          "reference": "urn:uuid:079a90a6-a9f3-46b3-83d2-a62e2b4bd729"
        }
      }
    },
    {
      "fullUrl": "urn:uuid:5e351306-bf54-4e1e-9f8b-a3784fc1f374",
      "resource": {
        "resourceType": "Observation",
        "id": "5e351306-bf54-4e1e-9f8b-a3784fc1f374",
        "meta": {
          "profile": [
            "http://hl7.eu/fhir/laboratory/StructureDefinition/Observation-resultslab-eu-lab"
          ]
        },
        "performer": [
          {
            "display": "The Central European Lab"
          }
        ],
        "category": [
          {
            "coding": [
              {
                "system": "http://terminology.hl7.org/CodeSystem/observation-category",
                "code": "laboratory"
              }
            ]
          }
        ],
        "code": {
          "coding": [
            {
              "code": "38483-4",
              "system": "http://loinc.org",
              "display": "Creatinine [Mass/volume] in Blood"
            }
          ],
          "text": "Creatinine [Mass/volume] in Blood"
        },
        "valueQuantity": {
          "system": "http://unitsofmeasure.org",
          "value": 0.8,
          "unit": "mg/dL",
          "code": "mg/dL"
        },
        "referenceRange": [
          {
            "low": {
              "value": 0.6,
              "code": "mg/dL",
              "system": "http://unitsofmeasure.org"
            }
          },
          {
            "high": {
              "value": 1.3,
              "code": "mg/dL",
              "system": "http://unitsofmeasure.org"
            }
          }
        ],
        "text": {
          "status": "generated",
          "div": "<div xmlns=\"http://www.w3.org/1999/xhtml\"><table class=\"hl7__eu__lab__report\"><tr><th>Test</th><th>20-Mar-2020</th><th>Reference&#xA0;Range</th><th>Unit</th></tr><tr><td>Creatinine [Mass/volume] in Blood</td><td>0.8</td><td>0.6 - 1.3</td><td></td><td>mg/dL</td></tr></table></div>"
        },
        "status": "final",
        "subject": {
          "reference": "urn:uuid:5d7906e8-6903-4e39-877b-52b46f19e297",
          "display": "Bethany Begum"
        },
        "effectiveDateTime": "2020-03-20T11:40:40Z",
        "specimen": {
          "reference": "urn:uuid:079a90a6-a9f3-46b3-83d2-a62e2b4bd729"
        }
      }
    },
    {
      "fullUrl": "urn:uuid:a013da51-05ec-457e-adce-ce59905ea5cb",
      "resource": {
        "resourceType": "Observation",
        "id": "a013da51-05ec-457e-adce-ce59905ea5cb",
        "meta": {
          "profile": [
            "http://hl7.eu/fhir/laboratory/StructureDefinition/Observation-resultslab-eu-lab"
          ]
        },
        "performer": [
          {
            "display": "The Central European Lab"
          }
        ],
        "category": [
          {
            "coding": [
              {
                "system": "http://terminology.hl7.org/CodeSystem/observation-category",
                "code": "laboratory"
              }
            ]
          }
        ],
        "code": {
          "coding": [
            {
              "code": "49765-1",
              "system": "http://loinc.org",
              "display": "Calcium [Mass/volume] in Blood"
            }
          ],
          "text": "Calcium [Mass/volume] in Blood"
        },
        "valueQuantity": {
          "system": "http://unitsofmeasure.org",
          "value": 8.7,
          "unit": "mg/dL",
          "code": "mg/dL"
        },
        "referenceRange": [
          {
            "low": {
              "value": 8.5,
              "code": "mg/dL",
              "system": "http://unitsofmeasure.org"
            }
          },
          {
            "high": {
              "value": 10.5,
              "code": "mg/dL",
              "system": "http://unitsofmeasure.org"
            }
          }
        ],
        "text": {
          "status": "generated",
          "div": "<div xmlns=\"http://www.w3.org/1999/xhtml\"><table class=\"hl7__eu__lab__report\"><tr><th>Test</th><th>20-Mar-2020</th><th>Reference&#xA0;Range</th><th>Unit</th></tr><tr><td>Calcium [Mass/volume] in Blood</td><td>8.7</td><td>8.5 - 10.5</td><td></td><td>mg/dL</td></tr></table></div>"
        },
        "status": "final",
        "subject": {
          "reference": "urn:uuid:5d7906e8-6903-4e39-877b-52b46f19e297",
          "display": "Bethany Begum"
        },
        "effectiveDateTime": "2020-03-20T11:40:40Z",
        "specimen": {
          "reference": "urn:uuid:079a90a6-a9f3-46b3-83d2-a62e2b4bd729"
        }
      }
    },
    {
      "fullUrl": "urn:uuid:02a56b3b-c4c2-4fd5-bf5b-7cb72c7926d0",
      "resource": {
        "resourceType": "Observation",
        "id": "02a56b3b-c4c2-4fd5-bf5b-7cb72c7926d0",
        "meta": {
          "profile": [
            "http://hl7.eu/fhir/laboratory/StructureDefinition/Observation-resultslab-eu-lab"
          ]
        },
        "performer": [
          {
            "display": "The Central European Lab"
          }
        ],
        "category": [
          {
            "coding": [
              {
                "system": "http://terminology.hl7.org/CodeSystem/observation-category",
                "code": "laboratory"
              }
            ]
          }
        ],
        "code": {
          "coding": [
            {
              "code": "2947-0",
              "system": "http://loinc.org",
              "display": "Sodium [Moles/volume] in Blood"
            }
          ],
          "text": "Sodium [Moles/volume] in Blood"
        },
        "valueQuantity": {
          "system": "http://unitsofmeasure.org",
          "value": 139.6,
          "unit": "mmol/L",
          "code": "mmol/L"
        },
        "referenceRange": [
          {
            "low": {
              "value": 135,
              "code": "mmol/L",
              "system": "http://unitsofmeasure.org"
            }
          },
          {
            "high": {
              "value": 145,
              "code": "mmol/L",
              "system": "http://unitsofmeasure.org"
            }
          }
        ],
        "text": {
          "status": "generated",
          "div": "<div xmlns=\"http://www.w3.org/1999/xhtml\"><table class=\"hl7__eu__lab__report\"><tr><th>Test</th><th>20-Mar-2020</th><th>Reference&#xA0;Range</th><th>Unit</th></tr><tr><td>Sodium [Moles/volume] in Blood</td><td>139.6</td><td>135 - 145</td><td></td><td>mmol/L</td></tr></table></div>"
        },
        "status": "final",
        "subject": {
          "reference": "urn:uuid:5d7906e8-6903-4e39-877b-52b46f19e297",
          "display": "Bethany Begum"
        },
        "effectiveDateTime": "2020-03-20T11:40:40Z",
        "specimen": {
          "reference": "urn:uuid:079a90a6-a9f3-46b3-83d2-a62e2b4bd729"
        }
      }
    },
    {
      "fullUrl": "urn:uuid:7aa1abd1-f39f-4376-a71a-5fbe3a23bb7b",
      "resource": {
        "resourceType": "Observation",
        "id": "7aa1abd1-f39f-4376-a71a-5fbe3a23bb7b",
        "meta": {
          "profile": [
            "http://hl7.eu/fhir/laboratory/StructureDefinition/Observation-resultslab-eu-lab"
          ]
        },
        "performer": [
          {
            "display": "The Central European Lab"
          }
        ],
        "category": [
          {
            "coding": [
              {
                "system": "http://terminology.hl7.org/CodeSystem/observation-category",
                "code": "laboratory"
              }
            ]
          }
        ],
        "code": {
          "coding": [
            {
              "code": "6298-4",
              "system": "http://loinc.org",
              "display": "Potassium [Moles/volume] in Blood"
            }
          ],
          "text": "Potassium [Moles/volume] in Blood"
        },
        "valueQuantity": {
          "system": "http://unitsofmeasure.org",
          "value": 4.4,
          "unit": "mmol/L",
          "code": "mmol/L"
        },
        "referenceRange": [
          {
            "low": {
              "value": 3.5,
              "code": "mmol/L",
              "system": "http://unitsofmeasure.org"
            }
          },
          {
            "high": {
              "value": 5.1,
              "code": "mmol/L",
              "system": "http://unitsofmeasure.org"
            }
          }
        ],
        "text": {
          "status": "generated",
          "div": "<div xmlns=\"http://www.w3.org/1999/xhtml\"><table class=\"hl7__eu__lab__report\"><tr><th>Test</th><th>20-Mar-2020</th><th>Reference&#xA0;Range</th><th>Unit</th></tr><tr><td>Potassium [Moles/volume] in Blood</td><td>4.4</td><td>3.5 - 5.1</td><td></td><td>mmol/L</td></tr></table></div>"
        },
        "status": "final",
        "subject": {
          "reference": "urn:uuid:5d7906e8-6903-4e39-877b-52b46f19e297",
          "display": "Bethany Begum"
        },
        "effectiveDateTime": "2020-03-20T11:40:40Z",
        "specimen": {
          "reference": "urn:uuid:079a90a6-a9f3-46b3-83d2-a62e2b4bd729"
        }
      }
    },
    {
      "fullUrl": "urn:uuid:dc5816ec-cffa-4e1f-9685-0131c56cbc49",
      "resource": {
        "resourceType": "Observation",
        "id": "dc5816ec-cffa-4e1f-9685-0131c56cbc49",
        "meta": {
          "profile": [
            "http://hl7.eu/fhir/laboratory/StructureDefinition/Observation-resultslab-eu-lab"
          ]
        },
        "performer": [
          {
            "display": "The Central European Lab"
          }
        ],
        "category": [
          {
            "coding": [
              {
                "system": "http://terminology.hl7.org/CodeSystem/observation-category",
                "code": "laboratory"
              }
            ]
          }
        ],
        "code": {
          "coding": [
            {
              "code": "2069-3",
              "system": "http://loinc.org",
              "display": "Chloride [Moles/volume] in Blood"
            }
          ],
          "text": "Chloride [Moles/volume] in Blood"
        },
        "valueQuantity": {
          "system": "http://unitsofmeasure.org",
          "value": 102.1,
          "unit": "mmol/L",
          "code": "mmol/L"
        },
        "referenceRange": [
          {
            "low": {
              "value": 98,
              "code": "mmol/L",
              "system": "http://unitsofmeasure.org"
            }
          },
          {
            "high": {
              "value": 108,
              "code": "mmol/L",
              "system": "http://unitsofmeasure.org"
            }
          }
        ],
        "text": {
          "status": "generated",
          "div": "<div xmlns=\"http://www.w3.org/1999/xhtml\"><table class=\"hl7__eu__lab__report\"><tr><th>Test</th><th>20-Mar-2020</th><th>Reference&#xA0;Range</th><th>Unit</th></tr><tr><td>Chloride [Moles/volume] in Blood</td><td>102.1</td><td>98 - 108</td><td></td><td>mmol/L</td></tr></table></div>"
        },
        "status": "final",
        "subject": {
          "reference": "urn:uuid:5d7906e8-6903-4e39-877b-52b46f19e297",
          "display": "Bethany Begum"
        },
        "effectiveDateTime": "2020-03-20T11:40:40Z",
        "specimen": {
          "reference": "urn:uuid:079a90a6-a9f3-46b3-83d2-a62e2b4bd729"
        }
      }
    },
    {
      "fullUrl": "urn:uuid:7e3067f5-6c5e-4ca1-9566-431a6ee4a6cf",
      "resource": {
        "resourceType": "Observation",
        "id": "7e3067f5-6c5e-4ca1-9566-431a6ee4a6cf",
        "meta": {
          "profile": [
            "http://hl7.eu/fhir/laboratory/StructureDefinition/Observation-resultslab-eu-lab"
          ]
        },
        "performer": [
          {
            "display": "The Central European Lab"
          }
        ],
        "category": [
          {
            "coding": [
              {
                "system": "http://terminology.hl7.org/CodeSystem/observation-category",
                "code": "laboratory"
              }
            ]
          }
        ],
        "code": {
          "coding": [
            {
              "code": "20565-8",
              "system": "http://loinc.org",
              "display": "Carbon dioxide, total [Moles/volume] in Blood"
            }
          ],
          "text": "Carbon dioxide, total [Moles/volume] in Blood"
        },
        "valueQuantity": {
          "system": "http://unitsofmeasure.org",
          "value": 28.5,
          "unit": "mmol/L",
          "code": "mmol/L"
        },
        "referenceRange": [
          {
            "low": {
              "value": 22,
              "code": "mmol/L",
              "system": "http://unitsofmeasure.org"
            }
          },
          {
            "high": {
              "value": 29,
              "code": "mmol/L",
              "system": "http://unitsofmeasure.org"
            }
          }
        ],
        "text": {
          "status": "generated",
          "div": "<div xmlns=\"http://www.w3.org/1999/xhtml\"><table class=\"hl7__eu__lab__report\"><tr><th>Test</th><th>20-Mar-2020</th><th>Reference&#xA0;Range</th><th>Unit</th></tr><tr><td>Carbon dioxide, total [Moles/volume] in Blood</td><td>28.5</td><td>22 - 29</td><td></td><td>mmol/L</td></tr></table></div>"
        },
        "status": "final",
        "subject": {
          "reference": "urn:uuid:5d7906e8-6903-4e39-877b-52b46f19e297",
          "display": "Bethany Begum"
        },
        "effectiveDateTime": "2020-03-20T11:40:40Z",
        "specimen": {
          "reference": "urn:uuid:079a90a6-a9f3-46b3-83d2-a62e2b4bd729"
        }
      }
    },
    {
      "fullUrl": "urn:uuid:a88d9551-2ea9-4def-adbe-7d875e25aa30",
      "resource": {
        "resourceType": "Observation",
        "id": "a88d9551-2ea9-4def-adbe-7d875e25aa30",
        "meta": {
          "profile": [
            "http://hl7.eu/fhir/laboratory/StructureDefinition/Observation-resultslab-eu-lab"
          ]
        },
        "performer": [
          {
            "display": "The Central European Lab"
          }
        ],
        "category": [
          {
            "coding": [
              {
                "system": "http://terminology.hl7.org/CodeSystem/observation-category",
                "code": "laboratory"
              }
            ]
          }
        ],
        "code": {
          "coding": [
            {
              "code": "2093-3",
              "system": "http://loinc.org",
              "display": "Cholesterol [Mass/volume] in Serum or Plasma"
            }
          ],
          "text": "Cholesterol [Mass/volume] in Serum or Plasma"
        },
        "valueQuantity": {
          "system": "http://unitsofmeasure.org",
          "value": 165.6,
          "unit": "mg/dL",
          "code": "mg/dL"
        },
        "referenceRange": [
          {
            "low": {
              "value": 125,
              "code": "mg/dL",
              "system": "http://unitsofmeasure.org"
            }
          },
          {
            "high": {
              "value": 200,
              "code": "mg/dL",
              "system": "http://unitsofmeasure.org"
            }
          }
        ],
        "text": {
          "status": "generated",
          "div": "<div xmlns=\"http://www.w3.org/1999/xhtml\"><table class=\"hl7__eu__lab__report\"><tr><th>Test</th><th>20-Mar-2020</th><th>Reference&#xA0;Range</th><th>Unit</th></tr><tr><td>Cholesterol [Mass/volume] in Serum or Plasma</td><td>165.6</td><td>125 - 200</td><td></td><td>mg/dL</td></tr></table></div>"
        },
        "status": "final",
        "subject": {
          "reference": "urn:uuid:5d7906e8-6903-4e39-877b-52b46f19e297",
          "display": "Bethany Begum"
        },
        "effectiveDateTime": "2020-03-20T11:40:40Z",
        "specimen": {
          "reference": "urn:uuid:bc06f843-1f41-4b96-8ff7-66ec0dce20f5"
        }
      }
    },
    {
      "fullUrl": "urn:uuid:98147c76-44ba-495c-b9a5-5eb63cb1974e",
      "resource": {
        "resourceType": "Observation",
        "id": "98147c76-44ba-495c-b9a5-5eb63cb1974e",
        "meta": {
          "profile": [
            "http://hl7.eu/fhir/laboratory/StructureDefinition/Observation-resultslab-eu-lab"
          ]
        },
        "performer": [
          {
            "display": "The Central European Lab"
          }
        ],
        "category": [
          {
            "coding": [
              {
                "system": "http://terminology.hl7.org/CodeSystem/observation-category",
                "code": "laboratory"
              }
            ]
          }
        ],
        "code": {
          "coding": [
            {
              "code": "2571-8",
              "system": "http://loinc.org",
              "display": "Triglyceride [Mass/volume] in Serum or Plasma"
            }
          ],
          "text": "Triglyceride [Mass/volume] in Serum or Plasma"
        },
        "valueQuantity": {
          "system": "http://unitsofmeasure.org",
          "value": 121.4,
          "unit": "mg/dL",
          "code": "mg/dL"
        },
        "referenceRange": [
          {
            "low": {
              "value": 35,
              "code": "mg/dL",
              "system": "http://unitsofmeasure.org"
            }
          },
          {
            "high": {
              "value": 150,
              "code": "mg/dL",
              "system": "http://unitsofmeasure.org"
            }
          }
        ],
        "text": {
          "status": "generated",
          "div": "<div xmlns=\"http://www.w3.org/1999/xhtml\"><table class=\"hl7__eu__lab__report\"><tr><th>Test</th><th>20-Mar-2020</th><th>Reference&#xA0;Range</th><th>Unit</th></tr><tr><td>Triglyceride [Mass/volume] in Serum or Plasma</td><td>121.4</td><td>35 - 150</td><td></td><td>mg/dL</td></tr></table></div>"
        },
        "status": "final",
        "subject": {
          "reference": "urn:uuid:5d7906e8-6903-4e39-877b-52b46f19e297",
          "display": "Bethany Begum"
        },
        "effectiveDateTime": "2020-03-20T11:40:40Z",
        "specimen": {
          "reference": "urn:uuid:bc06f843-1f41-4b96-8ff7-66ec0dce20f5"
        }
      }
    },
    {
      "fullUrl": "urn:uuid:11a43d23-0986-458b-bfb0-1476763fb6e3",
      "resource": {
        "resourceType": "Observation",
        "id": "11a43d23-0986-458b-bfb0-1476763fb6e3",
        "meta": {
          "profile": [
            "http://hl7.eu/fhir/laboratory/StructureDefinition/Observation-resultslab-eu-lab"
          ]
        },
        "performer": [
          {
            "display": "The Central European Lab"
          }
        ],
        "category": [
          {
            "coding": [
              {
                "system": "http://terminology.hl7.org/CodeSystem/observation-category",
                "code": "laboratory"
              }
            ]
          }
        ],
        "code": {
          "coding": [
            {
              "code": "18262-6",
              "system": "http://loinc.org",
              "display": "Cholesterol in LDL [Mass/volume] in Serum or Plasma by Direct assay"
            }
          ],
          "text": "Cholesterol in LDL [Mass/volume] in Serum or Plasma by Direct assay"
        },
        "valueQuantity": {
          "system": "http://unitsofmeasure.org",
          "value": 83.1,
          "unit": "mg/dL",
          "code": "mg/dL"
        },
        "referenceRange": [
          {
            "low": {
              "value": 0,
              "code": "mg/dL",
              "system": "http://unitsofmeasure.org"
            }
          },
          {
            "high": {
              "value": 130,
              "code": "mg/dL",
              "system": "http://unitsofmeasure.org"
            }
          }
        ],
        "text": {
          "status": "generated",
          "div": "<div xmlns=\"http://www.w3.org/1999/xhtml\"><table class=\"hl7__eu__lab__report\"><tr><th>Test</th><th>20-Mar-2020</th><th>Reference&#xA0;Range</th><th>Unit</th></tr><tr><td>Cholesterol in LDL [Mass/volume] in Serum or Plasma by Direct assay</td><td>83.1</td><td>0 - 130</td><td></td><td>mg/dL</td></tr></table></div>"
        },
        "status": "final",
        "subject": {
          "reference": "urn:uuid:5d7906e8-6903-4e39-877b-52b46f19e297",
          "display": "Bethany Begum"
        },
        "effectiveDateTime": "2020-03-20T11:40:40Z",
        "specimen": {
          "reference": "urn:uuid:bc06f843-1f41-4b96-8ff7-66ec0dce20f5"
        }
      }
    },
    {
      "fullUrl": "urn:uuid:ae2fe041-b7a2-49c1-b05b-fdce35542707",
      "resource": {
        "resourceType": "Observation",
        "id": "ae2fe041-b7a2-49c1-b05b-fdce35542707",
        "meta": {
          "profile": [
            "http://hl7.eu/fhir/laboratory/StructureDefinition/Observation-resultslab-eu-lab"
          ]
        },
        "performer": [
          {
            "display": "The Central European Lab"
          }
        ],
        "category": [
          {
            "coding": [
              {
                "system": "http://terminology.hl7.org/CodeSystem/observation-category",
                "code": "laboratory"
              }
            ]
          }
        ],
        "code": {
          "coding": [
            {
              "code": "2085-9",
              "system": "http://loinc.org",
              "display": "Cholesterol in HDL [Mass/volume] in Serum or Plasma"
            }
          ],
          "text": "Cholesterol in HDL [Mass/volume] in Serum or Plasma"
        },
        "valueQuantity": {
          "system": "http://unitsofmeasure.org",
          "value": 58.2,
          "unit": "mg/dL",
          "code": "mg/dL"
        },
        "referenceRange": [
          {
            "low": {
              "value": 40,
              "code": "mg/dL",
              "system": "http://unitsofmeasure.org"
            }
          },
          {
            "high": {
              "value": 60,
              "code": "mg/dL",
              "system": "http://unitsofmeasure.org"
            }
          }
        ],
        "text": {
          "status": "generated",
          "div": "<div xmlns=\"http://www.w3.org/1999/xhtml\"><table class=\"hl7__eu__lab__report\"><tr><th>Test</th><th>20-Mar-2020</th><th>Reference&#xA0;Range</th><th>Unit</th></tr><tr><td>Cholesterol in HDL [Mass/volume] in Serum or Plasma</td><td>58.2</td><td>40 - 60</td><td></td><td>mg/dL</td></tr></table></div>"
        },
        "status": "final",
        "subject": {
          "reference": "urn:uuid:5d7906e8-6903-4e39-877b-52b46f19e297",
          "display": "Bethany Begum"
        },
        "effectiveDateTime": "2020-03-20T11:40:40Z",
        "specimen": {
          "reference": "urn:uuid:bc06f843-1f41-4b96-8ff7-66ec0dce20f5"
        }
      }
    },
    {
      "fullUrl": "urn:uuid:095a01ed-4e32-459b-871c-0493b5bf866a",
      "resource": {
        "resourceType": "Device",
        "id": "095a01ed-4e32-459b-871c-0493b5bf866a",
        "deviceName": [
          {
            "name": "SYNDERAI Synthetic Generator",
            "type": "manufacturer-name"
          }
        ],
        "version": [
          {
            "value": "5.0"
          }
        ],
        "text": {
          "status": "generated",
          "div": "<div xmlns=\"http://www.w3.org/1999/xhtml\">SYNDERAI Synthetic Generator v5.0</div>"
        },
        "status": "active\"",
        "distinctIdentifier": "synderai-generator-50",
        "manufacturer": "SYNDERAI Project"
      }
    },
    {
      "fullUrl": "urn:uuid:c1842d0a-9af3-47e0-b4bb-91b78e145c01",
      "resource": {
        "resourceType": "Provenance",
        "id": "c1842d0a-9af3-47e0-b4bb-91b78e145c01",
        "target": [
          {
            "reference": "Patient/5d7906e8-6903-4e39-877b-52b46f19e297"
          },
          {
            "reference": "Bundle/f45e9aa9-c344-4731-92a7-8174f2d90ae9"
          },
          {
            "reference": "Composition/4683b244-1ba3-42b1-b4cc-a42c3c99f9b9"
          },
          {
            "reference": "PractitionerRole/563c43db-64b2-43f5-a8d9-b0f942f3e5b9"
          },
          {
            "reference": "Practitioner/ff45a9a0-3fa2-4258-9cc3-85a5b6934c9f"
          },
          {
            "reference": "PractitionerRole/710b430e-93f6-4829-9d65-a4be1c1d54d5"
          },
          {
            "reference": "Organization/73f83e5b-cdde-4802-8104-d43e44e9aff5"
          }
        ],
        "activity": {
          "text": "Synthetic Example Data Generation"
        },
        "policy": [
          "https://synderai.net/synderai-synthetic-data-policy"
        ],
        "agent": [
          {
            "type": {
              "text": "author"
            },
            "who": {
              "reference": "Device/095a01ed-4e32-459b-871c-0493b5bf866a"
            }
          }
        ],
        "reason": [
          {
            "text": "Interoperability Testing and Training (non-clinical use)"
          }
        ],
        "text": {
          "status": "generated",
          "div": "<div xmlns=\"http://www.w3.org/1999/xhtml\">Provenance for SYNDERAI Synthetic Example Data Resource</div>"
        },
        "recorded": "2020-03-20T12:40:40Z"
      }
    },
    {
      "fullUrl": "urn:uuid:563c43db-64b2-43f5-a8d9-b0f942f3e5b9",
      "resource": {
        "resourceType": "PractitionerRole",
        "id": "563c43db-64b2-43f5-a8d9-b0f942f3e5b9",
        "meta": {
          "profile": [
            "http://hl7.eu/fhir/base/StructureDefinition/practitionerRole-eu"
          ]
        },
        "text": {
          "status": "generated",
          "div": "<div xmlns=\"http://www.w3.org/1999/xhtml\">Laboratory Role Id: 563c43db-64b2-43f5-a8d9-b0f942f3e5b9</div>"
        },
        "practitioner": {
          "reference": "urn:uuid:ff45a9a0-3fa2-4258-9cc3-85a5b6934c9f"
        }
      }
    },
    {
      "fullUrl": "urn:uuid:ff45a9a0-3fa2-4258-9cc3-85a5b6934c9f",
      "resource": {
        "resourceType": "Practitioner",
        "id": "ff45a9a0-3fa2-4258-9cc3-85a5b6934c9f",
        "meta": {
          "profile": [
            "http://hl7.eu/fhir/base/StructureDefinition/practitioner-eu"
          ]
        },
        "identifier": [
          {
            "assigner": {
              "display": "HL7 Europe"
            },
            "system": "urn:oid:2.16.840.1.113883.2.51.999",
            "value": "e634eb69-1816-4b49-b840-8e742060ac15"
          }
        ],
        "name": [
          {
            "prefix": [
              "dr"
            ],
            "given": [
              "Ex"
            ],
            "family": "Ample"
          }
        ],
        "address": [
          {
            "line": [
              "Laboratoire Central Europenne",
              "Boulevard du Jardin Botanique 32"
            ],
            "postalCode": "1000",
            "city": "Brussels",
            "country": "Belgium"
          }
        ],
        "text": {
          "status": "generated",
          "div": "<div xmlns=\"http://www.w3.org/1999/xhtml\">Laboratory: Laboratoire Central Europenne, 1000 Brussels, Belgium</div>"
        }
      }
    }
  ],
  "type": "document",
  "timestamp": "2020-03-20T12:40:40Z"
}
