{
  "resourceType": "Bundle",
  "id": "a6b91af3-91c1-4293-ad62-9d792aad1a95",
  "meta": {
    "profile": [
      "http://hl7.eu/fhir/laboratory/StructureDefinition/Bundle-eu-lab"
    ]
  },
  "identifier": {
    "assigner": {
      "display": "HL7 Europe"
    },
    "system": "urn:oid:2.16.840.1.113883.2.51.999",
    "value": "e32febca-a376-420d-9cac-774a105b543f"
  },
  "entry": [
    {
      "fullUrl": "urn:uuid:770792ef-dae6-4a3c-beec-fb6aec0b2aaa",
      "resource": {
        "resourceType": "Composition",
        "id": "770792ef-dae6-4a3c-beec-fb6aec0b2aaa",
        "meta": {
          "profile": [
            "http://hl7.eu/fhir/laboratory/StructureDefinition/Composition-eu-lab"
          ]
        },
        "identifier": {
          "assigner": {
            "display": "HL7 Europe"
          },
          "system": "urn:oid:2.16.840.1.113883.2.51.999",
          "value": "901cafbe-9a6b-4216-aeb7-9c50a30d84c6"
        },
        "author": [
          {
            "reference": "urn:uuid:65b183cb-14c8-42c9-aa56-d486c6de52b9"
          }
        ],
        "category": [
          {
            "coding": [
              {
                "code": "26436-6",
                "system": "http://loinc.org",
                "display": "Laboratory studies (set)"
              }
            ]
          }
        ],
        "type": {
          "coding": [
            {
              "code": "11502-2",
              "system": "http://loinc.org",
              "display": "Laboratory report"
            }
          ],
          "text": "Laboratory Report"
        },
        "section": [
          {
            "code": {
              "coding": [
                {
                  "code": "26436-6",
                  "system": "http://loinc.org",
                  "display": "Laboratory studies (set)"
                }
              ],
              "text": "Laboratory studies"
            },
            "section": [
              {
                "code": {
                  "coding": [
                    {
                      "code": "$18719-5",
                      "system": "http://loinc.org",
                      "display": "Chemistry studies (set)"
                    }
                  ],
                  "text": "Chemistry"
                },
                "entry": [
                  {
                    "reference": "urn:uuid:21377a45-b940-4171-af24-877788cc4936"
                  },
                  {
                    "reference": "urn:uuid:4f682bb8-1b48-4b6f-b2fe-8d1689000a19"
                  },
                  {
                    "reference": "urn:uuid:33306970-f663-416b-bd7c-6fed9c8e2a3d"
                  },
                  {
                    "reference": "urn:uuid:87d9de4d-d2ac-4b31-bc41-cc0689eec4d6"
                  },
                  {
                    "reference": "urn:uuid:6a663b09-531a-4030-9145-ea1474c220ce"
                  },
                  {
                    "reference": "urn:uuid:17ace81e-9077-4285-a5a2-cd0c430136f5"
                  },
                  {
                    "reference": "urn:uuid:869a53f2-42f8-45e0-8bc3-df17510c5944"
                  },
                  {
                    "reference": "urn:uuid:4622bf44-1720-486d-8780-0f0506d48cce"
                  },
                  {
                    "reference": "urn:uuid:1fa204ed-e69b-4c0a-8a26-20075d87a79c"
                  },
                  {
                    "reference": "urn:uuid:4b11a93a-cd67-44e2-9a48-16ee0f8aa042"
                  },
                  {
                    "reference": "urn:uuid:a45ec7c0-cb5d-4034-9160-f7ede6a0733f"
                  },
                  {
                    "reference": "urn:uuid:dda567a0-7c6a-4445-b133-2972ff90c2af"
                  },
                  {
                    "reference": "urn:uuid:bad4e6f1-fa27-4b35-9a45-4fb6a217b4d0"
                  },
                  {
                    "reference": "urn:uuid:47c142bb-f7c0-46e2-b806-f6df53096c95"
                  },
                  {
                    "reference": "urn:uuid:55ae39c5-bcdf-4e7e-be68-ae1c792b0e3c"
                  },
                  {
                    "reference": "urn:uuid:ae3be663-a0f6-4825-8e54-eb11c2ebdfaf"
                  },
                  {
                    "reference": "urn:uuid:78aa1925-4dd1-4b3c-b6a1-dd6377c14fb2"
                  },
                  {
                    "reference": "urn:uuid:80d35b30-4798-42ac-a4ab-8d5609fcbec0"
                  }
                ],
                "text": {
                  "status": "generated",
                  "div": "<div xmlns=\"http://www.w3.org/1999/xhtml\"><h3>Chemistry</h3><table class=\"hl7__eu__lab__report\"><thead><tr><th>Test</th><th>10-AUG-2021</th><th>Reference&#xA0;Range</th><th>Unit</th></tr></thead><tbody><tr><td>Glucose [Mass/volume] in Serum or Plasma</td><td>87.4</td><td>70 - 99</td><td>mg/dL</td></tr><tr><td>Urea nitrogen [Mass/volume] in Serum or Plasma</td><td>15.8</td><td>7 - 50</td><td>mg/dL</td></tr><tr><td>Creatinine [Mass/volume] in Serum or Plasma</td><td><strong>2.0 H</strong></td><td>0.6 - 1.1</td><td>mg/dL</td></tr><tr><td>Calcium [Mass/volume] in Serum or Plasma</td><td>10.1</td><td>8.6 - 10.4</td><td>mg/dL</td></tr><tr><td>Sodium [Moles/volume] in Serum or Plasma</td><td>141.3</td><td>135 - 145</td><td>mmol/L</td></tr><tr><td>Potassium [Moles/volume] in Serum or Plasma</td><td>4.3</td><td>3.5 - 5.1</td><td>mmol/L</td></tr><tr><td>Chloride [Moles/volume] in Serum or Plasma</td><td>105.8</td><td>98 - 108</td><td>mmol/L</td></tr><tr><td>Carbon dioxide, total [Moles/volume] in Serum or Plasma</td><td><strong>20.9 L</strong></td><td>22 - 32</td><td>mmol/L</td></tr><tr><td>Ketones [Presence] in Urine by Test strip</td><td>Urine ketone test = ++</td><td></td><td></td></tr><tr><td>Hemoglobin A1c/Hemoglobin.total in Blood</td><td><strong>2.8 L</strong></td><td>4 - 6.4</td><td>%</td></tr><tr><td>Glucose [Mass/volume] in Blood</td><td>87.4</td><td>70 - 100</td><td>mg/dL</td></tr><tr><td>Urea nitrogen [Mass/volume] in Blood</td><td>15.8</td><td>7 - 43</td><td>mg/dL</td></tr><tr><td>Creatinine [Mass/volume] in Blood</td><td><strong>3.0 H</strong></td><td>0.6 - 1.1</td><td>mg/dL</td></tr><tr><td>Calcium [Mass/volume] in Blood</td><td>10.1</td><td>8.5 - 10.5</td><td>mg/dL</td></tr><tr><td>Sodium [Moles/volume] in Blood</td><td>141.3</td><td>135 - 145</td><td>mmol/L</td></tr><tr><td>Potassium [Moles/volume] in Blood</td><td>4.3</td><td>3.5 - 5.1</td><td>mmol/L</td></tr><tr><td>Chloride [Moles/volume] in Blood</td><td>105.8</td><td>98 - 108</td><td>mmol/L</td></tr><tr><td>Carbon dioxide, total [Moles/volume] in Blood</td><td><strong>20.9 L</strong></td><td>22 - 29</td><td>mmol/L</td></tr></tbody></table></div>"
                },
                "title": "Chemistry"
              },
              {
                "code": {
                  "coding": [
                    {
                      "code": "$18729-4",
                      "system": "http://loinc.org",
                      "display": "Urinalysis studies (set)"
                    }
                  ],
                  "text": "Urinalysis"
                },
                "entry": [
                  {
                    "reference": "urn:uuid:35fd34a3-0d18-4361-b52a-9a54232ddee6"
                  },
                  {
                    "reference": "urn:uuid:1d19f089-91ce-4ff4-908a-729d7477449a"
                  },
                  {
                    "reference": "urn:uuid:5241548f-2060-4552-a580-231e22121e2f"
                  },
                  {
                    "reference": "urn:uuid:4bfd2cf1-102a-4247-b1d0-df7cc51e3a23"
                  },
                  {
                    "reference": "urn:uuid:6890969f-58e5-437e-9b9c-31b86f2411c8"
                  },
                  {
                    "reference": "urn:uuid:eb0d5b84-ec87-4842-97fe-8e8e629f0e9c"
                  },
                  {
                    "reference": "urn:uuid:3be03684-c91f-4e73-a935-e72d5d0b9112"
                  },
                  {
                    "reference": "urn:uuid:b0ff3391-308b-493c-bb60-f1fec6d051cc"
                  },
                  {
                    "reference": "urn:uuid:7a5df018-b689-4f0d-924d-a4cb4adb236e"
                  },
                  {
                    "reference": "urn:uuid:2d60210d-6dd6-4606-a4b8-361f745a3569"
                  },
                  {
                    "reference": "urn:uuid:9702d269-9584-435e-9f15-2faa9d64c837"
                  },
                  {
                    "reference": "urn:uuid:3314c4c2-c11c-4a33-98a9-f6697abcf8c3"
                  }
                ],
                "text": {
                  "status": "generated",
                  "div": "<div xmlns=\"http://www.w3.org/1999/xhtml\"><h3>Urinalysis</h3><table class=\"hl7__eu__lab__report\"><thead><tr><th>Test</th><th>10-AUG-2021</th><th>Reference&#xA0;Range</th><th>Unit</th></tr></thead><tbody><tr><td>Glucose [Mass/volume] in Urine by Test strip</td><td><strong>1.8 H</strong></td><td>0.8 - 0</td><td>mg/dL</td></tr><tr><td>Glucose [Presence] in Urine by Test strip</td><td>++</td><td></td><td></td></tr><tr><td>Bilirubin.total [Mass/volume] in Urine by Test strip</td><td>0.8</td><td>0 - 1</td><td>mg/dL</td></tr><tr><td>Bilirubin.total [Presence] in Urine by Test strip</td><td>Finding of bilirubin in urine</td><td></td><td></td></tr><tr><td>Ketones [Mass/volume] in Urine by Test strip</td><td><strong>15.9 H</strong></td><td>0 - 4</td><td>mg/dL</td></tr><tr><td>Specific gravity of Urine by Test strip</td><td><strong>1.0 L</strong></td><td>1.005 - 1.03</td><td>{nominal}</td></tr><tr><td>pH of Urine by Test strip</td><td>6.8</td><td>4.6 - 7</td><td>pH</td></tr><tr><td>Protein [Mass/volume] in Urine by Test strip</td><td><strong>396.1 H</strong></td><td>0 - 14</td><td>mg/dL</td></tr><tr><td>Protein [Presence] in Urine by Test strip</td><td>Urine protein test = ++</td><td></td><td></td></tr><tr><td>Nitrite [Presence] in Urine by Test strip</td><td>Urine nitrite negative</td><td></td><td></td></tr><tr><td>Hemoglobin [Presence] in Urine by Test strip</td><td>Urine blood test = negative</td><td></td><td></td></tr><tr><td>Leukocyte esterase [Presence] in Urine by Test strip</td><td>Urine leukocyte test negative</td><td></td><td></td></tr></tbody></table></div>"
                },
                "title": "Urinalysis"
              },
              {
                "code": {
                  "coding": [
                    {
                      "code": "$LP7846-1",
                      "system": "http://loinc.org",
                      "display": "Specimen information"
                    }
                  ],
                  "text": "Specimen information"
                },
                "entry": [
                  {
                    "reference": "urn:uuid:816c09e3-4471-41d2-8a59-d988294e97e2"
                  },
                  {
                    "reference": "urn:uuid:86c114bf-6295-41ec-8e28-a03b6ef72df4"
                  },
                  {
                    "reference": "urn:uuid:c794c40c-8192-4883-90de-2b026b6093ce"
                  },
                  {
                    "reference": "urn:uuid:107b5914-132e-43e3-a1f9-4c0abb326a66"
                  }
                ],
                "text": {
                  "status": "generated",
                  "div": "<div xmlns=\"http://www.w3.org/1999/xhtml\"><h3>Specimen information</h3><table class=\"hl7__eu__lab__report\"><thead><tr><th>Test</th><th>10-AUG-2021</th><th>Specimen</th><th></th></tr></thead><tbody><tr><td>Appearance of Urine</td><td>Cloudy urine</td><td>Urine</td><td></td></tr><tr><td>Odor of Urine</td><td>Urine smell ammoniacal</td><td>Urine</td><td></td></tr><tr><td>Clarity of Urine</td><td>Translucent</td><td>Urine</td><td></td></tr><tr><td>Color of Urine</td><td>Brown color</td><td>Urine</td><td></td></tr></tbody></table></div>"
                },
                "title": "Specimen information"
              }
            ],
            "title": "Laboratory Report"
          },
          {
            "text": {
              "status": "generated",
              "div": "<div xmlns=\"http://www.w3.org/1999/xhtml\"><h3>Annotation</h3><table class=\"hl7__eu__lab__report\"><tr><th>Conclusion and Recommendations based on this report and previous findings known to us</th></tr><tr><td>The patient shows significantly elevated creatinine, proteinuria, glycosuria, and ketonuria, suggesting impaired renal function and possible nephrotic syndrome or diabetic ketoacidosis, though HbA1c is unexpectedly low. Urine is cloudy, brown, and ammoniacal, but no evidence of infection (negative nitrites/leukocytes). Low serum CO₂ may indicate metabolic acidosis. Recommend urgent clinical correlation and nephrology evaluation for acute or chronic kidney disease and further assessment of metabolic status.</td></tr></table></div>"
            },
            "code": {
              "coding": [
                {
                  "system": "http://loinc.org",
                  "code": "48767-8",
                  "display": "Annotation comment"
                }
              ]
            },
            "title": "Annotation comment"
          }
        ],
        "status": "final",
        "subject": {
          "reference": "urn:uuid:202736da-0121-4029-8c83-ddc984199259",
          "display": "Meaghan Neary"
        },
        "date": "2021-08-10T00:11:04Z",
        "title": "Laboratory Report",
        "confidentiality": "N"
      }
    },
    {
      "fullUrl": "urn:uuid:d8497762-6c24-4694-a231-f1761ff00d01",
      "resource": {
        "resourceType": "DiagnosticReport",
        "id": "d8497762-6c24-4694-a231-f1761ff00d01",
        "meta": {
          "profile": [
            "http://hl7.eu/fhir/laboratory/StructureDefinition/DiagnosticReport-eu-lab"
          ]
        },
        "identifier": [
          {
            "assigner": {
              "display": "HL7 Europe"
            },
            "system": "urn:oid:2.16.840.1.113883.2.51.999",
            "value": "a08bb07a-9adb-4e8a-9717-da7e8e4e9de3"
          }
        ],
        "extension": [
          {
            "url": "http://hl7.org/fhir/5.0/StructureDefinition/extension-DiagnosticReport.composition",
            "valueReference": {
              "reference": "urn:uuid:901cafbe-9a6b-4216-aeb7-9c50a30d84c6"
            }
          }
        ],
        "category": [
          {
            "coding": [
              {
                "code": "26436-6",
                "system": "http://loinc.org",
                "display": "Laboratory studies (set)"
              }
            ]
          }
        ],
        "specimen": [
          {
            "reference": "urn:uuid:e250bd95-84a1-4a4d-bf1f-79472be695d7"
          },
          {
            "reference": "urn:uuid:f589bb60-d544-4c00-afa7-57eedf118a53"
          },
          {
            "reference": "urn:uuid:cf8a8a1b-cc8b-45b7-9bf4-623a9e7a0ad0"
          }
        ],
        "result": [
          {
            "reference": "urn:uuid:21377a45-b940-4171-af24-877788cc4936"
          },
          {
            "reference": "urn:uuid:4f682bb8-1b48-4b6f-b2fe-8d1689000a19"
          },
          {
            "reference": "urn:uuid:33306970-f663-416b-bd7c-6fed9c8e2a3d"
          },
          {
            "reference": "urn:uuid:87d9de4d-d2ac-4b31-bc41-cc0689eec4d6"
          },
          {
            "reference": "urn:uuid:6a663b09-531a-4030-9145-ea1474c220ce"
          },
          {
            "reference": "urn:uuid:17ace81e-9077-4285-a5a2-cd0c430136f5"
          },
          {
            "reference": "urn:uuid:869a53f2-42f8-45e0-8bc3-df17510c5944"
          },
          {
            "reference": "urn:uuid:4622bf44-1720-486d-8780-0f0506d48cce"
          },
          {
            "reference": "urn:uuid:816c09e3-4471-41d2-8a59-d988294e97e2"
          },
          {
            "reference": "urn:uuid:86c114bf-6295-41ec-8e28-a03b6ef72df4"
          },
          {
            "reference": "urn:uuid:c794c40c-8192-4883-90de-2b026b6093ce"
          },
          {
            "reference": "urn:uuid:107b5914-132e-43e3-a1f9-4c0abb326a66"
          },
          {
            "reference": "urn:uuid:35fd34a3-0d18-4361-b52a-9a54232ddee6"
          },
          {
            "reference": "urn:uuid:1d19f089-91ce-4ff4-908a-729d7477449a"
          },
          {
            "reference": "urn:uuid:5241548f-2060-4552-a580-231e22121e2f"
          },
          {
            "reference": "urn:uuid:4bfd2cf1-102a-4247-b1d0-df7cc51e3a23"
          },
          {
            "reference": "urn:uuid:6890969f-58e5-437e-9b9c-31b86f2411c8"
          },
          {
            "reference": "urn:uuid:1fa204ed-e69b-4c0a-8a26-20075d87a79c"
          },
          {
            "reference": "urn:uuid:eb0d5b84-ec87-4842-97fe-8e8e629f0e9c"
          },
          {
            "reference": "urn:uuid:3be03684-c91f-4e73-a935-e72d5d0b9112"
          },
          {
            "reference": "urn:uuid:b0ff3391-308b-493c-bb60-f1fec6d051cc"
          },
          {
            "reference": "urn:uuid:7a5df018-b689-4f0d-924d-a4cb4adb236e"
          },
          {
            "reference": "urn:uuid:2d60210d-6dd6-4606-a4b8-361f745a3569"
          },
          {
            "reference": "urn:uuid:9702d269-9584-435e-9f15-2faa9d64c837"
          },
          {
            "reference": "urn:uuid:3314c4c2-c11c-4a33-98a9-f6697abcf8c3"
          },
          {
            "reference": "urn:uuid:4b11a93a-cd67-44e2-9a48-16ee0f8aa042"
          },
          {
            "reference": "urn:uuid:a45ec7c0-cb5d-4034-9160-f7ede6a0733f"
          },
          {
            "reference": "urn:uuid:dda567a0-7c6a-4445-b133-2972ff90c2af"
          },
          {
            "reference": "urn:uuid:bad4e6f1-fa27-4b35-9a45-4fb6a217b4d0"
          },
          {
            "reference": "urn:uuid:47c142bb-f7c0-46e2-b806-f6df53096c95"
          },
          {
            "reference": "urn:uuid:55ae39c5-bcdf-4e7e-be68-ae1c792b0e3c"
          },
          {
            "reference": "urn:uuid:ae3be663-a0f6-4825-8e54-eb11c2ebdfaf"
          },
          {
            "reference": "urn:uuid:78aa1925-4dd1-4b3c-b6a1-dd6377c14fb2"
          },
          {
            "reference": "urn:uuid:80d35b30-4798-42ac-a4ab-8d5609fcbec0"
          }
        ],
        "status": "registered",
        "code": {
          "coding": [
            {
              "code": "11502-2",
              "system": "http://loinc.org",
              "display": "Laboratory report"
            }
          ]
        },
        "subject": {
          "reference": "urn:uuid:202736da-0121-4029-8c83-ddc984199259",
          "display": "Meaghan Neary"
        }
      }
    },
    {
      "fullUrl": "urn:uuid:202736da-0121-4029-8c83-ddc984199259",
      "resource": {
        "resourceType": "Patient",
        "id": "202736da-0121-4029-8c83-ddc984199259",
        "meta": {
          "security": [
            {
              "system": "http://terminology.hl7.org/CodeSystem/v3-ActReason",
              "code": "HTEST"
            },
            {
              "system": "http://terminology.hl7.org/CodeSystem/v3-ActReason",
              "code": "TRAIN"
            }
          ],
          "tag": [
            {
              "system": "https://synderai.net/fhir/CodeSystem/tags",
              "code": "synthetic",
              "display": "SYNDERAI Synthetic data"
            }
          ],
          "profile": [
            "http://hl7.eu/fhir/base/StructureDefinition/patient-eu-core"
          ]
        },
        "identifier": [
          {
            "type": {
              "coding": [
                {
                  "code": "PT",
                  "system": "http://terminology.hl7.org/CodeSystem/v2-0203"
                }
              ]
            },
            "system": "http://ec.europa.eu/identifier/eci",
            "value": "1586-567257-8"
          },
          {
            "type": {
              "coding": [
                {
                  "code": "MR",
                  "system": "http://terminology.hl7.org/CodeSystem/v2-0203"
                }
              ]
            },
            "system": "http://local.setting.eu/identifier",
            "value": "443e6379-f231-b364-3ccb-644740a1aa2a"
          }
        ],
        "name": [
          {
            "family": "Neary"
          },
          {
            "given": [
              "Meaghan"
            ]
          },
          {
            "text": "Meaghan Neary"
          }
        ],
        "address": [
          {
            "line": [
              "64 Linskey Street"
            ],
            "use": "home",
            "type": "physical",
            "postalCode": "D02",
            "city": "Dublin",
            "country": "Ireland"
          }
        ],
        "telecom": [
          {
            "system": "phone",
            "value": "001-967-573-0911x465"
          }
        ],
        "extension": [
          {
            "url": "http://hl7.org/fhir/StructureDefinition/patient-nationality",
            "valueCodeableConcept": {
              "coding": [
                {
                  "code": "IE",
                  "system": "http://hl7.org/fhir/ValueSet/country"
                }
              ]
            }
          }
        ],
        "text": {
          "status": "generated",
          "div": "<div xmlns=\"http://www.w3.org/1999/xhtml\"><table class=\"hl7__ips\"><tr><td>Meaghan Neary</td><td>female</td><td>19-Dec-1960</td></tr></table></div>"
        },
        "gender": "female",
        "birthDate": "1960-12-19"
      }
    },
    {
      "fullUrl": "urn:uuid:694992fb-1fda-4358-be05-64bc31c50b9d",
      "resource": {
        "resourceType": "ServiceRequest",
        "id": "694992fb-1fda-4358-be05-64bc31c50b9d",
        "meta": {
          "profile": [
            "http://hl7.eu/fhir/laboratory/StructureDefinition/ServiceRequest-eu-lab"
          ]
        },
        "identifier": [
          {
            "system": "http://example.org",
            "value": "2ff2558f-59b4-4873-a11b-872f24b3a5ce"
          }
        ],
        "specimen": [
          {
            "reference": "urn:uuid:e250bd95-84a1-4a4d-bf1f-79472be695d7"
          },
          {
            "reference": "urn:uuid:f589bb60-d544-4c00-afa7-57eedf118a53"
          },
          {
            "reference": "urn:uuid:cf8a8a1b-cc8b-45b7-9bf4-623a9e7a0ad0"
          }
        ],
        "reasonCode": [
          {
            "coding": [
              {
                "code": "55822004",
                "system": "http://snomed.info/sct",
                "display": "Hyperlipidemia"
              }
            ]
          },
          {
            "coding": [
              {
                "code": "433144002",
                "system": "http://snomed.info/sct",
                "display": "Chronic kidney disease stage 3"
              }
            ]
          },
          {
            "coding": [
              {
                "code": "157141000119108",
                "system": "http://snomed.info/sct",
                "display": "Proteinuria due to type 2 diabetes mellitus"
              }
            ]
          },
          {
            "coding": [
              {
                "code": "431856006",
                "system": "http://snomed.info/sct",
                "display": "Chronic kidney disease stage 2"
              }
            ]
          },
          {
            "coding": [
              {
                "code": "90781000119102",
                "system": "http://snomed.info/sct",
                "display": "Microalbuminuria due to type 2 diabetes mellitus"
              }
            ]
          },
          {
            "coding": [
              {
                "code": "127013003",
                "system": "http://snomed.info/sct",
                "display": "Disorder of kidney due to diabetes mellitus"
              }
            ]
          },
          {
            "coding": [
              {
                "code": "431855005",
                "system": "http://snomed.info/sct",
                "display": "Chronic kidney disease stage 1"
              }
            ]
          },
          {
            "coding": [
              {
                "code": "237602007",
                "system": "http://snomed.info/sct",
                "display": "Metabolic syndrome X"
              }
            ]
          },
          {
            "coding": [
              {
                "code": "271737000",
                "system": "http://snomed.info/sct",
                "display": "Anemia"
              }
            ]
          },
          {
            "coding": [
              {
                "code": "15777000",
                "system": "http://snomed.info/sct",
                "display": "Prediabetes"
              }
            ]
          },
          {
            "coding": [
              {
                "code": "59621000",
                "system": "http://snomed.info/sct",
                "display": "Essential hypertension"
              }
            ]
          }
        ],
        "status": "active",
        "intent": "order",
        "code": {
          "coding": [
            {
              "code": "108252007",
              "system": "http://snomed.info/sct",
              "display": "Laboratory procedure"
            }
          ]
        },
        "subject": {
          "reference": "urn:uuid:202736da-0121-4029-8c83-ddc984199259",
          "display": "Meaghan Neary"
        },
        "requester": {
          "reference": "urn:uuid:0c7700a9-a3f8-4322-9f1a-55a4ae078fd7"
        }
      }
    },
    {
      "fullUrl": "urn:uuid:0c7700a9-a3f8-4322-9f1a-55a4ae078fd7",
      "resource": {
        "resourceType": "PractitionerRole",
        "id": "0c7700a9-a3f8-4322-9f1a-55a4ae078fd7",
        "meta": {
          "profile": [
            "http://hl7.eu/fhir/base/StructureDefinition/practitionerRole-eu"
          ]
        },
        "text": {
          "status": "generated",
          "div": "<div xmlns=\"http://www.w3.org/1999/xhtml\">Provider Role Id: 0c7700a9-a3f8-4322-9f1a-55a4ae078fd7</div>"
        },
        "organization": {
          "reference": "urn:uuid:77b234b2-88db-43aa-8b3f-c0cc9a6b18a4"
        }
      }
    },
    {
      "fullUrl": "urn:uuid:77b234b2-88db-43aa-8b3f-c0cc9a6b18a4",
      "resource": {
        "resourceType": "Organization",
        "id": "77b234b2-88db-43aa-8b3f-c0cc9a6b18a4",
        "meta": {
          "profile": [
            "http://hl7.eu/fhir/base/StructureDefinition/organization-eu"
          ]
        },
        "identifier": [
          {
            "assigner": {
              "display": "HL7 Europe"
            },
            "system": "urn:oid:2.16.840.1.113883.2.51.999",
            "value": "b31b3b72-2b14-4a70-b6b4-c284acf0e9fe"
          }
        ],
        "address": [
          {
            "line": [
              "Parnell Square West nan"
            ],
            "city": "Dublin",
            "postalCode": "D01",
            "country": "Ireland"
          }
        ],
        "text": {
          "status": "generated",
          "div": "<div xmlns=\"http://www.w3.org/1999/xhtml\">Provider Organization: Rotunda Hospital</div>"
        },
        "name": "Rotunda Hospital"
      }
    },
    {
      "fullUrl": "urn:uuid:e250bd95-84a1-4a4d-bf1f-79472be695d7",
      "resource": {
        "resourceType": "Specimen",
        "id": "e250bd95-84a1-4a4d-bf1f-79472be695d7",
        "meta": {
          "profile": [
            "http://hl7.eu/fhir/laboratory/StructureDefinition/Specimen-eu-lab"
          ]
        },
        "collection": {
          "collectedDateTime": "2021-08-09"
        },
        "text": {
          "status": "generated",
          "div": "<div xmlns=\"http://www.w3.org/1999/xhtml\"><table class=\"hl7__eu__lab__report\"><tr><th>Specimen</th><th>Collection Date</th></tr><tr><td>Acellular blood (serum or plasma) specimen</td><td><span class=\"nb\">09-Aug-2021</span></td></tr></table></div>"
        },
        "type": {
          "coding": [
            {
              "code": "122592007",
              "system": "http://snomed.info/sct",
              "display": "Acellular blood (serum or plasma) specimen"
            }
          ]
        }
      }
    },
    {
      "fullUrl": "urn:uuid:f589bb60-d544-4c00-afa7-57eedf118a53",
      "resource": {
        "resourceType": "Specimen",
        "id": "f589bb60-d544-4c00-afa7-57eedf118a53",
        "meta": {
          "profile": [
            "http://hl7.eu/fhir/laboratory/StructureDefinition/Specimen-eu-lab"
          ]
        },
        "collection": {
          "collectedDateTime": "2021-08-09"
        },
        "text": {
          "status": "generated",
          "div": "<div xmlns=\"http://www.w3.org/1999/xhtml\"><table class=\"hl7__eu__lab__report\"><tr><th>Specimen</th><th>Collection Date</th></tr><tr><td>Urine specimen</td><td><span class=\"nb\">09-Aug-2021</span></td></tr></table></div>"
        },
        "type": {
          "coding": [
            {
              "code": "122575003",
              "system": "http://snomed.info/sct",
              "display": "Urine specimen"
            }
          ]
        }
      }
    },
    {
      "fullUrl": "urn:uuid:cf8a8a1b-cc8b-45b7-9bf4-623a9e7a0ad0",
      "resource": {
        "resourceType": "Specimen",
        "id": "cf8a8a1b-cc8b-45b7-9bf4-623a9e7a0ad0",
        "meta": {
          "profile": [
            "http://hl7.eu/fhir/laboratory/StructureDefinition/Specimen-eu-lab"
          ]
        },
        "collection": {
          "collectedDateTime": "2021-08-09"
        },
        "text": {
          "status": "generated",
          "div": "<div xmlns=\"http://www.w3.org/1999/xhtml\"><table class=\"hl7__eu__lab__report\"><tr><th>Specimen</th><th>Collection Date</th></tr><tr><td>Whole blood specimen (specimen)</td><td><span class=\"nb\">09-Aug-2021</span></td></tr></table></div>"
        },
        "type": {
          "coding": [
            {
              "code": "258580003",
              "system": "http://snomed.info/sct",
              "display": "Whole blood specimen (specimen)"
            }
          ]
        }
      }
    },
    {
      "fullUrl": "urn:uuid:21377a45-b940-4171-af24-877788cc4936",
      "resource": {
        "resourceType": "Observation",
        "id": "21377a45-b940-4171-af24-877788cc4936",
        "meta": {
          "profile": [
            "http://hl7.eu/fhir/laboratory/StructureDefinition/Observation-resultslab-eu-lab"
          ]
        },
        "performer": [
          {
            "display": "The Central European Lab"
          }
        ],
        "category": [
          {
            "coding": [
              {
                "system": "http://terminology.hl7.org/CodeSystem/observation-category",
                "code": "laboratory"
              }
            ]
          }
        ],
        "code": {
          "coding": [
            {
              "code": "2345-7",
              "system": "http://loinc.org",
              "display": "Glucose [Mass/volume] in Serum or Plasma"
            }
          ],
          "text": "Glucose [Mass/volume] in Serum or Plasma"
        },
        "valueQuantity": {
          "system": "http://unitsofmeasure.org",
          "value": 87.4,
          "unit": "mg/dL",
          "code": "mg/dL"
        },
        "referenceRange": [
          {
            "low": {
              "value": 70,
              "code": "mg/dL",
              "system": "http://unitsofmeasure.org"
            }
          },
          {
            "high": {
              "value": 99,
              "code": "mg/dL",
              "system": "http://unitsofmeasure.org"
            }
          }
        ],
        "text": {
          "status": "generated",
          "div": "<div xmlns=\"http://www.w3.org/1999/xhtml\"><table class=\"hl7__eu__lab__report\"><tr><th>Test</th><th>10-Aug-2021</th><th>Reference&#xA0;Range</th><th>Unit</th></tr><tr><td>Glucose [Mass/volume] in Serum or Plasma</td><td>87.4</td><td>70 - 99</td><td></td><td>mg/dL</td></tr></table></div>"
        },
        "status": "final",
        "subject": {
          "reference": "urn:uuid:202736da-0121-4029-8c83-ddc984199259",
          "display": "Meaghan Neary"
        },
        "effectiveDateTime": "2021-08-09T22:11:04Z",
        "specimen": {
          "reference": "urn:uuid:e250bd95-84a1-4a4d-bf1f-79472be695d7"
        }
      }
    },
    {
      "fullUrl": "urn:uuid:4f682bb8-1b48-4b6f-b2fe-8d1689000a19",
      "resource": {
        "resourceType": "Observation",
        "id": "4f682bb8-1b48-4b6f-b2fe-8d1689000a19",
        "meta": {
          "profile": [
            "http://hl7.eu/fhir/laboratory/StructureDefinition/Observation-resultslab-eu-lab"
          ]
        },
        "performer": [
          {
            "display": "The Central European Lab"
          }
        ],
        "category": [
          {
            "coding": [
              {
                "system": "http://terminology.hl7.org/CodeSystem/observation-category",
                "code": "laboratory"
              }
            ]
          }
        ],
        "code": {
          "coding": [
            {
              "code": "3094-0",
              "system": "http://loinc.org",
              "display": "Urea nitrogen [Mass/volume] in Serum or Plasma"
            }
          ],
          "text": "Urea nitrogen [Mass/volume] in Serum or Plasma"
        },
        "valueQuantity": {
          "system": "http://unitsofmeasure.org",
          "value": 15.8,
          "unit": "mg/dL",
          "code": "mg/dL"
        },
        "referenceRange": [
          {
            "low": {
              "value": 7,
              "code": "mg/dL",
              "system": "http://unitsofmeasure.org"
            }
          },
          {
            "high": {
              "value": 50,
              "code": "mg/dL",
              "system": "http://unitsofmeasure.org"
            }
          }
        ],
        "text": {
          "status": "generated",
          "div": "<div xmlns=\"http://www.w3.org/1999/xhtml\"><table class=\"hl7__eu__lab__report\"><tr><th>Test</th><th>10-Aug-2021</th><th>Reference&#xA0;Range</th><th>Unit</th></tr><tr><td>Urea nitrogen [Mass/volume] in Serum or Plasma</td><td>15.8</td><td>7 - 50</td><td></td><td>mg/dL</td></tr></table></div>"
        },
        "status": "final",
        "subject": {
          "reference": "urn:uuid:202736da-0121-4029-8c83-ddc984199259",
          "display": "Meaghan Neary"
        },
        "effectiveDateTime": "2021-08-09T22:11:04Z",
        "specimen": {
          "reference": "urn:uuid:e250bd95-84a1-4a4d-bf1f-79472be695d7"
        }
      }
    },
    {
      "fullUrl": "urn:uuid:33306970-f663-416b-bd7c-6fed9c8e2a3d",
      "resource": {
        "resourceType": "Observation",
        "id": "33306970-f663-416b-bd7c-6fed9c8e2a3d",
        "meta": {
          "profile": [
            "http://hl7.eu/fhir/laboratory/StructureDefinition/Observation-resultslab-eu-lab"
          ]
        },
        "performer": [
          {
            "display": "The Central European Lab"
          }
        ],
        "category": [
          {
            "coding": [
              {
                "system": "http://terminology.hl7.org/CodeSystem/observation-category",
                "code": "laboratory"
              }
            ]
          }
        ],
        "code": {
          "coding": [
            {
              "code": "2160-0",
              "system": "http://loinc.org",
              "display": "Creatinine [Mass/volume] in Serum or Plasma"
            }
          ],
          "text": "Creatinine [Mass/volume] in Serum or Plasma"
        },
        "valueQuantity": {
          "system": "http://unitsofmeasure.org",
          "value": 2,
          "unit": "mg/dL",
          "code": "mg/dL"
        },
        "referenceRange": [
          {
            "low": {
              "value": 0.6,
              "code": "mg/dL",
              "system": "http://unitsofmeasure.org"
            }
          },
          {
            "high": {
              "value": 1.1,
              "code": "mg/dL",
              "system": "http://unitsofmeasure.org"
            }
          }
        ],
        "interpretation": [
          {
            "coding": [
              {
                "code": "H",
                "system": "http://terminology.hl7.org/CodeSystem/v3-ObservationInterpretation",
                "display": "High"
              }
            ]
          }
        ],
        "text": {
          "status": "generated",
          "div": "<div xmlns=\"http://www.w3.org/1999/xhtml\"><table class=\"hl7__eu__lab__report\"><tr><th>Test</th><th>10-Aug-2021</th><th>Reference&#xA0;Range</th><th>Unit</th></tr><tr><td>Creatinine [Mass/volume] in Serum or Plasma</td><td>2.0</td><td>0.6 - 1.1</td><td>H</td><td>mg/dL</td></tr></table></div>"
        },
        "status": "final",
        "subject": {
          "reference": "urn:uuid:202736da-0121-4029-8c83-ddc984199259",
          "display": "Meaghan Neary"
        },
        "effectiveDateTime": "2021-08-09T22:11:04Z",
        "specimen": {
          "reference": "urn:uuid:e250bd95-84a1-4a4d-bf1f-79472be695d7"
        }
      }
    },
    {
      "fullUrl": "urn:uuid:87d9de4d-d2ac-4b31-bc41-cc0689eec4d6",
      "resource": {
        "resourceType": "Observation",
        "id": "87d9de4d-d2ac-4b31-bc41-cc0689eec4d6",
        "meta": {
          "profile": [
            "http://hl7.eu/fhir/laboratory/StructureDefinition/Observation-resultslab-eu-lab"
          ]
        },
        "performer": [
          {
            "display": "The Central European Lab"
          }
        ],
        "category": [
          {
            "coding": [
              {
                "system": "http://terminology.hl7.org/CodeSystem/observation-category",
                "code": "laboratory"
              }
            ]
          }
        ],
        "code": {
          "coding": [
            {
              "code": "17861-6",
              "system": "http://loinc.org",
              "display": "Calcium [Mass/volume] in Serum or Plasma"
            }
          ],
          "text": "Calcium [Mass/volume] in Serum or Plasma"
        },
        "valueQuantity": {
          "system": "http://unitsofmeasure.org",
          "value": 10.1,
          "unit": "mg/dL",
          "code": "mg/dL"
        },
        "referenceRange": [
          {
            "low": {
              "value": 8.6,
              "code": "mg/dL",
              "system": "http://unitsofmeasure.org"
            }
          },
          {
            "high": {
              "value": 10.4,
              "code": "mg/dL",
              "system": "http://unitsofmeasure.org"
            }
          }
        ],
        "text": {
          "status": "generated",
          "div": "<div xmlns=\"http://www.w3.org/1999/xhtml\"><table class=\"hl7__eu__lab__report\"><tr><th>Test</th><th>10-Aug-2021</th><th>Reference&#xA0;Range</th><th>Unit</th></tr><tr><td>Calcium [Mass/volume] in Serum or Plasma</td><td>10.1</td><td>8.6 - 10.4</td><td></td><td>mg/dL</td></tr></table></div>"
        },
        "status": "final",
        "subject": {
          "reference": "urn:uuid:202736da-0121-4029-8c83-ddc984199259",
          "display": "Meaghan Neary"
        },
        "effectiveDateTime": "2021-08-09T22:11:04Z",
        "specimen": {
          "reference": "urn:uuid:e250bd95-84a1-4a4d-bf1f-79472be695d7"
        }
      }
    },
    {
      "fullUrl": "urn:uuid:6a663b09-531a-4030-9145-ea1474c220ce",
      "resource": {
        "resourceType": "Observation",
        "id": "6a663b09-531a-4030-9145-ea1474c220ce",
        "meta": {
          "profile": [
            "http://hl7.eu/fhir/laboratory/StructureDefinition/Observation-resultslab-eu-lab"
          ]
        },
        "performer": [
          {
            "display": "The Central European Lab"
          }
        ],
        "category": [
          {
            "coding": [
              {
                "system": "http://terminology.hl7.org/CodeSystem/observation-category",
                "code": "laboratory"
              }
            ]
          }
        ],
        "code": {
          "coding": [
            {
              "code": "2951-2",
              "system": "http://loinc.org",
              "display": "Sodium [Moles/volume] in Serum or Plasma"
            }
          ],
          "text": "Sodium [Moles/volume] in Serum or Plasma"
        },
        "valueQuantity": {
          "system": "http://unitsofmeasure.org",
          "value": 141.3,
          "unit": "mmol/L",
          "code": "mmol/L"
        },
        "referenceRange": [
          {
            "low": {
              "value": 135,
              "code": "mmol/L",
              "system": "http://unitsofmeasure.org"
            }
          },
          {
            "high": {
              "value": 145,
              "code": "mmol/L",
              "system": "http://unitsofmeasure.org"
            }
          }
        ],
        "text": {
          "status": "generated",
          "div": "<div xmlns=\"http://www.w3.org/1999/xhtml\"><table class=\"hl7__eu__lab__report\"><tr><th>Test</th><th>10-Aug-2021</th><th>Reference&#xA0;Range</th><th>Unit</th></tr><tr><td>Sodium [Moles/volume] in Serum or Plasma</td><td>141.3</td><td>135 - 145</td><td></td><td>mmol/L</td></tr></table></div>"
        },
        "status": "final",
        "subject": {
          "reference": "urn:uuid:202736da-0121-4029-8c83-ddc984199259",
          "display": "Meaghan Neary"
        },
        "effectiveDateTime": "2021-08-09T22:11:04Z",
        "specimen": {
          "reference": "urn:uuid:e250bd95-84a1-4a4d-bf1f-79472be695d7"
        }
      }
    },
    {
      "fullUrl": "urn:uuid:17ace81e-9077-4285-a5a2-cd0c430136f5",
      "resource": {
        "resourceType": "Observation",
        "id": "17ace81e-9077-4285-a5a2-cd0c430136f5",
        "meta": {
          "profile": [
            "http://hl7.eu/fhir/laboratory/StructureDefinition/Observation-resultslab-eu-lab"
          ]
        },
        "performer": [
          {
            "display": "The Central European Lab"
          }
        ],
        "category": [
          {
            "coding": [
              {
                "system": "http://terminology.hl7.org/CodeSystem/observation-category",
                "code": "laboratory"
              }
            ]
          }
        ],
        "code": {
          "coding": [
            {
              "code": "2823-3",
              "system": "http://loinc.org",
              "display": "Potassium [Moles/volume] in Serum or Plasma"
            }
          ],
          "text": "Potassium [Moles/volume] in Serum or Plasma"
        },
        "valueQuantity": {
          "system": "http://unitsofmeasure.org",
          "value": 4.3,
          "unit": "mmol/L",
          "code": "mmol/L"
        },
        "referenceRange": [
          {
            "low": {
              "value": 3.5,
              "code": "mmol/L",
              "system": "http://unitsofmeasure.org"
            }
          },
          {
            "high": {
              "value": 5.1,
              "code": "mmol/L",
              "system": "http://unitsofmeasure.org"
            }
          }
        ],
        "text": {
          "status": "generated",
          "div": "<div xmlns=\"http://www.w3.org/1999/xhtml\"><table class=\"hl7__eu__lab__report\"><tr><th>Test</th><th>10-Aug-2021</th><th>Reference&#xA0;Range</th><th>Unit</th></tr><tr><td>Potassium [Moles/volume] in Serum or Plasma</td><td>4.3</td><td>3.5 - 5.1</td><td></td><td>mmol/L</td></tr></table></div>"
        },
        "status": "final",
        "subject": {
          "reference": "urn:uuid:202736da-0121-4029-8c83-ddc984199259",
          "display": "Meaghan Neary"
        },
        "effectiveDateTime": "2021-08-09T22:11:04Z",
        "specimen": {
          "reference": "urn:uuid:e250bd95-84a1-4a4d-bf1f-79472be695d7"
        }
      }
    },
    {
      "fullUrl": "urn:uuid:869a53f2-42f8-45e0-8bc3-df17510c5944",
      "resource": {
        "resourceType": "Observation",
        "id": "869a53f2-42f8-45e0-8bc3-df17510c5944",
        "meta": {
          "profile": [
            "http://hl7.eu/fhir/laboratory/StructureDefinition/Observation-resultslab-eu-lab"
          ]
        },
        "performer": [
          {
            "display": "The Central European Lab"
          }
        ],
        "category": [
          {
            "coding": [
              {
                "system": "http://terminology.hl7.org/CodeSystem/observation-category",
                "code": "laboratory"
              }
            ]
          }
        ],
        "code": {
          "coding": [
            {
              "code": "2075-0",
              "system": "http://loinc.org",
              "display": "Chloride [Moles/volume] in Serum or Plasma"
            }
          ],
          "text": "Chloride [Moles/volume] in Serum or Plasma"
        },
        "valueQuantity": {
          "system": "http://unitsofmeasure.org",
          "value": 105.8,
          "unit": "mmol/L",
          "code": "mmol/L"
        },
        "referenceRange": [
          {
            "low": {
              "value": 98,
              "code": "mmol/L",
              "system": "http://unitsofmeasure.org"
            }
          },
          {
            "high": {
              "value": 108,
              "code": "mmol/L",
              "system": "http://unitsofmeasure.org"
            }
          }
        ],
        "text": {
          "status": "generated",
          "div": "<div xmlns=\"http://www.w3.org/1999/xhtml\"><table class=\"hl7__eu__lab__report\"><tr><th>Test</th><th>10-Aug-2021</th><th>Reference&#xA0;Range</th><th>Unit</th></tr><tr><td>Chloride [Moles/volume] in Serum or Plasma</td><td>105.8</td><td>98 - 108</td><td></td><td>mmol/L</td></tr></table></div>"
        },
        "status": "final",
        "subject": {
          "reference": "urn:uuid:202736da-0121-4029-8c83-ddc984199259",
          "display": "Meaghan Neary"
        },
        "effectiveDateTime": "2021-08-09T22:11:04Z",
        "specimen": {
          "reference": "urn:uuid:e250bd95-84a1-4a4d-bf1f-79472be695d7"
        }
      }
    },
    {
      "fullUrl": "urn:uuid:4622bf44-1720-486d-8780-0f0506d48cce",
      "resource": {
        "resourceType": "Observation",
        "id": "4622bf44-1720-486d-8780-0f0506d48cce",
        "meta": {
          "profile": [
            "http://hl7.eu/fhir/laboratory/StructureDefinition/Observation-resultslab-eu-lab"
          ]
        },
        "performer": [
          {
            "display": "The Central European Lab"
          }
        ],
        "category": [
          {
            "coding": [
              {
                "system": "http://terminology.hl7.org/CodeSystem/observation-category",
                "code": "laboratory"
              }
            ]
          }
        ],
        "code": {
          "coding": [
            {
              "code": "2028-9",
              "system": "http://loinc.org",
              "display": "Carbon dioxide, total [Moles/volume] in Serum or Plasma"
            }
          ],
          "text": "Carbon dioxide, total [Moles/volume] in Serum or Plasma"
        },
        "valueQuantity": {
          "system": "http://unitsofmeasure.org",
          "value": 20.9,
          "unit": "mmol/L",
          "code": "mmol/L"
        },
        "referenceRange": [
          {
            "low": {
              "value": 22,
              "code": "mmol/L",
              "system": "http://unitsofmeasure.org"
            }
          },
          {
            "high": {
              "value": 32,
              "code": "mmol/L",
              "system": "http://unitsofmeasure.org"
            }
          }
        ],
        "interpretation": [
          {
            "coding": [
              {
                "code": "L",
                "system": "http://terminology.hl7.org/CodeSystem/v3-ObservationInterpretation",
                "display": "Low"
              }
            ]
          }
        ],
        "text": {
          "status": "generated",
          "div": "<div xmlns=\"http://www.w3.org/1999/xhtml\"><table class=\"hl7__eu__lab__report\"><tr><th>Test</th><th>10-Aug-2021</th><th>Reference&#xA0;Range</th><th>Unit</th></tr><tr><td>Carbon dioxide, total [Moles/volume] in Serum or Plasma</td><td>20.9</td><td>22 - 32</td><td>L</td><td>mmol/L</td></tr></table></div>"
        },
        "status": "final",
        "subject": {
          "reference": "urn:uuid:202736da-0121-4029-8c83-ddc984199259",
          "display": "Meaghan Neary"
        },
        "effectiveDateTime": "2021-08-09T22:11:04Z",
        "specimen": {
          "reference": "urn:uuid:e250bd95-84a1-4a4d-bf1f-79472be695d7"
        }
      }
    },
    {
      "fullUrl": "urn:uuid:816c09e3-4471-41d2-8a59-d988294e97e2",
      "resource": {
        "resourceType": "Observation",
        "id": "816c09e3-4471-41d2-8a59-d988294e97e2",
        "meta": {
          "profile": [
            "http://hl7.eu/fhir/laboratory/StructureDefinition/Observation-resultslab-eu-lab"
          ]
        },
        "performer": [
          {
            "display": "The Central European Lab"
          }
        ],
        "category": [
          {
            "coding": [
              {
                "system": "http://terminology.hl7.org/CodeSystem/observation-category",
                "code": "laboratory"
              }
            ]
          }
        ],
        "code": {
          "coding": [
            {
              "code": "5767-9",
              "system": "http://loinc.org",
              "display": "Appearance of Urine"
            }
          ],
          "text": "Appearance of Urine"
        },
        "text": {
          "status": "generated",
          "div": "<div xmlns=\"http://www.w3.org/1999/xhtml\"><table class=\"hl7__eu__lab__report\"><tr><th>Test</th><th>10-Aug-2021</th><th>Reference&#xA0;Range</th><th>Unit</th></tr><tr><td>Appearance of Urine</td></tr></table></div>"
        },
        "status": "final",
        "subject": {
          "reference": "urn:uuid:202736da-0121-4029-8c83-ddc984199259",
          "display": "Meaghan Neary"
        },
        "effectiveDateTime": "2021-08-09T22:11:04Z",
        "specimen": {
          "reference": "urn:uuid:f589bb60-d544-4c00-afa7-57eedf118a53"
        }
      }
    },
    {
      "fullUrl": "urn:uuid:86c114bf-6295-41ec-8e28-a03b6ef72df4",
      "resource": {
        "resourceType": "Observation",
        "id": "86c114bf-6295-41ec-8e28-a03b6ef72df4",
        "meta": {
          "profile": [
            "http://hl7.eu/fhir/laboratory/StructureDefinition/Observation-resultslab-eu-lab"
          ]
        },
        "performer": [
          {
            "display": "The Central European Lab"
          }
        ],
        "category": [
          {
            "coding": [
              {
                "system": "http://terminology.hl7.org/CodeSystem/observation-category",
                "code": "laboratory"
              }
            ]
          }
        ],
        "code": {
          "coding": [
            {
              "code": "34533-0",
              "system": "http://loinc.org",
              "display": "Odor of Urine"
            }
          ],
          "text": "Odor of Urine"
        },
        "text": {
          "status": "generated",
          "div": "<div xmlns=\"http://www.w3.org/1999/xhtml\"><table class=\"hl7__eu__lab__report\"><tr><th>Test</th><th>10-Aug-2021</th><th>Reference&#xA0;Range</th><th>Unit</th></tr><tr><td>Odor of Urine</td></tr></table></div>"
        },
        "status": "final",
        "subject": {
          "reference": "urn:uuid:202736da-0121-4029-8c83-ddc984199259",
          "display": "Meaghan Neary"
        },
        "effectiveDateTime": "2021-08-09T22:11:04Z",
        "specimen": {
          "reference": "urn:uuid:f589bb60-d544-4c00-afa7-57eedf118a53"
        }
      }
    },
    {
      "fullUrl": "urn:uuid:c794c40c-8192-4883-90de-2b026b6093ce",
      "resource": {
        "resourceType": "Observation",
        "id": "c794c40c-8192-4883-90de-2b026b6093ce",
        "meta": {
          "profile": [
            "http://hl7.eu/fhir/laboratory/StructureDefinition/Observation-resultslab-eu-lab"
          ]
        },
        "performer": [
          {
            "display": "The Central European Lab"
          }
        ],
        "category": [
          {
            "coding": [
              {
                "system": "http://terminology.hl7.org/CodeSystem/observation-category",
                "code": "laboratory"
              }
            ]
          }
        ],
        "code": {
          "coding": [
            {
              "code": "32167-9",
              "system": "http://loinc.org",
              "display": "Clarity of Urine"
            }
          ],
          "text": "Clarity of Urine"
        },
        "text": {
          "status": "generated",
          "div": "<div xmlns=\"http://www.w3.org/1999/xhtml\"><table class=\"hl7__eu__lab__report\"><tr><th>Test</th><th>10-Aug-2021</th><th>Reference&#xA0;Range</th><th>Unit</th></tr><tr><td>Clarity of Urine</td></tr></table></div>"
        },
        "status": "final",
        "subject": {
          "reference": "urn:uuid:202736da-0121-4029-8c83-ddc984199259",
          "display": "Meaghan Neary"
        },
        "effectiveDateTime": "2021-08-09T22:11:04Z",
        "specimen": {
          "reference": "urn:uuid:f589bb60-d544-4c00-afa7-57eedf118a53"
        }
      }
    },
    {
      "fullUrl": "urn:uuid:107b5914-132e-43e3-a1f9-4c0abb326a66",
      "resource": {
        "resourceType": "Observation",
        "id": "107b5914-132e-43e3-a1f9-4c0abb326a66",
        "meta": {
          "profile": [
            "http://hl7.eu/fhir/laboratory/StructureDefinition/Observation-resultslab-eu-lab"
          ]
        },
        "performer": [
          {
            "display": "The Central European Lab"
          }
        ],
        "category": [
          {
            "coding": [
              {
                "system": "http://terminology.hl7.org/CodeSystem/observation-category",
                "code": "laboratory"
              }
            ]
          }
        ],
        "code": {
          "coding": [
            {
              "code": "5778-6",
              "system": "http://loinc.org",
              "display": "Color of Urine"
            }
          ],
          "text": "Color of Urine"
        },
        "text": {
          "status": "generated",
          "div": "<div xmlns=\"http://www.w3.org/1999/xhtml\"><table class=\"hl7__eu__lab__report\"><tr><th>Test</th><th>10-Aug-2021</th><th>Reference&#xA0;Range</th><th>Unit</th></tr><tr><td>Color of Urine</td></tr></table></div>"
        },
        "status": "final",
        "subject": {
          "reference": "urn:uuid:202736da-0121-4029-8c83-ddc984199259",
          "display": "Meaghan Neary"
        },
        "effectiveDateTime": "2021-08-09T22:11:04Z",
        "specimen": {
          "reference": "urn:uuid:f589bb60-d544-4c00-afa7-57eedf118a53"
        }
      }
    },
    {
      "fullUrl": "urn:uuid:35fd34a3-0d18-4361-b52a-9a54232ddee6",
      "resource": {
        "resourceType": "Observation",
        "id": "35fd34a3-0d18-4361-b52a-9a54232ddee6",
        "meta": {
          "profile": [
            "http://hl7.eu/fhir/laboratory/StructureDefinition/Observation-resultslab-eu-lab"
          ]
        },
        "performer": [
          {
            "display": "The Central European Lab"
          }
        ],
        "category": [
          {
            "coding": [
              {
                "system": "http://terminology.hl7.org/CodeSystem/observation-category",
                "code": "laboratory"
              }
            ]
          }
        ],
        "code": {
          "coding": [
            {
              "code": "5792-7",
              "system": "http://loinc.org",
              "display": "Glucose [Mass/volume] in Urine by Test strip"
            }
          ],
          "text": "Glucose [Mass/volume] in Urine by Test strip"
        },
        "valueQuantity": {
          "system": "http://unitsofmeasure.org",
          "value": 1.8,
          "unit": "mg/dL",
          "code": "mg/dL"
        },
        "referenceRange": [
          {
            "low": {
              "value": 0.8,
              "code": "mg/dL",
              "system": "http://unitsofmeasure.org"
            }
          },
          {
            "high": {
              "value": 0,
              "code": "mg/dL",
              "system": "http://unitsofmeasure.org"
            }
          }
        ],
        "interpretation": [
          {
            "coding": [
              {
                "code": "H",
                "system": "http://terminology.hl7.org/CodeSystem/v3-ObservationInterpretation",
                "display": "High"
              }
            ]
          }
        ],
        "text": {
          "status": "generated",
          "div": "<div xmlns=\"http://www.w3.org/1999/xhtml\"><table class=\"hl7__eu__lab__report\"><tr><th>Test</th><th>10-Aug-2021</th><th>Reference&#xA0;Range</th><th>Unit</th></tr><tr><td>Glucose [Mass/volume] in Urine by Test strip</td><td>1.8</td><td>0.8 - 0</td><td>H</td><td>mg/dL</td></tr></table></div>"
        },
        "status": "final",
        "subject": {
          "reference": "urn:uuid:202736da-0121-4029-8c83-ddc984199259",
          "display": "Meaghan Neary"
        },
        "effectiveDateTime": "2021-08-09T22:11:04Z",
        "specimen": {
          "reference": "urn:uuid:f589bb60-d544-4c00-afa7-57eedf118a53"
        }
      }
    },
    {
      "fullUrl": "urn:uuid:1d19f089-91ce-4ff4-908a-729d7477449a",
      "resource": {
        "resourceType": "Observation",
        "id": "1d19f089-91ce-4ff4-908a-729d7477449a",
        "meta": {
          "profile": [
            "http://hl7.eu/fhir/laboratory/StructureDefinition/Observation-resultslab-eu-lab"
          ]
        },
        "performer": [
          {
            "display": "The Central European Lab"
          }
        ],
        "category": [
          {
            "coding": [
              {
                "system": "http://terminology.hl7.org/CodeSystem/observation-category",
                "code": "laboratory"
              }
            ]
          }
        ],
        "code": {
          "coding": [
            {
              "code": "25428-4",
              "system": "http://loinc.org",
              "display": "Glucose [Presence] in Urine by Test strip"
            }
          ],
          "text": "Glucose [Presence] in Urine by Test strip"
        },
        "text": {
          "status": "generated",
          "div": "<div xmlns=\"http://www.w3.org/1999/xhtml\"><table class=\"hl7__eu__lab__report\"><tr><th>Test</th><th>10-Aug-2021</th><th>Reference&#xA0;Range</th><th>Unit</th></tr><tr><td>Glucose [Presence] in Urine by Test strip</td></tr></table></div>"
        },
        "status": "final",
        "subject": {
          "reference": "urn:uuid:202736da-0121-4029-8c83-ddc984199259",
          "display": "Meaghan Neary"
        },
        "effectiveDateTime": "2021-08-09T22:11:04Z",
        "specimen": {
          "reference": "urn:uuid:f589bb60-d544-4c00-afa7-57eedf118a53"
        }
      }
    },
    {
      "fullUrl": "urn:uuid:5241548f-2060-4552-a580-231e22121e2f",
      "resource": {
        "resourceType": "Observation",
        "id": "5241548f-2060-4552-a580-231e22121e2f",
        "meta": {
          "profile": [
            "http://hl7.eu/fhir/laboratory/StructureDefinition/Observation-resultslab-eu-lab"
          ]
        },
        "performer": [
          {
            "display": "The Central European Lab"
          }
        ],
        "category": [
          {
            "coding": [
              {
                "system": "http://terminology.hl7.org/CodeSystem/observation-category",
                "code": "laboratory"
              }
            ]
          }
        ],
        "code": {
          "coding": [
            {
              "code": "20505-4",
              "system": "http://loinc.org",
              "display": "Bilirubin.total [Mass/volume] in Urine by Test strip"
            }
          ],
          "text": "Bilirubin.total [Mass/volume] in Urine by Test strip"
        },
        "valueQuantity": {
          "system": "http://unitsofmeasure.org",
          "value": 0.8,
          "unit": "mg/dL",
          "code": "mg/dL"
        },
        "referenceRange": [
          {
            "low": {
              "value": 0,
              "code": "mg/dL",
              "system": "http://unitsofmeasure.org"
            }
          },
          {
            "high": {
              "value": 1,
              "code": "mg/dL",
              "system": "http://unitsofmeasure.org"
            }
          }
        ],
        "text": {
          "status": "generated",
          "div": "<div xmlns=\"http://www.w3.org/1999/xhtml\"><table class=\"hl7__eu__lab__report\"><tr><th>Test</th><th>10-Aug-2021</th><th>Reference&#xA0;Range</th><th>Unit</th></tr><tr><td>Bilirubin.total [Mass/volume] in Urine by Test strip</td><td>0.8</td><td>0 - 1</td><td></td><td>mg/dL</td></tr></table></div>"
        },
        "status": "final",
        "subject": {
          "reference": "urn:uuid:202736da-0121-4029-8c83-ddc984199259",
          "display": "Meaghan Neary"
        },
        "effectiveDateTime": "2021-08-09T22:11:04Z",
        "specimen": {
          "reference": "urn:uuid:f589bb60-d544-4c00-afa7-57eedf118a53"
        }
      }
    },
    {
      "fullUrl": "urn:uuid:4bfd2cf1-102a-4247-b1d0-df7cc51e3a23",
      "resource": {
        "resourceType": "Observation",
        "id": "4bfd2cf1-102a-4247-b1d0-df7cc51e3a23",
        "meta": {
          "profile": [
            "http://hl7.eu/fhir/laboratory/StructureDefinition/Observation-resultslab-eu-lab"
          ]
        },
        "performer": [
          {
            "display": "The Central European Lab"
          }
        ],
        "category": [
          {
            "coding": [
              {
                "system": "http://terminology.hl7.org/CodeSystem/observation-category",
                "code": "laboratory"
              }
            ]
          }
        ],
        "code": {
          "coding": [
            {
              "code": "5770-3",
              "system": "http://loinc.org",
              "display": "Bilirubin.total [Presence] in Urine by Test strip"
            }
          ],
          "text": "Bilirubin.total [Presence] in Urine by Test strip"
        },
        "text": {
          "status": "generated",
          "div": "<div xmlns=\"http://www.w3.org/1999/xhtml\"><table class=\"hl7__eu__lab__report\"><tr><th>Test</th><th>10-Aug-2021</th><th>Reference&#xA0;Range</th><th>Unit</th></tr><tr><td>Bilirubin.total [Presence] in Urine by Test strip</td></tr></table></div>"
        },
        "status": "final",
        "subject": {
          "reference": "urn:uuid:202736da-0121-4029-8c83-ddc984199259",
          "display": "Meaghan Neary"
        },
        "effectiveDateTime": "2021-08-09T22:11:04Z",
        "specimen": {
          "reference": "urn:uuid:f589bb60-d544-4c00-afa7-57eedf118a53"
        }
      }
    },
    {
      "fullUrl": "urn:uuid:6890969f-58e5-437e-9b9c-31b86f2411c8",
      "resource": {
        "resourceType": "Observation",
        "id": "6890969f-58e5-437e-9b9c-31b86f2411c8",
        "meta": {
          "profile": [
            "http://hl7.eu/fhir/laboratory/StructureDefinition/Observation-resultslab-eu-lab"
          ]
        },
        "performer": [
          {
            "display": "The Central European Lab"
          }
        ],
        "category": [
          {
            "coding": [
              {
                "system": "http://terminology.hl7.org/CodeSystem/observation-category",
                "code": "laboratory"
              }
            ]
          }
        ],
        "code": {
          "coding": [
            {
              "code": "5797-6",
              "system": "http://loinc.org",
              "display": "Ketones [Mass/volume] in Urine by Test strip"
            }
          ],
          "text": "Ketones [Mass/volume] in Urine by Test strip"
        },
        "valueQuantity": {
          "system": "http://unitsofmeasure.org",
          "value": 15.9,
          "unit": "mg/dL",
          "code": "mg/dL"
        },
        "referenceRange": [
          {
            "low": {
              "value": 0,
              "code": "mg/dL",
              "system": "http://unitsofmeasure.org"
            }
          },
          {
            "high": {
              "value": 4,
              "code": "mg/dL",
              "system": "http://unitsofmeasure.org"
            }
          }
        ],
        "interpretation": [
          {
            "coding": [
              {
                "code": "H",
                "system": "http://terminology.hl7.org/CodeSystem/v3-ObservationInterpretation",
                "display": "High"
              }
            ]
          }
        ],
        "text": {
          "status": "generated",
          "div": "<div xmlns=\"http://www.w3.org/1999/xhtml\"><table class=\"hl7__eu__lab__report\"><tr><th>Test</th><th>10-Aug-2021</th><th>Reference&#xA0;Range</th><th>Unit</th></tr><tr><td>Ketones [Mass/volume] in Urine by Test strip</td><td>15.9</td><td>0 - 4</td><td>H</td><td>mg/dL</td></tr></table></div>"
        },
        "status": "final",
        "subject": {
          "reference": "urn:uuid:202736da-0121-4029-8c83-ddc984199259",
          "display": "Meaghan Neary"
        },
        "effectiveDateTime": "2021-08-09T22:11:04Z",
        "specimen": {
          "reference": "urn:uuid:f589bb60-d544-4c00-afa7-57eedf118a53"
        }
      }
    },
    {
      "fullUrl": "urn:uuid:1fa204ed-e69b-4c0a-8a26-20075d87a79c",
      "resource": {
        "resourceType": "Observation",
        "id": "1fa204ed-e69b-4c0a-8a26-20075d87a79c",
        "meta": {
          "profile": [
            "http://hl7.eu/fhir/laboratory/StructureDefinition/Observation-resultslab-eu-lab"
          ]
        },
        "performer": [
          {
            "display": "The Central European Lab"
          }
        ],
        "category": [
          {
            "coding": [
              {
                "system": "http://terminology.hl7.org/CodeSystem/observation-category",
                "code": "laboratory"
              }
            ]
          }
        ],
        "code": {
          "coding": [
            {
              "code": "2514-8",
              "system": "http://loinc.org",
              "display": "Ketones [Presence] in Urine by Test strip"
            }
          ],
          "text": "Ketones [Presence] in Urine by Test strip"
        },
        "text": {
          "status": "generated",
          "div": "<div xmlns=\"http://www.w3.org/1999/xhtml\"><table class=\"hl7__eu__lab__report\"><tr><th>Test</th><th>10-Aug-2021</th><th>Reference&#xA0;Range</th><th>Unit</th></tr><tr><td>Ketones [Presence] in Urine by Test strip</td></tr></table></div>"
        },
        "status": "final",
        "subject": {
          "reference": "urn:uuid:202736da-0121-4029-8c83-ddc984199259",
          "display": "Meaghan Neary"
        },
        "effectiveDateTime": "2021-08-09T22:11:04Z",
        "specimen": {
          "reference": "urn:uuid:f589bb60-d544-4c00-afa7-57eedf118a53"
        }
      }
    },
    {
      "fullUrl": "urn:uuid:eb0d5b84-ec87-4842-97fe-8e8e629f0e9c",
      "resource": {
        "resourceType": "Observation",
        "id": "eb0d5b84-ec87-4842-97fe-8e8e629f0e9c",
        "meta": {
          "profile": [
            "http://hl7.eu/fhir/laboratory/StructureDefinition/Observation-resultslab-eu-lab"
          ]
        },
        "performer": [
          {
            "display": "The Central European Lab"
          }
        ],
        "category": [
          {
            "coding": [
              {
                "system": "http://terminology.hl7.org/CodeSystem/observation-category",
                "code": "laboratory"
              }
            ]
          }
        ],
        "code": {
          "coding": [
            {
              "code": "5811-5",
              "system": "http://loinc.org",
              "display": "Specific gravity of Urine by Test strip"
            }
          ],
          "text": "Specific gravity of Urine by Test strip"
        },
        "valueQuantity": {
          "system": "http://unitsofmeasure.org",
          "value": 1,
          "unit": "{nominal}",
          "code": "{nominal}"
        },
        "referenceRange": [
          {
            "low": {
              "value": 1.005,
              "code": "g/mL",
              "system": "http://unitsofmeasure.org"
            }
          },
          {
            "high": {
              "value": 1.03,
              "code": "g/mL",
              "system": "http://unitsofmeasure.org"
            }
          }
        ],
        "interpretation": [
          {
            "coding": [
              {
                "code": "L",
                "system": "http://terminology.hl7.org/CodeSystem/v3-ObservationInterpretation",
                "display": "Low"
              }
            ]
          }
        ],
        "text": {
          "status": "generated",
          "div": "<div xmlns=\"http://www.w3.org/1999/xhtml\"><table class=\"hl7__eu__lab__report\"><tr><th>Test</th><th>10-Aug-2021</th><th>Reference&#xA0;Range</th><th>Unit</th></tr><tr><td>Specific gravity of Urine by Test strip</td><td>1.0</td><td>1.005 - 1.03</td><td>L</td><td>{nominal}</td></tr></table></div>"
        },
        "status": "final",
        "subject": {
          "reference": "urn:uuid:202736da-0121-4029-8c83-ddc984199259",
          "display": "Meaghan Neary"
        },
        "effectiveDateTime": "2021-08-09T22:11:04Z",
        "specimen": {
          "reference": "urn:uuid:f589bb60-d544-4c00-afa7-57eedf118a53"
        }
      }
    },
    {
      "fullUrl": "urn:uuid:3be03684-c91f-4e73-a935-e72d5d0b9112",
      "resource": {
        "resourceType": "Observation",
        "id": "3be03684-c91f-4e73-a935-e72d5d0b9112",
        "meta": {
          "profile": [
            "http://hl7.eu/fhir/laboratory/StructureDefinition/Observation-resultslab-eu-lab"
          ]
        },
        "performer": [
          {
            "display": "The Central European Lab"
          }
        ],
        "category": [
          {
            "coding": [
              {
                "system": "http://terminology.hl7.org/CodeSystem/observation-category",
                "code": "laboratory"
              }
            ]
          }
        ],
        "code": {
          "coding": [
            {
              "code": "5803-2",
              "system": "http://loinc.org",
              "display": "pH of Urine by Test strip"
            }
          ],
          "text": "pH of Urine by Test strip"
        },
        "valueQuantity": {
          "system": "http://unitsofmeasure.org",
          "value": 6.8,
          "unit": "pH",
          "code": "pH"
        },
        "referenceRange": [
          {
            "low": {
              "value": 4.6,
              "code": "pH",
              "system": "http://unitsofmeasure.org"
            }
          },
          {
            "high": {
              "value": 7,
              "code": "pH",
              "system": "http://unitsofmeasure.org"
            }
          }
        ],
        "text": {
          "status": "generated",
          "div": "<div xmlns=\"http://www.w3.org/1999/xhtml\"><table class=\"hl7__eu__lab__report\"><tr><th>Test</th><th>10-Aug-2021</th><th>Reference&#xA0;Range</th><th>Unit</th></tr><tr><td>pH of Urine by Test strip</td><td>6.8</td><td>4.6 - 7</td><td></td><td>pH</td></tr></table></div>"
        },
        "status": "final",
        "subject": {
          "reference": "urn:uuid:202736da-0121-4029-8c83-ddc984199259",
          "display": "Meaghan Neary"
        },
        "effectiveDateTime": "2021-08-09T22:11:04Z",
        "specimen": {
          "reference": "urn:uuid:f589bb60-d544-4c00-afa7-57eedf118a53"
        }
      }
    },
    {
      "fullUrl": "urn:uuid:b0ff3391-308b-493c-bb60-f1fec6d051cc",
      "resource": {
        "resourceType": "Observation",
        "id": "b0ff3391-308b-493c-bb60-f1fec6d051cc",
        "meta": {
          "profile": [
            "http://hl7.eu/fhir/laboratory/StructureDefinition/Observation-resultslab-eu-lab"
          ]
        },
        "performer": [
          {
            "display": "The Central European Lab"
          }
        ],
        "category": [
          {
            "coding": [
              {
                "system": "http://terminology.hl7.org/CodeSystem/observation-category",
                "code": "laboratory"
              }
            ]
          }
        ],
        "code": {
          "coding": [
            {
              "code": "5804-0",
              "system": "http://loinc.org",
              "display": "Protein [Mass/volume] in Urine by Test strip"
            }
          ],
          "text": "Protein [Mass/volume] in Urine by Test strip"
        },
        "valueQuantity": {
          "system": "http://unitsofmeasure.org",
          "value": 396.1,
          "unit": "mg/dL",
          "code": "mg/dL"
        },
        "referenceRange": [
          {
            "low": {
              "value": 0,
              "code": "mg/dL",
              "system": "http://unitsofmeasure.org"
            }
          },
          {
            "high": {
              "value": 14,
              "code": "mg/dL",
              "system": "http://unitsofmeasure.org"
            }
          }
        ],
        "interpretation": [
          {
            "coding": [
              {
                "code": "H",
                "system": "http://terminology.hl7.org/CodeSystem/v3-ObservationInterpretation",
                "display": "High"
              }
            ]
          }
        ],
        "text": {
          "status": "generated",
          "div": "<div xmlns=\"http://www.w3.org/1999/xhtml\"><table class=\"hl7__eu__lab__report\"><tr><th>Test</th><th>10-Aug-2021</th><th>Reference&#xA0;Range</th><th>Unit</th></tr><tr><td>Protein [Mass/volume] in Urine by Test strip</td><td>396.1</td><td>0 - 14</td><td>H</td><td>mg/dL</td></tr></table></div>"
        },
        "status": "final",
        "subject": {
          "reference": "urn:uuid:202736da-0121-4029-8c83-ddc984199259",
          "display": "Meaghan Neary"
        },
        "effectiveDateTime": "2021-08-09T22:11:04Z",
        "specimen": {
          "reference": "urn:uuid:f589bb60-d544-4c00-afa7-57eedf118a53"
        }
      }
    },
    {
      "fullUrl": "urn:uuid:7a5df018-b689-4f0d-924d-a4cb4adb236e",
      "resource": {
        "resourceType": "Observation",
        "id": "7a5df018-b689-4f0d-924d-a4cb4adb236e",
        "meta": {
          "profile": [
            "http://hl7.eu/fhir/laboratory/StructureDefinition/Observation-resultslab-eu-lab"
          ]
        },
        "performer": [
          {
            "display": "The Central European Lab"
          }
        ],
        "category": [
          {
            "coding": [
              {
                "system": "http://terminology.hl7.org/CodeSystem/observation-category",
                "code": "laboratory"
              }
            ]
          }
        ],
        "code": {
          "coding": [
            {
              "code": "20454-5",
              "system": "http://loinc.org",
              "display": "Protein [Presence] in Urine by Test strip"
            }
          ],
          "text": "Protein [Presence] in Urine by Test strip"
        },
        "text": {
          "status": "generated",
          "div": "<div xmlns=\"http://www.w3.org/1999/xhtml\"><table class=\"hl7__eu__lab__report\"><tr><th>Test</th><th>10-Aug-2021</th><th>Reference&#xA0;Range</th><th>Unit</th></tr><tr><td>Protein [Presence] in Urine by Test strip</td></tr></table></div>"
        },
        "status": "final",
        "subject": {
          "reference": "urn:uuid:202736da-0121-4029-8c83-ddc984199259",
          "display": "Meaghan Neary"
        },
        "effectiveDateTime": "2021-08-09T22:11:04Z",
        "specimen": {
          "reference": "urn:uuid:f589bb60-d544-4c00-afa7-57eedf118a53"
        }
      }
    },
    {
      "fullUrl": "urn:uuid:2d60210d-6dd6-4606-a4b8-361f745a3569",
      "resource": {
        "resourceType": "Observation",
        "id": "2d60210d-6dd6-4606-a4b8-361f745a3569",
        "meta": {
          "profile": [
            "http://hl7.eu/fhir/laboratory/StructureDefinition/Observation-resultslab-eu-lab"
          ]
        },
        "performer": [
          {
            "display": "The Central European Lab"
          }
        ],
        "category": [
          {
            "coding": [
              {
                "system": "http://terminology.hl7.org/CodeSystem/observation-category",
                "code": "laboratory"
              }
            ]
          }
        ],
        "code": {
          "coding": [
            {
              "code": "5802-4",
              "system": "http://loinc.org",
              "display": "Nitrite [Presence] in Urine by Test strip"
            }
          ],
          "text": "Nitrite [Presence] in Urine by Test strip"
        },
        "text": {
          "status": "generated",
          "div": "<div xmlns=\"http://www.w3.org/1999/xhtml\"><table class=\"hl7__eu__lab__report\"><tr><th>Test</th><th>10-Aug-2021</th><th>Reference&#xA0;Range</th><th>Unit</th></tr><tr><td>Nitrite [Presence] in Urine by Test strip</td></tr></table></div>"
        },
        "status": "final",
        "subject": {
          "reference": "urn:uuid:202736da-0121-4029-8c83-ddc984199259",
          "display": "Meaghan Neary"
        },
        "effectiveDateTime": "2021-08-09T22:11:04Z",
        "specimen": {
          "reference": "urn:uuid:f589bb60-d544-4c00-afa7-57eedf118a53"
        }
      }
    },
    {
      "fullUrl": "urn:uuid:9702d269-9584-435e-9f15-2faa9d64c837",
      "resource": {
        "resourceType": "Observation",
        "id": "9702d269-9584-435e-9f15-2faa9d64c837",
        "meta": {
          "profile": [
            "http://hl7.eu/fhir/laboratory/StructureDefinition/Observation-resultslab-eu-lab"
          ]
        },
        "performer": [
          {
            "display": "The Central European Lab"
          }
        ],
        "category": [
          {
            "coding": [
              {
                "system": "http://terminology.hl7.org/CodeSystem/observation-category",
                "code": "laboratory"
              }
            ]
          }
        ],
        "code": {
          "coding": [
            {
              "code": "5794-3",
              "system": "http://loinc.org",
              "display": "Hemoglobin [Presence] in Urine by Test strip"
            }
          ],
          "text": "Hemoglobin [Presence] in Urine by Test strip"
        },
        "text": {
          "status": "generated",
          "div": "<div xmlns=\"http://www.w3.org/1999/xhtml\"><table class=\"hl7__eu__lab__report\"><tr><th>Test</th><th>10-Aug-2021</th><th>Reference&#xA0;Range</th><th>Unit</th></tr><tr><td>Hemoglobin [Presence] in Urine by Test strip</td></tr></table></div>"
        },
        "status": "final",
        "subject": {
          "reference": "urn:uuid:202736da-0121-4029-8c83-ddc984199259",
          "display": "Meaghan Neary"
        },
        "effectiveDateTime": "2021-08-09T22:11:04Z",
        "specimen": {
          "reference": "urn:uuid:f589bb60-d544-4c00-afa7-57eedf118a53"
        }
      }
    },
    {
      "fullUrl": "urn:uuid:3314c4c2-c11c-4a33-98a9-f6697abcf8c3",
      "resource": {
        "resourceType": "Observation",
        "id": "3314c4c2-c11c-4a33-98a9-f6697abcf8c3",
        "meta": {
          "profile": [
            "http://hl7.eu/fhir/laboratory/StructureDefinition/Observation-resultslab-eu-lab"
          ]
        },
        "performer": [
          {
            "display": "The Central European Lab"
          }
        ],
        "category": [
          {
            "coding": [
              {
                "system": "http://terminology.hl7.org/CodeSystem/observation-category",
                "code": "laboratory"
              }
            ]
          }
        ],
        "code": {
          "coding": [
            {
              "code": "5799-2",
              "system": "http://loinc.org",
              "display": "Leukocyte esterase [Presence] in Urine by Test strip"
            }
          ],
          "text": "Leukocyte esterase [Presence] in Urine by Test strip"
        },
        "text": {
          "status": "generated",
          "div": "<div xmlns=\"http://www.w3.org/1999/xhtml\"><table class=\"hl7__eu__lab__report\"><tr><th>Test</th><th>10-Aug-2021</th><th>Reference&#xA0;Range</th><th>Unit</th></tr><tr><td>Leukocyte esterase [Presence] in Urine by Test strip</td></tr></table></div>"
        },
        "status": "final",
        "subject": {
          "reference": "urn:uuid:202736da-0121-4029-8c83-ddc984199259",
          "display": "Meaghan Neary"
        },
        "effectiveDateTime": "2021-08-09T22:11:04Z",
        "specimen": {
          "reference": "urn:uuid:f589bb60-d544-4c00-afa7-57eedf118a53"
        }
      }
    },
    {
      "fullUrl": "urn:uuid:4b11a93a-cd67-44e2-9a48-16ee0f8aa042",
      "resource": {
        "resourceType": "Observation",
        "id": "4b11a93a-cd67-44e2-9a48-16ee0f8aa042",
        "meta": {
          "profile": [
            "http://hl7.eu/fhir/laboratory/StructureDefinition/Observation-resultslab-eu-lab"
          ]
        },
        "performer": [
          {
            "display": "The Central European Lab"
          }
        ],
        "category": [
          {
            "coding": [
              {
                "system": "http://terminology.hl7.org/CodeSystem/observation-category",
                "code": "laboratory"
              }
            ]
          }
        ],
        "code": {
          "coding": [
            {
              "code": "4548-4",
              "system": "http://loinc.org",
              "display": "Hemoglobin A1c/Hemoglobin.total in Blood"
            }
          ],
          "text": "Hemoglobin A1c/Hemoglobin.total in Blood"
        },
        "valueQuantity": {
          "system": "http://unitsofmeasure.org",
          "value": 2.8,
          "unit": "%",
          "code": "%"
        },
        "referenceRange": [
          {
            "low": {
              "value": 4,
              "code": "%",
              "system": "http://unitsofmeasure.org"
            }
          },
          {
            "high": {
              "value": 6.4,
              "code": "%",
              "system": "http://unitsofmeasure.org"
            }
          }
        ],
        "interpretation": [
          {
            "coding": [
              {
                "code": "L",
                "system": "http://terminology.hl7.org/CodeSystem/v3-ObservationInterpretation",
                "display": "Low"
              }
            ]
          }
        ],
        "text": {
          "status": "generated",
          "div": "<div xmlns=\"http://www.w3.org/1999/xhtml\"><table class=\"hl7__eu__lab__report\"><tr><th>Test</th><th>10-Aug-2021</th><th>Reference&#xA0;Range</th><th>Unit</th></tr><tr><td>Hemoglobin A1c/Hemoglobin.total in Blood</td><td>2.8</td><td>4 - 6.4</td><td>L</td><td>%</td></tr></table></div>"
        },
        "status": "final",
        "subject": {
          "reference": "urn:uuid:202736da-0121-4029-8c83-ddc984199259",
          "display": "Meaghan Neary"
        },
        "effectiveDateTime": "2021-08-09T22:11:04Z",
        "specimen": {
          "reference": "urn:uuid:cf8a8a1b-cc8b-45b7-9bf4-623a9e7a0ad0"
        }
      }
    },
    {
      "fullUrl": "urn:uuid:a45ec7c0-cb5d-4034-9160-f7ede6a0733f",
      "resource": {
        "resourceType": "Observation",
        "id": "a45ec7c0-cb5d-4034-9160-f7ede6a0733f",
        "meta": {
          "profile": [
            "http://hl7.eu/fhir/laboratory/StructureDefinition/Observation-resultslab-eu-lab"
          ]
        },
        "performer": [
          {
            "display": "The Central European Lab"
          }
        ],
        "category": [
          {
            "coding": [
              {
                "system": "http://terminology.hl7.org/CodeSystem/observation-category",
                "code": "laboratory"
              }
            ]
          }
        ],
        "code": {
          "coding": [
            {
              "code": "2339-0",
              "system": "http://loinc.org",
              "display": "Glucose [Mass/volume] in Blood"
            }
          ],
          "text": "Glucose [Mass/volume] in Blood"
        },
        "valueQuantity": {
          "system": "http://unitsofmeasure.org",
          "value": 87.4,
          "unit": "mg/dL",
          "code": "mg/dL"
        },
        "referenceRange": [
          {
            "low": {
              "value": 70,
              "code": "mg/dL",
              "system": "http://unitsofmeasure.org"
            }
          },
          {
            "high": {
              "value": 100,
              "code": "mg/dL",
              "system": "http://unitsofmeasure.org"
            }
          }
        ],
        "text": {
          "status": "generated",
          "div": "<div xmlns=\"http://www.w3.org/1999/xhtml\"><table class=\"hl7__eu__lab__report\"><tr><th>Test</th><th>10-Aug-2021</th><th>Reference&#xA0;Range</th><th>Unit</th></tr><tr><td>Glucose [Mass/volume] in Blood</td><td>87.4</td><td>70 - 100</td><td></td><td>mg/dL</td></tr></table></div>"
        },
        "status": "final",
        "subject": {
          "reference": "urn:uuid:202736da-0121-4029-8c83-ddc984199259",
          "display": "Meaghan Neary"
        },
        "effectiveDateTime": "2021-08-09T22:11:04Z",
        "specimen": {
          "reference": "urn:uuid:cf8a8a1b-cc8b-45b7-9bf4-623a9e7a0ad0"
        }
      }
    },
    {
      "fullUrl": "urn:uuid:dda567a0-7c6a-4445-b133-2972ff90c2af",
      "resource": {
        "resourceType": "Observation",
        "id": "dda567a0-7c6a-4445-b133-2972ff90c2af",
        "meta": {
          "profile": [
            "http://hl7.eu/fhir/laboratory/StructureDefinition/Observation-resultslab-eu-lab"
          ]
        },
        "performer": [
          {
            "display": "The Central European Lab"
          }
        ],
        "category": [
          {
            "coding": [
              {
                "system": "http://terminology.hl7.org/CodeSystem/observation-category",
                "code": "laboratory"
              }
            ]
          }
        ],
        "code": {
          "coding": [
            {
              "code": "6299-2",
              "system": "http://loinc.org",
              "display": "Urea nitrogen [Mass/volume] in Blood"
            }
          ],
          "text": "Urea nitrogen [Mass/volume] in Blood"
        },
        "valueQuantity": {
          "system": "http://unitsofmeasure.org",
          "value": 15.8,
          "unit": "mg/dL",
          "code": "mg/dL"
        },
        "referenceRange": [
          {
            "low": {
              "value": 7,
              "code": "mg/dL",
              "system": "http://unitsofmeasure.org"
            }
          },
          {
            "high": {
              "value": 43,
              "code": "mg/dL",
              "system": "http://unitsofmeasure.org"
            }
          }
        ],
        "text": {
          "status": "generated",
          "div": "<div xmlns=\"http://www.w3.org/1999/xhtml\"><table class=\"hl7__eu__lab__report\"><tr><th>Test</th><th>10-Aug-2021</th><th>Reference&#xA0;Range</th><th>Unit</th></tr><tr><td>Urea nitrogen [Mass/volume] in Blood</td><td>15.8</td><td>7 - 43</td><td></td><td>mg/dL</td></tr></table></div>"
        },
        "status": "final",
        "subject": {
          "reference": "urn:uuid:202736da-0121-4029-8c83-ddc984199259",
          "display": "Meaghan Neary"
        },
        "effectiveDateTime": "2021-08-09T22:11:04Z",
        "specimen": {
          "reference": "urn:uuid:cf8a8a1b-cc8b-45b7-9bf4-623a9e7a0ad0"
        }
      }
    },
    {
      "fullUrl": "urn:uuid:bad4e6f1-fa27-4b35-9a45-4fb6a217b4d0",
      "resource": {
        "resourceType": "Observation",
        "id": "bad4e6f1-fa27-4b35-9a45-4fb6a217b4d0",
        "meta": {
          "profile": [
            "http://hl7.eu/fhir/laboratory/StructureDefinition/Observation-resultslab-eu-lab"
          ]
        },
        "performer": [
          {
            "display": "The Central European Lab"
          }
        ],
        "category": [
          {
            "coding": [
              {
                "system": "http://terminology.hl7.org/CodeSystem/observation-category",
                "code": "laboratory"
              }
            ]
          }
        ],
        "code": {
          "coding": [
            {
              "code": "38483-4",
              "system": "http://loinc.org",
              "display": "Creatinine [Mass/volume] in Blood"
            }
          ],
          "text": "Creatinine [Mass/volume] in Blood"
        },
        "valueQuantity": {
          "system": "http://unitsofmeasure.org",
          "value": 3,
          "unit": "mg/dL",
          "code": "mg/dL"
        },
        "referenceRange": [
          {
            "low": {
              "value": 0.6,
              "code": "mg/dL",
              "system": "http://unitsofmeasure.org"
            }
          },
          {
            "high": {
              "value": 1.1,
              "code": "mg/dL",
              "system": "http://unitsofmeasure.org"
            }
          }
        ],
        "interpretation": [
          {
            "coding": [
              {
                "code": "H",
                "system": "http://terminology.hl7.org/CodeSystem/v3-ObservationInterpretation",
                "display": "High"
              }
            ]
          }
        ],
        "text": {
          "status": "generated",
          "div": "<div xmlns=\"http://www.w3.org/1999/xhtml\"><table class=\"hl7__eu__lab__report\"><tr><th>Test</th><th>10-Aug-2021</th><th>Reference&#xA0;Range</th><th>Unit</th></tr><tr><td>Creatinine [Mass/volume] in Blood</td><td>3.0</td><td>0.6 - 1.1</td><td>H</td><td>mg/dL</td></tr></table></div>"
        },
        "status": "final",
        "subject": {
          "reference": "urn:uuid:202736da-0121-4029-8c83-ddc984199259",
          "display": "Meaghan Neary"
        },
        "effectiveDateTime": "2021-08-09T22:11:04Z",
        "specimen": {
          "reference": "urn:uuid:cf8a8a1b-cc8b-45b7-9bf4-623a9e7a0ad0"
        }
      }
    },
    {
      "fullUrl": "urn:uuid:47c142bb-f7c0-46e2-b806-f6df53096c95",
      "resource": {
        "resourceType": "Observation",
        "id": "47c142bb-f7c0-46e2-b806-f6df53096c95",
        "meta": {
          "profile": [
            "http://hl7.eu/fhir/laboratory/StructureDefinition/Observation-resultslab-eu-lab"
          ]
        },
        "performer": [
          {
            "display": "The Central European Lab"
          }
        ],
        "category": [
          {
            "coding": [
              {
                "system": "http://terminology.hl7.org/CodeSystem/observation-category",
                "code": "laboratory"
              }
            ]
          }
        ],
        "code": {
          "coding": [
            {
              "code": "49765-1",
              "system": "http://loinc.org",
              "display": "Calcium [Mass/volume] in Blood"
            }
          ],
          "text": "Calcium [Mass/volume] in Blood"
        },
        "valueQuantity": {
          "system": "http://unitsofmeasure.org",
          "value": 10.1,
          "unit": "mg/dL",
          "code": "mg/dL"
        },
        "referenceRange": [
          {
            "low": {
              "value": 8.5,
              "code": "mg/dL",
              "system": "http://unitsofmeasure.org"
            }
          },
          {
            "high": {
              "value": 10.5,
              "code": "mg/dL",
              "system": "http://unitsofmeasure.org"
            }
          }
        ],
        "text": {
          "status": "generated",
          "div": "<div xmlns=\"http://www.w3.org/1999/xhtml\"><table class=\"hl7__eu__lab__report\"><tr><th>Test</th><th>10-Aug-2021</th><th>Reference&#xA0;Range</th><th>Unit</th></tr><tr><td>Calcium [Mass/volume] in Blood</td><td>10.1</td><td>8.5 - 10.5</td><td></td><td>mg/dL</td></tr></table></div>"
        },
        "status": "final",
        "subject": {
          "reference": "urn:uuid:202736da-0121-4029-8c83-ddc984199259",
          "display": "Meaghan Neary"
        },
        "effectiveDateTime": "2021-08-09T22:11:04Z",
        "specimen": {
          "reference": "urn:uuid:cf8a8a1b-cc8b-45b7-9bf4-623a9e7a0ad0"
        }
      }
    },
    {
      "fullUrl": "urn:uuid:55ae39c5-bcdf-4e7e-be68-ae1c792b0e3c",
      "resource": {
        "resourceType": "Observation",
        "id": "55ae39c5-bcdf-4e7e-be68-ae1c792b0e3c",
        "meta": {
          "profile": [
            "http://hl7.eu/fhir/laboratory/StructureDefinition/Observation-resultslab-eu-lab"
          ]
        },
        "performer": [
          {
            "display": "The Central European Lab"
          }
        ],
        "category": [
          {
            "coding": [
              {
                "system": "http://terminology.hl7.org/CodeSystem/observation-category",
                "code": "laboratory"
              }
            ]
          }
        ],
        "code": {
          "coding": [
            {
              "code": "2947-0",
              "system": "http://loinc.org",
              "display": "Sodium [Moles/volume] in Blood"
            }
          ],
          "text": "Sodium [Moles/volume] in Blood"
        },
        "valueQuantity": {
          "system": "http://unitsofmeasure.org",
          "value": 141.3,
          "unit": "mmol/L",
          "code": "mmol/L"
        },
        "referenceRange": [
          {
            "low": {
              "value": 135,
              "code": "mmol/L",
              "system": "http://unitsofmeasure.org"
            }
          },
          {
            "high": {
              "value": 145,
              "code": "mmol/L",
              "system": "http://unitsofmeasure.org"
            }
          }
        ],
        "text": {
          "status": "generated",
          "div": "<div xmlns=\"http://www.w3.org/1999/xhtml\"><table class=\"hl7__eu__lab__report\"><tr><th>Test</th><th>10-Aug-2021</th><th>Reference&#xA0;Range</th><th>Unit</th></tr><tr><td>Sodium [Moles/volume] in Blood</td><td>141.3</td><td>135 - 145</td><td></td><td>mmol/L</td></tr></table></div>"
        },
        "status": "final",
        "subject": {
          "reference": "urn:uuid:202736da-0121-4029-8c83-ddc984199259",
          "display": "Meaghan Neary"
        },
        "effectiveDateTime": "2021-08-09T22:11:04Z",
        "specimen": {
          "reference": "urn:uuid:cf8a8a1b-cc8b-45b7-9bf4-623a9e7a0ad0"
        }
      }
    },
    {
      "fullUrl": "urn:uuid:ae3be663-a0f6-4825-8e54-eb11c2ebdfaf",
      "resource": {
        "resourceType": "Observation",
        "id": "ae3be663-a0f6-4825-8e54-eb11c2ebdfaf",
        "meta": {
          "profile": [
            "http://hl7.eu/fhir/laboratory/StructureDefinition/Observation-resultslab-eu-lab"
          ]
        },
        "performer": [
          {
            "display": "The Central European Lab"
          }
        ],
        "category": [
          {
            "coding": [
              {
                "system": "http://terminology.hl7.org/CodeSystem/observation-category",
                "code": "laboratory"
              }
            ]
          }
        ],
        "code": {
          "coding": [
            {
              "code": "6298-4",
              "system": "http://loinc.org",
              "display": "Potassium [Moles/volume] in Blood"
            }
          ],
          "text": "Potassium [Moles/volume] in Blood"
        },
        "valueQuantity": {
          "system": "http://unitsofmeasure.org",
          "value": 4.3,
          "unit": "mmol/L",
          "code": "mmol/L"
        },
        "referenceRange": [
          {
            "low": {
              "value": 3.5,
              "code": "mmol/L",
              "system": "http://unitsofmeasure.org"
            }
          },
          {
            "high": {
              "value": 5.1,
              "code": "mmol/L",
              "system": "http://unitsofmeasure.org"
            }
          }
        ],
        "text": {
          "status": "generated",
          "div": "<div xmlns=\"http://www.w3.org/1999/xhtml\"><table class=\"hl7__eu__lab__report\"><tr><th>Test</th><th>10-Aug-2021</th><th>Reference&#xA0;Range</th><th>Unit</th></tr><tr><td>Potassium [Moles/volume] in Blood</td><td>4.3</td><td>3.5 - 5.1</td><td></td><td>mmol/L</td></tr></table></div>"
        },
        "status": "final",
        "subject": {
          "reference": "urn:uuid:202736da-0121-4029-8c83-ddc984199259",
          "display": "Meaghan Neary"
        },
        "effectiveDateTime": "2021-08-09T22:11:04Z",
        "specimen": {
          "reference": "urn:uuid:cf8a8a1b-cc8b-45b7-9bf4-623a9e7a0ad0"
        }
      }
    },
    {
      "fullUrl": "urn:uuid:78aa1925-4dd1-4b3c-b6a1-dd6377c14fb2",
      "resource": {
        "resourceType": "Observation",
        "id": "78aa1925-4dd1-4b3c-b6a1-dd6377c14fb2",
        "meta": {
          "profile": [
            "http://hl7.eu/fhir/laboratory/StructureDefinition/Observation-resultslab-eu-lab"
          ]
        },
        "performer": [
          {
            "display": "The Central European Lab"
          }
        ],
        "category": [
          {
            "coding": [
              {
                "system": "http://terminology.hl7.org/CodeSystem/observation-category",
                "code": "laboratory"
              }
            ]
          }
        ],
        "code": {
          "coding": [
            {
              "code": "2069-3",
              "system": "http://loinc.org",
              "display": "Chloride [Moles/volume] in Blood"
            }
          ],
          "text": "Chloride [Moles/volume] in Blood"
        },
        "valueQuantity": {
          "system": "http://unitsofmeasure.org",
          "value": 105.8,
          "unit": "mmol/L",
          "code": "mmol/L"
        },
        "referenceRange": [
          {
            "low": {
              "value": 98,
              "code": "mmol/L",
              "system": "http://unitsofmeasure.org"
            }
          },
          {
            "high": {
              "value": 108,
              "code": "mmol/L",
              "system": "http://unitsofmeasure.org"
            }
          }
        ],
        "text": {
          "status": "generated",
          "div": "<div xmlns=\"http://www.w3.org/1999/xhtml\"><table class=\"hl7__eu__lab__report\"><tr><th>Test</th><th>10-Aug-2021</th><th>Reference&#xA0;Range</th><th>Unit</th></tr><tr><td>Chloride [Moles/volume] in Blood</td><td>105.8</td><td>98 - 108</td><td></td><td>mmol/L</td></tr></table></div>"
        },
        "status": "final",
        "subject": {
          "reference": "urn:uuid:202736da-0121-4029-8c83-ddc984199259",
          "display": "Meaghan Neary"
        },
        "effectiveDateTime": "2021-08-09T22:11:04Z",
        "specimen": {
          "reference": "urn:uuid:cf8a8a1b-cc8b-45b7-9bf4-623a9e7a0ad0"
        }
      }
    },
    {
      "fullUrl": "urn:uuid:80d35b30-4798-42ac-a4ab-8d5609fcbec0",
      "resource": {
        "resourceType": "Observation",
        "id": "80d35b30-4798-42ac-a4ab-8d5609fcbec0",
        "meta": {
          "profile": [
            "http://hl7.eu/fhir/laboratory/StructureDefinition/Observation-resultslab-eu-lab"
          ]
        },
        "performer": [
          {
            "display": "The Central European Lab"
          }
        ],
        "category": [
          {
            "coding": [
              {
                "system": "http://terminology.hl7.org/CodeSystem/observation-category",
                "code": "laboratory"
              }
            ]
          }
        ],
        "code": {
          "coding": [
            {
              "code": "20565-8",
              "system": "http://loinc.org",
              "display": "Carbon dioxide, total [Moles/volume] in Blood"
            }
          ],
          "text": "Carbon dioxide, total [Moles/volume] in Blood"
        },
        "valueQuantity": {
          "system": "http://unitsofmeasure.org",
          "value": 20.9,
          "unit": "mmol/L",
          "code": "mmol/L"
        },
        "referenceRange": [
          {
            "low": {
              "value": 22,
              "code": "mmol/L",
              "system": "http://unitsofmeasure.org"
            }
          },
          {
            "high": {
              "value": 29,
              "code": "mmol/L",
              "system": "http://unitsofmeasure.org"
            }
          }
        ],
        "interpretation": [
          {
            "coding": [
              {
                "code": "L",
                "system": "http://terminology.hl7.org/CodeSystem/v3-ObservationInterpretation",
                "display": "Low"
              }
            ]
          }
        ],
        "text": {
          "status": "generated",
          "div": "<div xmlns=\"http://www.w3.org/1999/xhtml\"><table class=\"hl7__eu__lab__report\"><tr><th>Test</th><th>10-Aug-2021</th><th>Reference&#xA0;Range</th><th>Unit</th></tr><tr><td>Carbon dioxide, total [Moles/volume] in Blood</td><td>20.9</td><td>22 - 29</td><td>L</td><td>mmol/L</td></tr></table></div>"
        },
        "status": "final",
        "subject": {
          "reference": "urn:uuid:202736da-0121-4029-8c83-ddc984199259",
          "display": "Meaghan Neary"
        },
        "effectiveDateTime": "2021-08-09T22:11:04Z",
        "specimen": {
          "reference": "urn:uuid:cf8a8a1b-cc8b-45b7-9bf4-623a9e7a0ad0"
        }
      }
    },
    {
      "fullUrl": "urn:uuid:bb237aea-0a55-4abd-940b-f8a118f03f42",
      "resource": {
        "resourceType": "Device",
        "id": "bb237aea-0a55-4abd-940b-f8a118f03f42",
        "deviceName": [
          {
            "name": "SYNDERAI Synthetic Generator",
            "type": "manufacturer-name"
          }
        ],
        "version": [
          {
            "value": "5.0"
          }
        ],
        "text": {
          "status": "generated",
          "div": "<div xmlns=\"http://www.w3.org/1999/xhtml\">SYNDERAI Synthetic Generator v5.0</div>"
        },
        "status": "active\"",
        "distinctIdentifier": "synderai-generator-50",
        "manufacturer": "SYNDERAI Project"
      }
    },
    {
      "fullUrl": "urn:uuid:b1c953d8-70e3-4cf3-9cae-625dfa20522e",
      "resource": {
        "resourceType": "Provenance",
        "id": "b1c953d8-70e3-4cf3-9cae-625dfa20522e",
        "target": [
          {
            "reference": "Patient/202736da-0121-4029-8c83-ddc984199259"
          },
          {
            "reference": "Bundle/a6b91af3-91c1-4293-ad62-9d792aad1a95"
          },
          {
            "reference": "Composition/770792ef-dae6-4a3c-beec-fb6aec0b2aaa"
          },
          {
            "reference": "PractitionerRole/65b183cb-14c8-42c9-aa56-d486c6de52b9"
          },
          {
            "reference": "Practitioner/31ad8320-5967-4b25-ba97-13fc10819c13"
          },
          {
            "reference": "PractitionerRole/0c7700a9-a3f8-4322-9f1a-55a4ae078fd7"
          },
          {
            "reference": "Organization/77b234b2-88db-43aa-8b3f-c0cc9a6b18a4"
          }
        ],
        "activity": {
          "text": "Synthetic Example Data Generation"
        },
        "policy": [
          "https://synderai.net/synderai-synthetic-data-policy"
        ],
        "agent": [
          {
            "type": {
              "text": "author"
            },
            "who": {
              "reference": "Device/bb237aea-0a55-4abd-940b-f8a118f03f42"
            }
          }
        ],
        "reason": [
          {
            "text": "Interoperability Testing and Training (non-clinical use)"
          }
        ],
        "text": {
          "status": "generated",
          "div": "<div xmlns=\"http://www.w3.org/1999/xhtml\">Provenance for SYNDERAI Synthetic Example Data Resource</div>"
        },
        "recorded": "2021-08-10T00:11:04Z"
      }
    },
    {
      "fullUrl": "urn:uuid:65b183cb-14c8-42c9-aa56-d486c6de52b9",
      "resource": {
        "resourceType": "PractitionerRole",
        "id": "65b183cb-14c8-42c9-aa56-d486c6de52b9",
        "meta": {
          "profile": [
            "http://hl7.eu/fhir/base/StructureDefinition/practitionerRole-eu"
          ]
        },
        "text": {
          "status": "generated",
          "div": "<div xmlns=\"http://www.w3.org/1999/xhtml\">Laboratory Role Id: 65b183cb-14c8-42c9-aa56-d486c6de52b9</div>"
        },
        "practitioner": {
          "reference": "urn:uuid:31ad8320-5967-4b25-ba97-13fc10819c13"
        }
      }
    },
    {
      "fullUrl": "urn:uuid:31ad8320-5967-4b25-ba97-13fc10819c13",
      "resource": {
        "resourceType": "Practitioner",
        "id": "31ad8320-5967-4b25-ba97-13fc10819c13",
        "meta": {
          "profile": [
            "http://hl7.eu/fhir/base/StructureDefinition/practitioner-eu"
          ]
        },
        "identifier": [
          {
            "assigner": {
              "display": "HL7 Europe"
            },
            "system": "urn:oid:2.16.840.1.113883.2.51.999",
            "value": "c49237d4-41fb-455e-950b-6464e37ae62f"
          }
        ],
        "name": [
          {
            "prefix": [
              "dr"
            ],
            "given": [
              "Ex"
            ],
            "family": "Ample"
          }
        ],
        "address": [
          {
            "line": [
              "Laboratoire Central Européenne",
              "Boulevard du Jardin Botanique 32"
            ],
            "postalCode": "1000",
            "city": "Brussels",
            "country": "Belgium"
          }
        ],
        "text": {
          "status": "generated",
          "div": "<div xmlns=\"http://www.w3.org/1999/xhtml\">Laboratory: Laboratoire Central Européenne, 1000 Brussels, Belgium</div>"
        }
      }
    }
  ],
  "type": "document",
  "timestamp": "2021-08-10T00:11:04Z"
}
