{
  "resourceType": "Bundle",
  "id": "c1327e19-aa10-43a4-8502-987af128c41e",
  "meta": {
    "profile": [
      "http://hl7.eu/fhir/laboratory/StructureDefinition/Bundle-eu-lab"
    ]
  },
  "identifier": {
    "assigner": {
      "display": "HL7 Europe"
    },
    "system": "urn:oid:2.16.840.1.113883.2.51.999",
    "value": "f155007a-5a31-467c-87b6-703c3cf896b2"
  },
  "entry": [
    {
      "fullUrl": "urn:uuid:a4a1fc25-2250-454d-bf48-a65136225a7e",
      "resource": {
        "resourceType": "Composition",
        "id": "a4a1fc25-2250-454d-bf48-a65136225a7e",
        "meta": {
          "profile": [
            "http://hl7.eu/fhir/laboratory/StructureDefinition/Composition-eu-lab"
          ]
        },
        "identifier": {
          "assigner": {
            "display": "HL7 Europe"
          },
          "system": "urn:oid:2.16.840.1.113883.2.51.999",
          "value": "fd244b23-9e9a-4253-929c-ae52f3ab3a77"
        },
        "author": [
          {
            "reference": "urn:uuid:f14409f0-e2db-49f4-bbdf-3af80a450c7d"
          }
        ],
        "category": [
          {
            "coding": [
              {
                "code": "26436-6",
                "system": "http://loinc.org",
                "display": "Laboratory studies (set)"
              }
            ]
          }
        ],
        "type": {
          "coding": [
            {
              "code": "11502-2",
              "system": "http://loinc.org",
              "display": "Laboratory report"
            }
          ],
          "text": "Laboratory Report"
        },
        "section": [
          {
            "code": {
              "coding": [
                {
                  "code": "26436-6",
                  "system": "http://loinc.org",
                  "display": "Laboratory studies (set)"
                }
              ],
              "text": "Laboratory studies"
            },
            "section": [
              {
                "code": {
                  "coding": [
                    {
                      "code": "$18719-5",
                      "system": "http://loinc.org",
                      "display": "Chemistry studies (set)"
                    }
                  ],
                  "text": "Chemistry"
                },
                "entry": [
                  {
                    "reference": "urn:uuid:17fe8a15-4d99-4841-8c2c-8e032ec6519a"
                  },
                  {
                    "reference": "urn:uuid:81c1fc4b-fb1e-47bf-b676-dac3f19bb015"
                  },
                  {
                    "reference": "urn:uuid:40c5aed5-16b5-41a7-9cb7-681b123001ea"
                  },
                  {
                    "reference": "urn:uuid:055b908b-ce5f-486a-a028-b26d4b5af34a"
                  },
                  {
                    "reference": "urn:uuid:9aba280c-11dc-4ed3-8c06-4fb92ba8bc3d"
                  },
                  {
                    "reference": "urn:uuid:7854e851-0616-4012-9458-c459c37208e5"
                  },
                  {
                    "reference": "urn:uuid:9baf222f-9c72-47ac-8b80-cc45ba4461cd"
                  },
                  {
                    "reference": "urn:uuid:57e95be2-97af-4e7c-b4ac-66766e959488"
                  },
                  {
                    "reference": "urn:uuid:8cccaee0-c48f-4fb4-b7f5-e63cfcc4693b"
                  }
                ],
                "text": {
                  "status": "generated",
                  "div": "<div xmlns=\"http://www.w3.org/1999/xhtml\"><h3>Chemistry</h3><table class=\"hl7__eu__lab__report\"><thead><tr><th>Test</th><th>15-APR-2025</th><th>Reference&#xA0;Range</th><th>Unit</th></tr></thead><tbody><tr><td>Glucose [Mass/volume] in Serum or Plasma</td><td>74.5</td><td>70 - 139</td><td>mg/dL</td></tr><tr><td>Urea nitrogen [Mass/volume] in Serum or Plasma</td><td>7.7</td><td>7 - 20</td><td>mg/dL</td></tr><tr><td>Creatinine [Mass/volume] in Serum or Plasma</td><td><strong>2.0 H</strong></td><td>0.6 - 1.1</td><td>mg/dL</td></tr><tr><td>Calcium [Mass/volume] in Serum or Plasma</td><td>9.5</td><td>8.5 - 10.4</td><td>mg/dL</td></tr><tr><td>Sodium [Moles/volume] in Serum or Plasma</td><td>138.4</td><td>135 - 145</td><td>mmol/L</td></tr><tr><td>Potassium [Moles/volume] in Serum or Plasma</td><td>4.3</td><td>3.5 - 5.1</td><td>mmol/L</td></tr><tr><td>Chloride [Moles/volume] in Serum or Plasma</td><td>101.8</td><td>98 - 110</td><td>mmol/L</td></tr><tr><td>Carbon dioxide, total [Moles/volume] in Serum or Plasma</td><td>22.7</td><td>22 - 32</td><td>mmol/L</td></tr><tr><td>Ketones [Presence] in Urine by Test strip</td><td>Urine ketone test = +</td><td></td><td></td></tr></tbody></table></div>"
                },
                "title": "Chemistry"
              },
              {
                "code": {
                  "coding": [
                    {
                      "code": "$18729-4",
                      "system": "http://loinc.org",
                      "display": "Urinalysis studies (set)"
                    }
                  ],
                  "text": "Urinalysis"
                },
                "entry": [
                  {
                    "reference": "urn:uuid:d60a2e37-620d-44ba-bbc4-02a690d1da44"
                  },
                  {
                    "reference": "urn:uuid:075481c6-58fb-43e5-8710-c8b129134800"
                  },
                  {
                    "reference": "urn:uuid:5b5395d0-c4ba-4348-80ba-873512211eda"
                  },
                  {
                    "reference": "urn:uuid:e30b71d0-8b2b-44c2-97f6-0aab8c5a193b"
                  },
                  {
                    "reference": "urn:uuid:1b666bb9-9b32-4c79-8444-04b4aaa079cc"
                  },
                  {
                    "reference": "urn:uuid:325880a2-0d11-4c12-978d-543065f51be2"
                  },
                  {
                    "reference": "urn:uuid:d2d66ba3-4639-4749-a378-3b79c5308208"
                  },
                  {
                    "reference": "urn:uuid:3c57a49d-45df-4531-882e-bde3739171cb"
                  },
                  {
                    "reference": "urn:uuid:905e28e3-6358-482b-9ada-9c511d4c2af1"
                  },
                  {
                    "reference": "urn:uuid:804d46a7-da1d-4ff5-b907-c8e702e97684"
                  },
                  {
                    "reference": "urn:uuid:dbe09fa1-ca62-49af-8eb9-d0b238f528d7"
                  },
                  {
                    "reference": "urn:uuid:596c18c3-d254-46dc-a5c8-3f6213d77d73"
                  }
                ],
                "text": {
                  "status": "generated",
                  "div": "<div xmlns=\"http://www.w3.org/1999/xhtml\"><h3>Urinalysis</h3><table class=\"hl7__eu__lab__report\"><thead><tr><th>Test</th><th>15-APR-2025</th><th>Reference&#xA0;Range</th><th>Unit</th></tr></thead><tbody><tr><td>Glucose [Mass/volume] in Urine by Test strip</td><td><strong>2.4 H</strong></td><td>0 - 0</td><td>mg/dL</td></tr><tr><td>Glucose [Presence] in Urine by Test strip</td><td>++</td><td></td><td></td></tr><tr><td>Bilirubin.total [Mass/volume] in Urine by Test strip</td><td>1.4</td><td>0 - 1.6</td><td>mg/dL</td></tr><tr><td>Bilirubin.total [Presence] in Urine by Test strip</td><td>Finding of bilirubin in urine</td><td></td><td></td></tr><tr><td>Ketones [Mass/volume] in Urine by Test strip</td><td><strong>14.2 H</strong></td><td>0 - 0.5</td><td>mg/dL</td></tr><tr><td>Specific gravity of Urine by Test strip</td><td><strong>1.0 L</strong></td><td>1.005 - 1.03</td><td>{nominal}</td></tr><tr><td>pH of Urine by Test strip</td><td>6.7</td><td>4.5 - 7.5</td><td>pH</td></tr><tr><td>Protein [Mass/volume] in Urine by Test strip</td><td><strong>169.0 H</strong></td><td>0 - 15</td><td>mg/dL</td></tr><tr><td>Protein [Presence] in Urine by Test strip</td><td>Urine protein test = ++</td><td></td><td></td></tr><tr><td>Nitrite [Presence] in Urine by Test strip</td><td>Urine nitrite negative</td><td></td><td></td></tr><tr><td>Hemoglobin [Presence] in Urine by Test strip</td><td>Urine blood test = negative</td><td></td><td></td></tr><tr><td>Leukocyte esterase [Presence] in Urine by Test strip</td><td>Urine leukocyte test negative</td><td></td><td></td></tr></tbody></table></div>"
                },
                "title": "Urinalysis"
              },
              {
                "code": {
                  "coding": [
                    {
                      "code": "$LP7846-1",
                      "system": "http://loinc.org",
                      "display": "Specimen information"
                    }
                  ],
                  "text": "Specimen information"
                },
                "entry": [
                  {
                    "reference": "urn:uuid:c2f6cbc0-ae3b-4118-bdd5-0dc51a79464f"
                  },
                  {
                    "reference": "urn:uuid:489ffecf-cfd5-4770-ac97-be6375ec737e"
                  },
                  {
                    "reference": "urn:uuid:8ccd77b2-c281-4f16-9c83-8598b79fb042"
                  },
                  {
                    "reference": "urn:uuid:6f9d0e27-a996-4f6f-b83b-6a08e71f68eb"
                  }
                ],
                "text": {
                  "status": "generated",
                  "div": "<div xmlns=\"http://www.w3.org/1999/xhtml\"><h3>Specimen information</h3><table class=\"hl7__eu__lab__report\"><thead><tr><th>Test</th><th>15-APR-2025</th><th>Specimen</th><th></th></tr></thead><tbody><tr><td>Appearance of Urine</td><td>Cloudy urine</td><td>Urine</td><td></td></tr><tr><td>Odor of Urine</td><td>Urine smell ammoniacal</td><td>Urine</td><td></td></tr><tr><td>Clarity of Urine</td><td>Translucent</td><td>Urine</td><td></td></tr><tr><td>Color of Urine</td><td>Brown color</td><td>Urine</td><td></td></tr></tbody></table></div>"
                },
                "title": "Specimen information"
              }
            ],
            "title": "Laboratory Report"
          },
          {
            "text": {
              "status": "generated",
              "div": "<div xmlns=\"http://www.w3.org/1999/xhtml\"><h3>Annotation</h3><table class=\"hl7__eu__lab__report\"><tr><th>Conclusion and Recommendations based on this report and previous findings known to us</th></tr><tr><td>The patient shows elevated serum creatinine, indicating impaired renal function. Urinalysis reveals significant proteinuria, glucosuria, and ketonuria, with low specific gravity and abnormal urine appearance (cloudy, brown, ammoniacal odor), but no hematuria or leukocyturia. These findings suggest possible diabetic nephropathy or another form of renal dysfunction with glycosuria and proteinuria. Further clinical correlation and nephrology evaluation are recommended.</td></tr></table></div>"
            },
            "code": {
              "coding": [
                {
                  "system": "http://loinc.org",
                  "code": "48767-8",
                  "display": "Annotation comment"
                }
              ]
            },
            "title": "Annotation comment"
          }
        ],
        "status": "final",
        "subject": {
          "reference": "urn:uuid:54bca2a4-36cc-4177-8ff8-8a5810f2c8ac",
          "display": "Hortense Gallet"
        },
        "date": "2025-04-15T22:16:45Z",
        "title": "Laboratory Report",
        "confidentiality": "N"
      }
    },
    {
      "fullUrl": "urn:uuid:82462df6-c4fe-40d7-8cb9-aa22674a8970",
      "resource": {
        "resourceType": "DiagnosticReport",
        "id": "82462df6-c4fe-40d7-8cb9-aa22674a8970",
        "meta": {
          "profile": [
            "http://hl7.eu/fhir/laboratory/StructureDefinition/DiagnosticReport-eu-lab"
          ]
        },
        "identifier": [
          {
            "assigner": {
              "display": "HL7 Europe"
            },
            "system": "urn:oid:2.16.840.1.113883.2.51.999",
            "value": "44564a08-5498-47e3-b713-6d0a42a5496f"
          }
        ],
        "extension": [
          {
            "url": "http://hl7.org/fhir/5.0/StructureDefinition/extension-DiagnosticReport.composition",
            "valueReference": {
              "reference": "urn:uuid:fd244b23-9e9a-4253-929c-ae52f3ab3a77"
            }
          }
        ],
        "category": [
          {
            "coding": [
              {
                "code": "26436-6",
                "system": "http://loinc.org",
                "display": "Laboratory studies (set)"
              }
            ]
          }
        ],
        "specimen": [
          {
            "reference": "urn:uuid:e68069f2-2957-4224-b0b2-4244bed496be"
          },
          {
            "reference": "urn:uuid:321d7086-27e1-4fdf-8f6a-a1ccee493314"
          }
        ],
        "result": [
          {
            "reference": "urn:uuid:17fe8a15-4d99-4841-8c2c-8e032ec6519a"
          },
          {
            "reference": "urn:uuid:81c1fc4b-fb1e-47bf-b676-dac3f19bb015"
          },
          {
            "reference": "urn:uuid:40c5aed5-16b5-41a7-9cb7-681b123001ea"
          },
          {
            "reference": "urn:uuid:055b908b-ce5f-486a-a028-b26d4b5af34a"
          },
          {
            "reference": "urn:uuid:9aba280c-11dc-4ed3-8c06-4fb92ba8bc3d"
          },
          {
            "reference": "urn:uuid:7854e851-0616-4012-9458-c459c37208e5"
          },
          {
            "reference": "urn:uuid:9baf222f-9c72-47ac-8b80-cc45ba4461cd"
          },
          {
            "reference": "urn:uuid:57e95be2-97af-4e7c-b4ac-66766e959488"
          },
          {
            "reference": "urn:uuid:c2f6cbc0-ae3b-4118-bdd5-0dc51a79464f"
          },
          {
            "reference": "urn:uuid:489ffecf-cfd5-4770-ac97-be6375ec737e"
          },
          {
            "reference": "urn:uuid:8ccd77b2-c281-4f16-9c83-8598b79fb042"
          },
          {
            "reference": "urn:uuid:6f9d0e27-a996-4f6f-b83b-6a08e71f68eb"
          },
          {
            "reference": "urn:uuid:d60a2e37-620d-44ba-bbc4-02a690d1da44"
          },
          {
            "reference": "urn:uuid:075481c6-58fb-43e5-8710-c8b129134800"
          },
          {
            "reference": "urn:uuid:5b5395d0-c4ba-4348-80ba-873512211eda"
          },
          {
            "reference": "urn:uuid:e30b71d0-8b2b-44c2-97f6-0aab8c5a193b"
          },
          {
            "reference": "urn:uuid:1b666bb9-9b32-4c79-8444-04b4aaa079cc"
          },
          {
            "reference": "urn:uuid:8cccaee0-c48f-4fb4-b7f5-e63cfcc4693b"
          },
          {
            "reference": "urn:uuid:325880a2-0d11-4c12-978d-543065f51be2"
          },
          {
            "reference": "urn:uuid:d2d66ba3-4639-4749-a378-3b79c5308208"
          },
          {
            "reference": "urn:uuid:3c57a49d-45df-4531-882e-bde3739171cb"
          },
          {
            "reference": "urn:uuid:905e28e3-6358-482b-9ada-9c511d4c2af1"
          },
          {
            "reference": "urn:uuid:804d46a7-da1d-4ff5-b907-c8e702e97684"
          },
          {
            "reference": "urn:uuid:dbe09fa1-ca62-49af-8eb9-d0b238f528d7"
          },
          {
            "reference": "urn:uuid:596c18c3-d254-46dc-a5c8-3f6213d77d73"
          }
        ],
        "status": "registered",
        "code": {
          "coding": [
            {
              "code": "11502-2",
              "system": "http://loinc.org",
              "display": "Laboratory report"
            }
          ]
        },
        "subject": {
          "reference": "urn:uuid:54bca2a4-36cc-4177-8ff8-8a5810f2c8ac",
          "display": "Hortense Gallet"
        }
      }
    },
    {
      "fullUrl": "urn:uuid:54bca2a4-36cc-4177-8ff8-8a5810f2c8ac",
      "resource": {
        "resourceType": "Patient",
        "id": "54bca2a4-36cc-4177-8ff8-8a5810f2c8ac",
        "meta": {
          "security": [
            {
              "system": "http://terminology.hl7.org/CodeSystem/v3-ActReason",
              "code": "HTEST"
            },
            {
              "system": "http://terminology.hl7.org/CodeSystem/v3-ActReason",
              "code": "TRAIN"
            }
          ],
          "tag": [
            {
              "system": "https://synderai.net/fhir/CodeSystem/tags",
              "code": "synthetic",
              "display": "SYNDERAI Synthetic data"
            }
          ],
          "profile": [
            "http://hl7.eu/fhir/base/StructureDefinition/patient-eu-core"
          ]
        },
        "identifier": [
          {
            "type": {
              "coding": [
                {
                  "code": "PT",
                  "system": "http://terminology.hl7.org/CodeSystem/v2-0203"
                }
              ]
            },
            "system": "http://ec.europa.eu/identifier/eci",
            "value": "7727-126450-7"
          },
          {
            "type": {
              "coding": [
                {
                  "code": "MR",
                  "system": "http://terminology.hl7.org/CodeSystem/v2-0203"
                }
              ]
            },
            "system": "http://local.setting.eu/identifier",
            "value": "7f40b956-404d-dd5b-92ca-442ee97c8277"
          }
        ],
        "name": [
          {
            "family": "Gallet"
          },
          {
            "given": [
              "Hortense"
            ]
          },
          {
            "text": "Hortense Gallet"
          }
        ],
        "address": [
          {
            "line": [
              "98, boulevard de Faure"
            ],
            "use": "home",
            "type": "physical",
            "postalCode": "03210",
            "city": "Besson",
            "country": "France"
          }
        ],
        "telecom": [
          {
            "system": "phone",
            "value": "03 26 87 89 04"
          }
        ],
        "extension": [
          {
            "url": "http://hl7.org/fhir/StructureDefinition/patient-nationality",
            "valueCodeableConcept": {
              "coding": [
                {
                  "code": "FR",
                  "system": "http://hl7.org/fhir/ValueSet/country"
                }
              ]
            }
          }
        ],
        "text": {
          "status": "generated",
          "div": "<div xmlns=\"http://www.w3.org/1999/xhtml\"><table class=\"hl7__ips\"><tr><td>Hortense Gallet</td><td>female</td><td>14-Feb-1967</td></tr></table></div>"
        },
        "gender": "female",
        "birthDate": "1967-02-14"
      }
    },
    {
      "fullUrl": "urn:uuid:60fdecaa-4d22-440b-b407-dcb1dac7cb67",
      "resource": {
        "resourceType": "ServiceRequest",
        "id": "60fdecaa-4d22-440b-b407-dcb1dac7cb67",
        "meta": {
          "profile": [
            "http://hl7.eu/fhir/laboratory/StructureDefinition/ServiceRequest-eu-lab"
          ]
        },
        "identifier": [
          {
            "system": "http://example.org",
            "value": "18255def-1208-4d98-a995-e9853e6cd745"
          }
        ],
        "specimen": [
          {
            "reference": "urn:uuid:e68069f2-2957-4224-b0b2-4244bed496be"
          },
          {
            "reference": "urn:uuid:321d7086-27e1-4fdf-8f6a-a1ccee493314"
          }
        ],
        "reasonCode": [
          {
            "coding": [
              {
                "code": "431856006",
                "system": "http://snomed.info/sct",
                "display": "Chronic kidney disease stage 2"
              }
            ]
          },
          {
            "coding": [
              {
                "code": "90781000119102",
                "system": "http://snomed.info/sct",
                "display": "Microalbuminuria due to type 2 diabetes mellitus"
              }
            ]
          },
          {
            "coding": [
              {
                "code": "127013003",
                "system": "http://snomed.info/sct",
                "display": "Disorder of kidney due to diabetes mellitus"
              }
            ]
          },
          {
            "coding": [
              {
                "code": "431855005",
                "system": "http://snomed.info/sct",
                "display": "Chronic kidney disease stage 1"
              }
            ]
          },
          {
            "coding": [
              {
                "code": "59621000",
                "system": "http://snomed.info/sct",
                "display": "Essential hypertension"
              }
            ]
          }
        ],
        "status": "active",
        "intent": "order",
        "code": {
          "coding": [
            {
              "code": "108252007",
              "system": "http://snomed.info/sct",
              "display": "Laboratory procedure"
            }
          ]
        },
        "subject": {
          "reference": "urn:uuid:54bca2a4-36cc-4177-8ff8-8a5810f2c8ac",
          "display": "Hortense Gallet"
        },
        "requester": {
          "reference": "urn:uuid:1aad2c4b-1fb6-4535-87ec-837848018307"
        }
      }
    },
    {
      "fullUrl": "urn:uuid:1aad2c4b-1fb6-4535-87ec-837848018307",
      "resource": {
        "resourceType": "PractitionerRole",
        "id": "1aad2c4b-1fb6-4535-87ec-837848018307",
        "meta": {
          "profile": [
            "http://hl7.eu/fhir/base/StructureDefinition/practitionerRole-eu"
          ]
        },
        "text": {
          "status": "generated",
          "div": "<div xmlns=\"http://www.w3.org/1999/xhtml\">Provider Role Id: 1aad2c4b-1fb6-4535-87ec-837848018307</div>"
        },
        "organization": {
          "reference": "urn:uuid:7d72e4c4-eb86-4369-a071-531847885bbf"
        }
      }
    },
    {
      "fullUrl": "urn:uuid:7d72e4c4-eb86-4369-a071-531847885bbf",
      "resource": {
        "resourceType": "Organization",
        "id": "7d72e4c4-eb86-4369-a071-531847885bbf",
        "meta": {
          "profile": [
            "http://hl7.eu/fhir/base/StructureDefinition/organization-eu"
          ]
        },
        "identifier": [
          {
            "assigner": {
              "display": "HL7 Europe"
            },
            "system": "urn:oid:2.16.840.1.113883.2.51.999",
            "value": "7cf91655-7107-49e4-9c30-0ceeecc3718e"
          }
        ],
        "address": [
          {
            "line": [
              "Rue Jean Jaurès 140"
            ],
            "city": "Vichy",
            "postalCode": "03200",
            "country": "France"
          }
        ],
        "text": {
          "status": "generated",
          "div": "<div xmlns=\"http://www.w3.org/1999/xhtml\">Provider Organization: Centre La Chrysalide</div>"
        },
        "name": "Centre La Chrysalide"
      }
    },
    {
      "fullUrl": "urn:uuid:e68069f2-2957-4224-b0b2-4244bed496be",
      "resource": {
        "resourceType": "Specimen",
        "id": "e68069f2-2957-4224-b0b2-4244bed496be",
        "meta": {
          "profile": [
            "http://hl7.eu/fhir/laboratory/StructureDefinition/Specimen-eu-lab"
          ]
        },
        "collection": {
          "collectedDateTime": "2025-04-15"
        },
        "text": {
          "status": "generated",
          "div": "<div xmlns=\"http://www.w3.org/1999/xhtml\"><table class=\"hl7__eu__lab__report\"><tr><th>Specimen</th><th>Collection Date</th></tr><tr><td>Acellular blood (serum or plasma) specimen</td><td><span class=\"nb\">15-Apr-2025</span></td></tr></table></div>"
        },
        "type": {
          "coding": [
            {
              "code": "122592007",
              "system": "http://snomed.info/sct",
              "display": "Acellular blood (serum or plasma) specimen"
            }
          ]
        }
      }
    },
    {
      "fullUrl": "urn:uuid:321d7086-27e1-4fdf-8f6a-a1ccee493314",
      "resource": {
        "resourceType": "Specimen",
        "id": "321d7086-27e1-4fdf-8f6a-a1ccee493314",
        "meta": {
          "profile": [
            "http://hl7.eu/fhir/laboratory/StructureDefinition/Specimen-eu-lab"
          ]
        },
        "collection": {
          "collectedDateTime": "2025-04-15"
        },
        "text": {
          "status": "generated",
          "div": "<div xmlns=\"http://www.w3.org/1999/xhtml\"><table class=\"hl7__eu__lab__report\"><tr><th>Specimen</th><th>Collection Date</th></tr><tr><td>Urine specimen</td><td><span class=\"nb\">15-Apr-2025</span></td></tr></table></div>"
        },
        "type": {
          "coding": [
            {
              "code": "122575003",
              "system": "http://snomed.info/sct",
              "display": "Urine specimen"
            }
          ]
        }
      }
    },
    {
      "fullUrl": "urn:uuid:17fe8a15-4d99-4841-8c2c-8e032ec6519a",
      "resource": {
        "resourceType": "Observation",
        "id": "17fe8a15-4d99-4841-8c2c-8e032ec6519a",
        "meta": {
          "profile": [
            "http://hl7.eu/fhir/laboratory/StructureDefinition/Observation-resultslab-eu-lab"
          ]
        },
        "performer": [
          {
            "display": "The Central European Lab"
          }
        ],
        "category": [
          {
            "coding": [
              {
                "system": "http://terminology.hl7.org/CodeSystem/observation-category",
                "code": "laboratory"
              }
            ]
          }
        ],
        "code": {
          "coding": [
            {
              "code": "2345-7",
              "system": "http://loinc.org",
              "display": "Glucose [Mass/volume] in Serum or Plasma"
            }
          ],
          "text": "Glucose [Mass/volume] in Serum or Plasma"
        },
        "valueQuantity": {
          "system": "http://unitsofmeasure.org",
          "value": 74.5,
          "unit": "mg/dL",
          "code": "mg/dL"
        },
        "referenceRange": [
          {
            "low": {
              "value": 70,
              "code": "mg/dL",
              "system": "http://unitsofmeasure.org"
            }
          },
          {
            "high": {
              "value": 139,
              "code": "mg/dL",
              "system": "http://unitsofmeasure.org"
            }
          }
        ],
        "text": {
          "status": "generated",
          "div": "<div xmlns=\"http://www.w3.org/1999/xhtml\"><table class=\"hl7__eu__lab__report\"><tr><th>Test</th><th>15-Apr-2025</th><th>Reference&#xA0;Range</th><th>Unit</th></tr><tr><td>Glucose [Mass/volume] in Serum or Plasma</td><td>74.5</td><td>70 - 139</td><td></td><td>mg/dL</td></tr></table></div>"
        },
        "status": "final",
        "subject": {
          "reference": "urn:uuid:54bca2a4-36cc-4177-8ff8-8a5810f2c8ac",
          "display": "Hortense Gallet"
        },
        "effectiveDateTime": "2025-04-15T20:16:45Z",
        "specimen": {
          "reference": "urn:uuid:e68069f2-2957-4224-b0b2-4244bed496be"
        }
      }
    },
    {
      "fullUrl": "urn:uuid:81c1fc4b-fb1e-47bf-b676-dac3f19bb015",
      "resource": {
        "resourceType": "Observation",
        "id": "81c1fc4b-fb1e-47bf-b676-dac3f19bb015",
        "meta": {
          "profile": [
            "http://hl7.eu/fhir/laboratory/StructureDefinition/Observation-resultslab-eu-lab"
          ]
        },
        "performer": [
          {
            "display": "The Central European Lab"
          }
        ],
        "category": [
          {
            "coding": [
              {
                "system": "http://terminology.hl7.org/CodeSystem/observation-category",
                "code": "laboratory"
              }
            ]
          }
        ],
        "code": {
          "coding": [
            {
              "code": "3094-0",
              "system": "http://loinc.org",
              "display": "Urea nitrogen [Mass/volume] in Serum or Plasma"
            }
          ],
          "text": "Urea nitrogen [Mass/volume] in Serum or Plasma"
        },
        "valueQuantity": {
          "system": "http://unitsofmeasure.org",
          "value": 7.7,
          "unit": "mg/dL",
          "code": "mg/dL"
        },
        "referenceRange": [
          {
            "low": {
              "value": 7,
              "code": "mg/dL",
              "system": "http://unitsofmeasure.org"
            }
          },
          {
            "high": {
              "value": 20,
              "code": "mg/dL",
              "system": "http://unitsofmeasure.org"
            }
          }
        ],
        "text": {
          "status": "generated",
          "div": "<div xmlns=\"http://www.w3.org/1999/xhtml\"><table class=\"hl7__eu__lab__report\"><tr><th>Test</th><th>15-Apr-2025</th><th>Reference&#xA0;Range</th><th>Unit</th></tr><tr><td>Urea nitrogen [Mass/volume] in Serum or Plasma</td><td>7.7</td><td>7 - 20</td><td></td><td>mg/dL</td></tr></table></div>"
        },
        "status": "final",
        "subject": {
          "reference": "urn:uuid:54bca2a4-36cc-4177-8ff8-8a5810f2c8ac",
          "display": "Hortense Gallet"
        },
        "effectiveDateTime": "2025-04-15T20:16:45Z",
        "specimen": {
          "reference": "urn:uuid:e68069f2-2957-4224-b0b2-4244bed496be"
        }
      }
    },
    {
      "fullUrl": "urn:uuid:40c5aed5-16b5-41a7-9cb7-681b123001ea",
      "resource": {
        "resourceType": "Observation",
        "id": "40c5aed5-16b5-41a7-9cb7-681b123001ea",
        "meta": {
          "profile": [
            "http://hl7.eu/fhir/laboratory/StructureDefinition/Observation-resultslab-eu-lab"
          ]
        },
        "performer": [
          {
            "display": "The Central European Lab"
          }
        ],
        "category": [
          {
            "coding": [
              {
                "system": "http://terminology.hl7.org/CodeSystem/observation-category",
                "code": "laboratory"
              }
            ]
          }
        ],
        "code": {
          "coding": [
            {
              "code": "2160-0",
              "system": "http://loinc.org",
              "display": "Creatinine [Mass/volume] in Serum or Plasma"
            }
          ],
          "text": "Creatinine [Mass/volume] in Serum or Plasma"
        },
        "valueQuantity": {
          "system": "http://unitsofmeasure.org",
          "value": 2,
          "unit": "mg/dL",
          "code": "mg/dL"
        },
        "referenceRange": [
          {
            "low": {
              "value": 0.6,
              "code": "mg/dL",
              "system": "http://unitsofmeasure.org"
            }
          },
          {
            "high": {
              "value": 1.1,
              "code": "mg/dL",
              "system": "http://unitsofmeasure.org"
            }
          }
        ],
        "interpretation": [
          {
            "coding": [
              {
                "code": "H",
                "system": "http://terminology.hl7.org/CodeSystem/v3-ObservationInterpretation",
                "display": "High"
              }
            ]
          }
        ],
        "text": {
          "status": "generated",
          "div": "<div xmlns=\"http://www.w3.org/1999/xhtml\"><table class=\"hl7__eu__lab__report\"><tr><th>Test</th><th>15-Apr-2025</th><th>Reference&#xA0;Range</th><th>Unit</th></tr><tr><td>Creatinine [Mass/volume] in Serum or Plasma</td><td>2.0</td><td>0.6 - 1.1</td><td>H</td><td>mg/dL</td></tr></table></div>"
        },
        "status": "final",
        "subject": {
          "reference": "urn:uuid:54bca2a4-36cc-4177-8ff8-8a5810f2c8ac",
          "display": "Hortense Gallet"
        },
        "effectiveDateTime": "2025-04-15T20:16:45Z",
        "specimen": {
          "reference": "urn:uuid:e68069f2-2957-4224-b0b2-4244bed496be"
        }
      }
    },
    {
      "fullUrl": "urn:uuid:055b908b-ce5f-486a-a028-b26d4b5af34a",
      "resource": {
        "resourceType": "Observation",
        "id": "055b908b-ce5f-486a-a028-b26d4b5af34a",
        "meta": {
          "profile": [
            "http://hl7.eu/fhir/laboratory/StructureDefinition/Observation-resultslab-eu-lab"
          ]
        },
        "performer": [
          {
            "display": "The Central European Lab"
          }
        ],
        "category": [
          {
            "coding": [
              {
                "system": "http://terminology.hl7.org/CodeSystem/observation-category",
                "code": "laboratory"
              }
            ]
          }
        ],
        "code": {
          "coding": [
            {
              "code": "17861-6",
              "system": "http://loinc.org",
              "display": "Calcium [Mass/volume] in Serum or Plasma"
            }
          ],
          "text": "Calcium [Mass/volume] in Serum or Plasma"
        },
        "valueQuantity": {
          "system": "http://unitsofmeasure.org",
          "value": 9.5,
          "unit": "mg/dL",
          "code": "mg/dL"
        },
        "referenceRange": [
          {
            "low": {
              "value": 8.5,
              "code": "mg/dL",
              "system": "http://unitsofmeasure.org"
            }
          },
          {
            "high": {
              "value": 10.4,
              "code": "mg/dL",
              "system": "http://unitsofmeasure.org"
            }
          }
        ],
        "text": {
          "status": "generated",
          "div": "<div xmlns=\"http://www.w3.org/1999/xhtml\"><table class=\"hl7__eu__lab__report\"><tr><th>Test</th><th>15-Apr-2025</th><th>Reference&#xA0;Range</th><th>Unit</th></tr><tr><td>Calcium [Mass/volume] in Serum or Plasma</td><td>9.5</td><td>8.5 - 10.4</td><td></td><td>mg/dL</td></tr></table></div>"
        },
        "status": "final",
        "subject": {
          "reference": "urn:uuid:54bca2a4-36cc-4177-8ff8-8a5810f2c8ac",
          "display": "Hortense Gallet"
        },
        "effectiveDateTime": "2025-04-15T20:16:45Z",
        "specimen": {
          "reference": "urn:uuid:e68069f2-2957-4224-b0b2-4244bed496be"
        }
      }
    },
    {
      "fullUrl": "urn:uuid:9aba280c-11dc-4ed3-8c06-4fb92ba8bc3d",
      "resource": {
        "resourceType": "Observation",
        "id": "9aba280c-11dc-4ed3-8c06-4fb92ba8bc3d",
        "meta": {
          "profile": [
            "http://hl7.eu/fhir/laboratory/StructureDefinition/Observation-resultslab-eu-lab"
          ]
        },
        "performer": [
          {
            "display": "The Central European Lab"
          }
        ],
        "category": [
          {
            "coding": [
              {
                "system": "http://terminology.hl7.org/CodeSystem/observation-category",
                "code": "laboratory"
              }
            ]
          }
        ],
        "code": {
          "coding": [
            {
              "code": "2951-2",
              "system": "http://loinc.org",
              "display": "Sodium [Moles/volume] in Serum or Plasma"
            }
          ],
          "text": "Sodium [Moles/volume] in Serum or Plasma"
        },
        "valueQuantity": {
          "system": "http://unitsofmeasure.org",
          "value": 138.4,
          "unit": "mmol/L",
          "code": "mmol/L"
        },
        "referenceRange": [
          {
            "low": {
              "value": 135,
              "code": "mmol/L",
              "system": "http://unitsofmeasure.org"
            }
          },
          {
            "high": {
              "value": 145,
              "code": "mmol/L",
              "system": "http://unitsofmeasure.org"
            }
          }
        ],
        "text": {
          "status": "generated",
          "div": "<div xmlns=\"http://www.w3.org/1999/xhtml\"><table class=\"hl7__eu__lab__report\"><tr><th>Test</th><th>15-Apr-2025</th><th>Reference&#xA0;Range</th><th>Unit</th></tr><tr><td>Sodium [Moles/volume] in Serum or Plasma</td><td>138.4</td><td>135 - 145</td><td></td><td>mmol/L</td></tr></table></div>"
        },
        "status": "final",
        "subject": {
          "reference": "urn:uuid:54bca2a4-36cc-4177-8ff8-8a5810f2c8ac",
          "display": "Hortense Gallet"
        },
        "effectiveDateTime": "2025-04-15T20:16:45Z",
        "specimen": {
          "reference": "urn:uuid:e68069f2-2957-4224-b0b2-4244bed496be"
        }
      }
    },
    {
      "fullUrl": "urn:uuid:7854e851-0616-4012-9458-c459c37208e5",
      "resource": {
        "resourceType": "Observation",
        "id": "7854e851-0616-4012-9458-c459c37208e5",
        "meta": {
          "profile": [
            "http://hl7.eu/fhir/laboratory/StructureDefinition/Observation-resultslab-eu-lab"
          ]
        },
        "performer": [
          {
            "display": "The Central European Lab"
          }
        ],
        "category": [
          {
            "coding": [
              {
                "system": "http://terminology.hl7.org/CodeSystem/observation-category",
                "code": "laboratory"
              }
            ]
          }
        ],
        "code": {
          "coding": [
            {
              "code": "2823-3",
              "system": "http://loinc.org",
              "display": "Potassium [Moles/volume] in Serum or Plasma"
            }
          ],
          "text": "Potassium [Moles/volume] in Serum or Plasma"
        },
        "valueQuantity": {
          "system": "http://unitsofmeasure.org",
          "value": 4.3,
          "unit": "mmol/L",
          "code": "mmol/L"
        },
        "referenceRange": [
          {
            "low": {
              "value": 3.5,
              "code": "mmol/L",
              "system": "http://unitsofmeasure.org"
            }
          },
          {
            "high": {
              "value": 5.1,
              "code": "mmol/L",
              "system": "http://unitsofmeasure.org"
            }
          }
        ],
        "text": {
          "status": "generated",
          "div": "<div xmlns=\"http://www.w3.org/1999/xhtml\"><table class=\"hl7__eu__lab__report\"><tr><th>Test</th><th>15-Apr-2025</th><th>Reference&#xA0;Range</th><th>Unit</th></tr><tr><td>Potassium [Moles/volume] in Serum or Plasma</td><td>4.3</td><td>3.5 - 5.1</td><td></td><td>mmol/L</td></tr></table></div>"
        },
        "status": "final",
        "subject": {
          "reference": "urn:uuid:54bca2a4-36cc-4177-8ff8-8a5810f2c8ac",
          "display": "Hortense Gallet"
        },
        "effectiveDateTime": "2025-04-15T20:16:45Z",
        "specimen": {
          "reference": "urn:uuid:e68069f2-2957-4224-b0b2-4244bed496be"
        }
      }
    },
    {
      "fullUrl": "urn:uuid:9baf222f-9c72-47ac-8b80-cc45ba4461cd",
      "resource": {
        "resourceType": "Observation",
        "id": "9baf222f-9c72-47ac-8b80-cc45ba4461cd",
        "meta": {
          "profile": [
            "http://hl7.eu/fhir/laboratory/StructureDefinition/Observation-resultslab-eu-lab"
          ]
        },
        "performer": [
          {
            "display": "The Central European Lab"
          }
        ],
        "category": [
          {
            "coding": [
              {
                "system": "http://terminology.hl7.org/CodeSystem/observation-category",
                "code": "laboratory"
              }
            ]
          }
        ],
        "code": {
          "coding": [
            {
              "code": "2075-0",
              "system": "http://loinc.org",
              "display": "Chloride [Moles/volume] in Serum or Plasma"
            }
          ],
          "text": "Chloride [Moles/volume] in Serum or Plasma"
        },
        "valueQuantity": {
          "system": "http://unitsofmeasure.org",
          "value": 101.8,
          "unit": "mmol/L",
          "code": "mmol/L"
        },
        "referenceRange": [
          {
            "low": {
              "value": 98,
              "code": "mmol/L",
              "system": "http://unitsofmeasure.org"
            }
          },
          {
            "high": {
              "value": 110,
              "code": "mmol/L",
              "system": "http://unitsofmeasure.org"
            }
          }
        ],
        "text": {
          "status": "generated",
          "div": "<div xmlns=\"http://www.w3.org/1999/xhtml\"><table class=\"hl7__eu__lab__report\"><tr><th>Test</th><th>15-Apr-2025</th><th>Reference&#xA0;Range</th><th>Unit</th></tr><tr><td>Chloride [Moles/volume] in Serum or Plasma</td><td>101.8</td><td>98 - 110</td><td></td><td>mmol/L</td></tr></table></div>"
        },
        "status": "final",
        "subject": {
          "reference": "urn:uuid:54bca2a4-36cc-4177-8ff8-8a5810f2c8ac",
          "display": "Hortense Gallet"
        },
        "effectiveDateTime": "2025-04-15T20:16:45Z",
        "specimen": {
          "reference": "urn:uuid:e68069f2-2957-4224-b0b2-4244bed496be"
        }
      }
    },
    {
      "fullUrl": "urn:uuid:57e95be2-97af-4e7c-b4ac-66766e959488",
      "resource": {
        "resourceType": "Observation",
        "id": "57e95be2-97af-4e7c-b4ac-66766e959488",
        "meta": {
          "profile": [
            "http://hl7.eu/fhir/laboratory/StructureDefinition/Observation-resultslab-eu-lab"
          ]
        },
        "performer": [
          {
            "display": "The Central European Lab"
          }
        ],
        "category": [
          {
            "coding": [
              {
                "system": "http://terminology.hl7.org/CodeSystem/observation-category",
                "code": "laboratory"
              }
            ]
          }
        ],
        "code": {
          "coding": [
            {
              "code": "2028-9",
              "system": "http://loinc.org",
              "display": "Carbon dioxide, total [Moles/volume] in Serum or Plasma"
            }
          ],
          "text": "Carbon dioxide, total [Moles/volume] in Serum or Plasma"
        },
        "valueQuantity": {
          "system": "http://unitsofmeasure.org",
          "value": 22.7,
          "unit": "mmol/L",
          "code": "mmol/L"
        },
        "referenceRange": [
          {
            "low": {
              "value": 22,
              "code": "mmol/L",
              "system": "http://unitsofmeasure.org"
            }
          },
          {
            "high": {
              "value": 32,
              "code": "mmol/L",
              "system": "http://unitsofmeasure.org"
            }
          }
        ],
        "text": {
          "status": "generated",
          "div": "<div xmlns=\"http://www.w3.org/1999/xhtml\"><table class=\"hl7__eu__lab__report\"><tr><th>Test</th><th>15-Apr-2025</th><th>Reference&#xA0;Range</th><th>Unit</th></tr><tr><td>Carbon dioxide, total [Moles/volume] in Serum or Plasma</td><td>22.7</td><td>22 - 32</td><td></td><td>mmol/L</td></tr></table></div>"
        },
        "status": "final",
        "subject": {
          "reference": "urn:uuid:54bca2a4-36cc-4177-8ff8-8a5810f2c8ac",
          "display": "Hortense Gallet"
        },
        "effectiveDateTime": "2025-04-15T20:16:45Z",
        "specimen": {
          "reference": "urn:uuid:e68069f2-2957-4224-b0b2-4244bed496be"
        }
      }
    },
    {
      "fullUrl": "urn:uuid:c2f6cbc0-ae3b-4118-bdd5-0dc51a79464f",
      "resource": {
        "resourceType": "Observation",
        "id": "c2f6cbc0-ae3b-4118-bdd5-0dc51a79464f",
        "meta": {
          "profile": [
            "http://hl7.eu/fhir/laboratory/StructureDefinition/Observation-resultslab-eu-lab"
          ]
        },
        "performer": [
          {
            "display": "The Central European Lab"
          }
        ],
        "category": [
          {
            "coding": [
              {
                "system": "http://terminology.hl7.org/CodeSystem/observation-category",
                "code": "laboratory"
              }
            ]
          }
        ],
        "code": {
          "coding": [
            {
              "code": "5767-9",
              "system": "http://loinc.org",
              "display": "Appearance of Urine"
            }
          ],
          "text": "Appearance of Urine"
        },
        "text": {
          "status": "generated",
          "div": "<div xmlns=\"http://www.w3.org/1999/xhtml\"><table class=\"hl7__eu__lab__report\"><tr><th>Test</th><th>15-Apr-2025</th><th>Reference&#xA0;Range</th><th>Unit</th></tr><tr><td>Appearance of Urine</td></tr></table></div>"
        },
        "status": "final",
        "subject": {
          "reference": "urn:uuid:54bca2a4-36cc-4177-8ff8-8a5810f2c8ac",
          "display": "Hortense Gallet"
        },
        "effectiveDateTime": "2025-04-15T20:16:45Z",
        "specimen": {
          "reference": "urn:uuid:321d7086-27e1-4fdf-8f6a-a1ccee493314"
        }
      }
    },
    {
      "fullUrl": "urn:uuid:489ffecf-cfd5-4770-ac97-be6375ec737e",
      "resource": {
        "resourceType": "Observation",
        "id": "489ffecf-cfd5-4770-ac97-be6375ec737e",
        "meta": {
          "profile": [
            "http://hl7.eu/fhir/laboratory/StructureDefinition/Observation-resultslab-eu-lab"
          ]
        },
        "performer": [
          {
            "display": "The Central European Lab"
          }
        ],
        "category": [
          {
            "coding": [
              {
                "system": "http://terminology.hl7.org/CodeSystem/observation-category",
                "code": "laboratory"
              }
            ]
          }
        ],
        "code": {
          "coding": [
            {
              "code": "34533-0",
              "system": "http://loinc.org",
              "display": "Odor of Urine"
            }
          ],
          "text": "Odor of Urine"
        },
        "text": {
          "status": "generated",
          "div": "<div xmlns=\"http://www.w3.org/1999/xhtml\"><table class=\"hl7__eu__lab__report\"><tr><th>Test</th><th>15-Apr-2025</th><th>Reference&#xA0;Range</th><th>Unit</th></tr><tr><td>Odor of Urine</td></tr></table></div>"
        },
        "status": "final",
        "subject": {
          "reference": "urn:uuid:54bca2a4-36cc-4177-8ff8-8a5810f2c8ac",
          "display": "Hortense Gallet"
        },
        "effectiveDateTime": "2025-04-15T20:16:45Z",
        "specimen": {
          "reference": "urn:uuid:321d7086-27e1-4fdf-8f6a-a1ccee493314"
        }
      }
    },
    {
      "fullUrl": "urn:uuid:8ccd77b2-c281-4f16-9c83-8598b79fb042",
      "resource": {
        "resourceType": "Observation",
        "id": "8ccd77b2-c281-4f16-9c83-8598b79fb042",
        "meta": {
          "profile": [
            "http://hl7.eu/fhir/laboratory/StructureDefinition/Observation-resultslab-eu-lab"
          ]
        },
        "performer": [
          {
            "display": "The Central European Lab"
          }
        ],
        "category": [
          {
            "coding": [
              {
                "system": "http://terminology.hl7.org/CodeSystem/observation-category",
                "code": "laboratory"
              }
            ]
          }
        ],
        "code": {
          "coding": [
            {
              "code": "32167-9",
              "system": "http://loinc.org",
              "display": "Clarity of Urine"
            }
          ],
          "text": "Clarity of Urine"
        },
        "text": {
          "status": "generated",
          "div": "<div xmlns=\"http://www.w3.org/1999/xhtml\"><table class=\"hl7__eu__lab__report\"><tr><th>Test</th><th>15-Apr-2025</th><th>Reference&#xA0;Range</th><th>Unit</th></tr><tr><td>Clarity of Urine</td></tr></table></div>"
        },
        "status": "final",
        "subject": {
          "reference": "urn:uuid:54bca2a4-36cc-4177-8ff8-8a5810f2c8ac",
          "display": "Hortense Gallet"
        },
        "effectiveDateTime": "2025-04-15T20:16:45Z",
        "specimen": {
          "reference": "urn:uuid:321d7086-27e1-4fdf-8f6a-a1ccee493314"
        }
      }
    },
    {
      "fullUrl": "urn:uuid:6f9d0e27-a996-4f6f-b83b-6a08e71f68eb",
      "resource": {
        "resourceType": "Observation",
        "id": "6f9d0e27-a996-4f6f-b83b-6a08e71f68eb",
        "meta": {
          "profile": [
            "http://hl7.eu/fhir/laboratory/StructureDefinition/Observation-resultslab-eu-lab"
          ]
        },
        "performer": [
          {
            "display": "The Central European Lab"
          }
        ],
        "category": [
          {
            "coding": [
              {
                "system": "http://terminology.hl7.org/CodeSystem/observation-category",
                "code": "laboratory"
              }
            ]
          }
        ],
        "code": {
          "coding": [
            {
              "code": "5778-6",
              "system": "http://loinc.org",
              "display": "Color of Urine"
            }
          ],
          "text": "Color of Urine"
        },
        "text": {
          "status": "generated",
          "div": "<div xmlns=\"http://www.w3.org/1999/xhtml\"><table class=\"hl7__eu__lab__report\"><tr><th>Test</th><th>15-Apr-2025</th><th>Reference&#xA0;Range</th><th>Unit</th></tr><tr><td>Color of Urine</td></tr></table></div>"
        },
        "status": "final",
        "subject": {
          "reference": "urn:uuid:54bca2a4-36cc-4177-8ff8-8a5810f2c8ac",
          "display": "Hortense Gallet"
        },
        "effectiveDateTime": "2025-04-15T20:16:45Z",
        "specimen": {
          "reference": "urn:uuid:321d7086-27e1-4fdf-8f6a-a1ccee493314"
        }
      }
    },
    {
      "fullUrl": "urn:uuid:d60a2e37-620d-44ba-bbc4-02a690d1da44",
      "resource": {
        "resourceType": "Observation",
        "id": "d60a2e37-620d-44ba-bbc4-02a690d1da44",
        "meta": {
          "profile": [
            "http://hl7.eu/fhir/laboratory/StructureDefinition/Observation-resultslab-eu-lab"
          ]
        },
        "performer": [
          {
            "display": "The Central European Lab"
          }
        ],
        "category": [
          {
            "coding": [
              {
                "system": "http://terminology.hl7.org/CodeSystem/observation-category",
                "code": "laboratory"
              }
            ]
          }
        ],
        "code": {
          "coding": [
            {
              "code": "5792-7",
              "system": "http://loinc.org",
              "display": "Glucose [Mass/volume] in Urine by Test strip"
            }
          ],
          "text": "Glucose [Mass/volume] in Urine by Test strip"
        },
        "valueQuantity": {
          "system": "http://unitsofmeasure.org",
          "value": 2.4,
          "unit": "mg/dL",
          "code": "mg/dL"
        },
        "referenceRange": [
          {
            "low": {
              "value": 0,
              "code": "mg/dL",
              "system": "http://unitsofmeasure.org"
            }
          },
          {
            "high": {
              "value": 0,
              "code": "mg/dL",
              "system": "http://unitsofmeasure.org"
            }
          }
        ],
        "interpretation": [
          {
            "coding": [
              {
                "code": "H",
                "system": "http://terminology.hl7.org/CodeSystem/v3-ObservationInterpretation",
                "display": "High"
              }
            ]
          }
        ],
        "text": {
          "status": "generated",
          "div": "<div xmlns=\"http://www.w3.org/1999/xhtml\"><table class=\"hl7__eu__lab__report\"><tr><th>Test</th><th>15-Apr-2025</th><th>Reference&#xA0;Range</th><th>Unit</th></tr><tr><td>Glucose [Mass/volume] in Urine by Test strip</td><td>2.4</td><td>0 - 0</td><td>H</td><td>mg/dL</td></tr></table></div>"
        },
        "status": "final",
        "subject": {
          "reference": "urn:uuid:54bca2a4-36cc-4177-8ff8-8a5810f2c8ac",
          "display": "Hortense Gallet"
        },
        "effectiveDateTime": "2025-04-15T20:16:45Z",
        "specimen": {
          "reference": "urn:uuid:321d7086-27e1-4fdf-8f6a-a1ccee493314"
        }
      }
    },
    {
      "fullUrl": "urn:uuid:075481c6-58fb-43e5-8710-c8b129134800",
      "resource": {
        "resourceType": "Observation",
        "id": "075481c6-58fb-43e5-8710-c8b129134800",
        "meta": {
          "profile": [
            "http://hl7.eu/fhir/laboratory/StructureDefinition/Observation-resultslab-eu-lab"
          ]
        },
        "performer": [
          {
            "display": "The Central European Lab"
          }
        ],
        "category": [
          {
            "coding": [
              {
                "system": "http://terminology.hl7.org/CodeSystem/observation-category",
                "code": "laboratory"
              }
            ]
          }
        ],
        "code": {
          "coding": [
            {
              "code": "25428-4",
              "system": "http://loinc.org",
              "display": "Glucose [Presence] in Urine by Test strip"
            }
          ],
          "text": "Glucose [Presence] in Urine by Test strip"
        },
        "text": {
          "status": "generated",
          "div": "<div xmlns=\"http://www.w3.org/1999/xhtml\"><table class=\"hl7__eu__lab__report\"><tr><th>Test</th><th>15-Apr-2025</th><th>Reference&#xA0;Range</th><th>Unit</th></tr><tr><td>Glucose [Presence] in Urine by Test strip</td></tr></table></div>"
        },
        "status": "final",
        "subject": {
          "reference": "urn:uuid:54bca2a4-36cc-4177-8ff8-8a5810f2c8ac",
          "display": "Hortense Gallet"
        },
        "effectiveDateTime": "2025-04-15T20:16:45Z",
        "specimen": {
          "reference": "urn:uuid:321d7086-27e1-4fdf-8f6a-a1ccee493314"
        }
      }
    },
    {
      "fullUrl": "urn:uuid:5b5395d0-c4ba-4348-80ba-873512211eda",
      "resource": {
        "resourceType": "Observation",
        "id": "5b5395d0-c4ba-4348-80ba-873512211eda",
        "meta": {
          "profile": [
            "http://hl7.eu/fhir/laboratory/StructureDefinition/Observation-resultslab-eu-lab"
          ]
        },
        "performer": [
          {
            "display": "The Central European Lab"
          }
        ],
        "category": [
          {
            "coding": [
              {
                "system": "http://terminology.hl7.org/CodeSystem/observation-category",
                "code": "laboratory"
              }
            ]
          }
        ],
        "code": {
          "coding": [
            {
              "code": "20505-4",
              "system": "http://loinc.org",
              "display": "Bilirubin.total [Mass/volume] in Urine by Test strip"
            }
          ],
          "text": "Bilirubin.total [Mass/volume] in Urine by Test strip"
        },
        "valueQuantity": {
          "system": "http://unitsofmeasure.org",
          "value": 1.4,
          "unit": "mg/dL",
          "code": "mg/dL"
        },
        "referenceRange": [
          {
            "low": {
              "value": 0,
              "code": "mg/dL",
              "system": "http://unitsofmeasure.org"
            }
          },
          {
            "high": {
              "value": 1.6,
              "code": "mg/dL",
              "system": "http://unitsofmeasure.org"
            }
          }
        ],
        "text": {
          "status": "generated",
          "div": "<div xmlns=\"http://www.w3.org/1999/xhtml\"><table class=\"hl7__eu__lab__report\"><tr><th>Test</th><th>15-Apr-2025</th><th>Reference&#xA0;Range</th><th>Unit</th></tr><tr><td>Bilirubin.total [Mass/volume] in Urine by Test strip</td><td>1.4</td><td>0 - 1.6</td><td></td><td>mg/dL</td></tr></table></div>"
        },
        "status": "final",
        "subject": {
          "reference": "urn:uuid:54bca2a4-36cc-4177-8ff8-8a5810f2c8ac",
          "display": "Hortense Gallet"
        },
        "effectiveDateTime": "2025-04-15T20:16:45Z",
        "specimen": {
          "reference": "urn:uuid:321d7086-27e1-4fdf-8f6a-a1ccee493314"
        }
      }
    },
    {
      "fullUrl": "urn:uuid:e30b71d0-8b2b-44c2-97f6-0aab8c5a193b",
      "resource": {
        "resourceType": "Observation",
        "id": "e30b71d0-8b2b-44c2-97f6-0aab8c5a193b",
        "meta": {
          "profile": [
            "http://hl7.eu/fhir/laboratory/StructureDefinition/Observation-resultslab-eu-lab"
          ]
        },
        "performer": [
          {
            "display": "The Central European Lab"
          }
        ],
        "category": [
          {
            "coding": [
              {
                "system": "http://terminology.hl7.org/CodeSystem/observation-category",
                "code": "laboratory"
              }
            ]
          }
        ],
        "code": {
          "coding": [
            {
              "code": "5770-3",
              "system": "http://loinc.org",
              "display": "Bilirubin.total [Presence] in Urine by Test strip"
            }
          ],
          "text": "Bilirubin.total [Presence] in Urine by Test strip"
        },
        "text": {
          "status": "generated",
          "div": "<div xmlns=\"http://www.w3.org/1999/xhtml\"><table class=\"hl7__eu__lab__report\"><tr><th>Test</th><th>15-Apr-2025</th><th>Reference&#xA0;Range</th><th>Unit</th></tr><tr><td>Bilirubin.total [Presence] in Urine by Test strip</td></tr></table></div>"
        },
        "status": "final",
        "subject": {
          "reference": "urn:uuid:54bca2a4-36cc-4177-8ff8-8a5810f2c8ac",
          "display": "Hortense Gallet"
        },
        "effectiveDateTime": "2025-04-15T20:16:45Z",
        "specimen": {
          "reference": "urn:uuid:321d7086-27e1-4fdf-8f6a-a1ccee493314"
        }
      }
    },
    {
      "fullUrl": "urn:uuid:1b666bb9-9b32-4c79-8444-04b4aaa079cc",
      "resource": {
        "resourceType": "Observation",
        "id": "1b666bb9-9b32-4c79-8444-04b4aaa079cc",
        "meta": {
          "profile": [
            "http://hl7.eu/fhir/laboratory/StructureDefinition/Observation-resultslab-eu-lab"
          ]
        },
        "performer": [
          {
            "display": "The Central European Lab"
          }
        ],
        "category": [
          {
            "coding": [
              {
                "system": "http://terminology.hl7.org/CodeSystem/observation-category",
                "code": "laboratory"
              }
            ]
          }
        ],
        "code": {
          "coding": [
            {
              "code": "5797-6",
              "system": "http://loinc.org",
              "display": "Ketones [Mass/volume] in Urine by Test strip"
            }
          ],
          "text": "Ketones [Mass/volume] in Urine by Test strip"
        },
        "valueQuantity": {
          "system": "http://unitsofmeasure.org",
          "value": 14.2,
          "unit": "mg/dL",
          "code": "mg/dL"
        },
        "referenceRange": [
          {
            "low": {
              "value": 0,
              "code": "mg/dL",
              "system": "http://unitsofmeasure.org"
            }
          },
          {
            "high": {
              "value": 0.5,
              "code": "mg/dL",
              "system": "http://unitsofmeasure.org"
            }
          }
        ],
        "interpretation": [
          {
            "coding": [
              {
                "code": "H",
                "system": "http://terminology.hl7.org/CodeSystem/v3-ObservationInterpretation",
                "display": "High"
              }
            ]
          }
        ],
        "text": {
          "status": "generated",
          "div": "<div xmlns=\"http://www.w3.org/1999/xhtml\"><table class=\"hl7__eu__lab__report\"><tr><th>Test</th><th>15-Apr-2025</th><th>Reference&#xA0;Range</th><th>Unit</th></tr><tr><td>Ketones [Mass/volume] in Urine by Test strip</td><td>14.2</td><td>0 - 0.5</td><td>H</td><td>mg/dL</td></tr></table></div>"
        },
        "status": "final",
        "subject": {
          "reference": "urn:uuid:54bca2a4-36cc-4177-8ff8-8a5810f2c8ac",
          "display": "Hortense Gallet"
        },
        "effectiveDateTime": "2025-04-15T20:16:45Z",
        "specimen": {
          "reference": "urn:uuid:321d7086-27e1-4fdf-8f6a-a1ccee493314"
        }
      }
    },
    {
      "fullUrl": "urn:uuid:8cccaee0-c48f-4fb4-b7f5-e63cfcc4693b",
      "resource": {
        "resourceType": "Observation",
        "id": "8cccaee0-c48f-4fb4-b7f5-e63cfcc4693b",
        "meta": {
          "profile": [
            "http://hl7.eu/fhir/laboratory/StructureDefinition/Observation-resultslab-eu-lab"
          ]
        },
        "performer": [
          {
            "display": "The Central European Lab"
          }
        ],
        "category": [
          {
            "coding": [
              {
                "system": "http://terminology.hl7.org/CodeSystem/observation-category",
                "code": "laboratory"
              }
            ]
          }
        ],
        "code": {
          "coding": [
            {
              "code": "2514-8",
              "system": "http://loinc.org",
              "display": "Ketones [Presence] in Urine by Test strip"
            }
          ],
          "text": "Ketones [Presence] in Urine by Test strip"
        },
        "text": {
          "status": "generated",
          "div": "<div xmlns=\"http://www.w3.org/1999/xhtml\"><table class=\"hl7__eu__lab__report\"><tr><th>Test</th><th>15-Apr-2025</th><th>Reference&#xA0;Range</th><th>Unit</th></tr><tr><td>Ketones [Presence] in Urine by Test strip</td></tr></table></div>"
        },
        "status": "final",
        "subject": {
          "reference": "urn:uuid:54bca2a4-36cc-4177-8ff8-8a5810f2c8ac",
          "display": "Hortense Gallet"
        },
        "effectiveDateTime": "2025-04-15T20:16:45Z",
        "specimen": {
          "reference": "urn:uuid:321d7086-27e1-4fdf-8f6a-a1ccee493314"
        }
      }
    },
    {
      "fullUrl": "urn:uuid:325880a2-0d11-4c12-978d-543065f51be2",
      "resource": {
        "resourceType": "Observation",
        "id": "325880a2-0d11-4c12-978d-543065f51be2",
        "meta": {
          "profile": [
            "http://hl7.eu/fhir/laboratory/StructureDefinition/Observation-resultslab-eu-lab"
          ]
        },
        "performer": [
          {
            "display": "The Central European Lab"
          }
        ],
        "category": [
          {
            "coding": [
              {
                "system": "http://terminology.hl7.org/CodeSystem/observation-category",
                "code": "laboratory"
              }
            ]
          }
        ],
        "code": {
          "coding": [
            {
              "code": "5811-5",
              "system": "http://loinc.org",
              "display": "Specific gravity of Urine by Test strip"
            }
          ],
          "text": "Specific gravity of Urine by Test strip"
        },
        "valueQuantity": {
          "system": "http://unitsofmeasure.org",
          "value": 1,
          "unit": "{nominal}",
          "code": "{nominal}"
        },
        "referenceRange": [
          {
            "low": {
              "value": 1.005,
              "code": "g/mL",
              "system": "http://unitsofmeasure.org"
            }
          },
          {
            "high": {
              "value": 1.03,
              "code": "g/mL",
              "system": "http://unitsofmeasure.org"
            }
          }
        ],
        "interpretation": [
          {
            "coding": [
              {
                "code": "L",
                "system": "http://terminology.hl7.org/CodeSystem/v3-ObservationInterpretation",
                "display": "Low"
              }
            ]
          }
        ],
        "text": {
          "status": "generated",
          "div": "<div xmlns=\"http://www.w3.org/1999/xhtml\"><table class=\"hl7__eu__lab__report\"><tr><th>Test</th><th>15-Apr-2025</th><th>Reference&#xA0;Range</th><th>Unit</th></tr><tr><td>Specific gravity of Urine by Test strip</td><td>1.0</td><td>1.005 - 1.03</td><td>L</td><td>{nominal}</td></tr></table></div>"
        },
        "status": "final",
        "subject": {
          "reference": "urn:uuid:54bca2a4-36cc-4177-8ff8-8a5810f2c8ac",
          "display": "Hortense Gallet"
        },
        "effectiveDateTime": "2025-04-15T20:16:45Z",
        "specimen": {
          "reference": "urn:uuid:321d7086-27e1-4fdf-8f6a-a1ccee493314"
        }
      }
    },
    {
      "fullUrl": "urn:uuid:d2d66ba3-4639-4749-a378-3b79c5308208",
      "resource": {
        "resourceType": "Observation",
        "id": "d2d66ba3-4639-4749-a378-3b79c5308208",
        "meta": {
          "profile": [
            "http://hl7.eu/fhir/laboratory/StructureDefinition/Observation-resultslab-eu-lab"
          ]
        },
        "performer": [
          {
            "display": "The Central European Lab"
          }
        ],
        "category": [
          {
            "coding": [
              {
                "system": "http://terminology.hl7.org/CodeSystem/observation-category",
                "code": "laboratory"
              }
            ]
          }
        ],
        "code": {
          "coding": [
            {
              "code": "5803-2",
              "system": "http://loinc.org",
              "display": "pH of Urine by Test strip"
            }
          ],
          "text": "pH of Urine by Test strip"
        },
        "valueQuantity": {
          "system": "http://unitsofmeasure.org",
          "value": 6.7,
          "unit": "pH",
          "code": "pH"
        },
        "referenceRange": [
          {
            "low": {
              "value": 4.5,
              "code": "pH",
              "system": "http://unitsofmeasure.org"
            }
          },
          {
            "high": {
              "value": 7.5,
              "code": "pH",
              "system": "http://unitsofmeasure.org"
            }
          }
        ],
        "text": {
          "status": "generated",
          "div": "<div xmlns=\"http://www.w3.org/1999/xhtml\"><table class=\"hl7__eu__lab__report\"><tr><th>Test</th><th>15-Apr-2025</th><th>Reference&#xA0;Range</th><th>Unit</th></tr><tr><td>pH of Urine by Test strip</td><td>6.7</td><td>4.5 - 7.5</td><td></td><td>pH</td></tr></table></div>"
        },
        "status": "final",
        "subject": {
          "reference": "urn:uuid:54bca2a4-36cc-4177-8ff8-8a5810f2c8ac",
          "display": "Hortense Gallet"
        },
        "effectiveDateTime": "2025-04-15T20:16:45Z",
        "specimen": {
          "reference": "urn:uuid:321d7086-27e1-4fdf-8f6a-a1ccee493314"
        }
      }
    },
    {
      "fullUrl": "urn:uuid:3c57a49d-45df-4531-882e-bde3739171cb",
      "resource": {
        "resourceType": "Observation",
        "id": "3c57a49d-45df-4531-882e-bde3739171cb",
        "meta": {
          "profile": [
            "http://hl7.eu/fhir/laboratory/StructureDefinition/Observation-resultslab-eu-lab"
          ]
        },
        "performer": [
          {
            "display": "The Central European Lab"
          }
        ],
        "category": [
          {
            "coding": [
              {
                "system": "http://terminology.hl7.org/CodeSystem/observation-category",
                "code": "laboratory"
              }
            ]
          }
        ],
        "code": {
          "coding": [
            {
              "code": "5804-0",
              "system": "http://loinc.org",
              "display": "Protein [Mass/volume] in Urine by Test strip"
            }
          ],
          "text": "Protein [Mass/volume] in Urine by Test strip"
        },
        "valueQuantity": {
          "system": "http://unitsofmeasure.org",
          "value": 169,
          "unit": "mg/dL",
          "code": "mg/dL"
        },
        "referenceRange": [
          {
            "low": {
              "value": 0,
              "code": "mg/dL",
              "system": "http://unitsofmeasure.org"
            }
          },
          {
            "high": {
              "value": 15,
              "code": "mg/dL",
              "system": "http://unitsofmeasure.org"
            }
          }
        ],
        "interpretation": [
          {
            "coding": [
              {
                "code": "H",
                "system": "http://terminology.hl7.org/CodeSystem/v3-ObservationInterpretation",
                "display": "High"
              }
            ]
          }
        ],
        "text": {
          "status": "generated",
          "div": "<div xmlns=\"http://www.w3.org/1999/xhtml\"><table class=\"hl7__eu__lab__report\"><tr><th>Test</th><th>15-Apr-2025</th><th>Reference&#xA0;Range</th><th>Unit</th></tr><tr><td>Protein [Mass/volume] in Urine by Test strip</td><td>169.0</td><td>0 - 15</td><td>H</td><td>mg/dL</td></tr></table></div>"
        },
        "status": "final",
        "subject": {
          "reference": "urn:uuid:54bca2a4-36cc-4177-8ff8-8a5810f2c8ac",
          "display": "Hortense Gallet"
        },
        "effectiveDateTime": "2025-04-15T20:16:45Z",
        "specimen": {
          "reference": "urn:uuid:321d7086-27e1-4fdf-8f6a-a1ccee493314"
        }
      }
    },
    {
      "fullUrl": "urn:uuid:905e28e3-6358-482b-9ada-9c511d4c2af1",
      "resource": {
        "resourceType": "Observation",
        "id": "905e28e3-6358-482b-9ada-9c511d4c2af1",
        "meta": {
          "profile": [
            "http://hl7.eu/fhir/laboratory/StructureDefinition/Observation-resultslab-eu-lab"
          ]
        },
        "performer": [
          {
            "display": "The Central European Lab"
          }
        ],
        "category": [
          {
            "coding": [
              {
                "system": "http://terminology.hl7.org/CodeSystem/observation-category",
                "code": "laboratory"
              }
            ]
          }
        ],
        "code": {
          "coding": [
            {
              "code": "20454-5",
              "system": "http://loinc.org",
              "display": "Protein [Presence] in Urine by Test strip"
            }
          ],
          "text": "Protein [Presence] in Urine by Test strip"
        },
        "text": {
          "status": "generated",
          "div": "<div xmlns=\"http://www.w3.org/1999/xhtml\"><table class=\"hl7__eu__lab__report\"><tr><th>Test</th><th>15-Apr-2025</th><th>Reference&#xA0;Range</th><th>Unit</th></tr><tr><td>Protein [Presence] in Urine by Test strip</td></tr></table></div>"
        },
        "status": "final",
        "subject": {
          "reference": "urn:uuid:54bca2a4-36cc-4177-8ff8-8a5810f2c8ac",
          "display": "Hortense Gallet"
        },
        "effectiveDateTime": "2025-04-15T20:16:45Z",
        "specimen": {
          "reference": "urn:uuid:321d7086-27e1-4fdf-8f6a-a1ccee493314"
        }
      }
    },
    {
      "fullUrl": "urn:uuid:804d46a7-da1d-4ff5-b907-c8e702e97684",
      "resource": {
        "resourceType": "Observation",
        "id": "804d46a7-da1d-4ff5-b907-c8e702e97684",
        "meta": {
          "profile": [
            "http://hl7.eu/fhir/laboratory/StructureDefinition/Observation-resultslab-eu-lab"
          ]
        },
        "performer": [
          {
            "display": "The Central European Lab"
          }
        ],
        "category": [
          {
            "coding": [
              {
                "system": "http://terminology.hl7.org/CodeSystem/observation-category",
                "code": "laboratory"
              }
            ]
          }
        ],
        "code": {
          "coding": [
            {
              "code": "5802-4",
              "system": "http://loinc.org",
              "display": "Nitrite [Presence] in Urine by Test strip"
            }
          ],
          "text": "Nitrite [Presence] in Urine by Test strip"
        },
        "text": {
          "status": "generated",
          "div": "<div xmlns=\"http://www.w3.org/1999/xhtml\"><table class=\"hl7__eu__lab__report\"><tr><th>Test</th><th>15-Apr-2025</th><th>Reference&#xA0;Range</th><th>Unit</th></tr><tr><td>Nitrite [Presence] in Urine by Test strip</td></tr></table></div>"
        },
        "status": "final",
        "subject": {
          "reference": "urn:uuid:54bca2a4-36cc-4177-8ff8-8a5810f2c8ac",
          "display": "Hortense Gallet"
        },
        "effectiveDateTime": "2025-04-15T20:16:45Z",
        "specimen": {
          "reference": "urn:uuid:321d7086-27e1-4fdf-8f6a-a1ccee493314"
        }
      }
    },
    {
      "fullUrl": "urn:uuid:dbe09fa1-ca62-49af-8eb9-d0b238f528d7",
      "resource": {
        "resourceType": "Observation",
        "id": "dbe09fa1-ca62-49af-8eb9-d0b238f528d7",
        "meta": {
          "profile": [
            "http://hl7.eu/fhir/laboratory/StructureDefinition/Observation-resultslab-eu-lab"
          ]
        },
        "performer": [
          {
            "display": "The Central European Lab"
          }
        ],
        "category": [
          {
            "coding": [
              {
                "system": "http://terminology.hl7.org/CodeSystem/observation-category",
                "code": "laboratory"
              }
            ]
          }
        ],
        "code": {
          "coding": [
            {
              "code": "5794-3",
              "system": "http://loinc.org",
              "display": "Hemoglobin [Presence] in Urine by Test strip"
            }
          ],
          "text": "Hemoglobin [Presence] in Urine by Test strip"
        },
        "text": {
          "status": "generated",
          "div": "<div xmlns=\"http://www.w3.org/1999/xhtml\"><table class=\"hl7__eu__lab__report\"><tr><th>Test</th><th>15-Apr-2025</th><th>Reference&#xA0;Range</th><th>Unit</th></tr><tr><td>Hemoglobin [Presence] in Urine by Test strip</td></tr></table></div>"
        },
        "status": "final",
        "subject": {
          "reference": "urn:uuid:54bca2a4-36cc-4177-8ff8-8a5810f2c8ac",
          "display": "Hortense Gallet"
        },
        "effectiveDateTime": "2025-04-15T20:16:45Z",
        "specimen": {
          "reference": "urn:uuid:321d7086-27e1-4fdf-8f6a-a1ccee493314"
        }
      }
    },
    {
      "fullUrl": "urn:uuid:596c18c3-d254-46dc-a5c8-3f6213d77d73",
      "resource": {
        "resourceType": "Observation",
        "id": "596c18c3-d254-46dc-a5c8-3f6213d77d73",
        "meta": {
          "profile": [
            "http://hl7.eu/fhir/laboratory/StructureDefinition/Observation-resultslab-eu-lab"
          ]
        },
        "performer": [
          {
            "display": "The Central European Lab"
          }
        ],
        "category": [
          {
            "coding": [
              {
                "system": "http://terminology.hl7.org/CodeSystem/observation-category",
                "code": "laboratory"
              }
            ]
          }
        ],
        "code": {
          "coding": [
            {
              "code": "5799-2",
              "system": "http://loinc.org",
              "display": "Leukocyte esterase [Presence] in Urine by Test strip"
            }
          ],
          "text": "Leukocyte esterase [Presence] in Urine by Test strip"
        },
        "text": {
          "status": "generated",
          "div": "<div xmlns=\"http://www.w3.org/1999/xhtml\"><table class=\"hl7__eu__lab__report\"><tr><th>Test</th><th>15-Apr-2025</th><th>Reference&#xA0;Range</th><th>Unit</th></tr><tr><td>Leukocyte esterase [Presence] in Urine by Test strip</td></tr></table></div>"
        },
        "status": "final",
        "subject": {
          "reference": "urn:uuid:54bca2a4-36cc-4177-8ff8-8a5810f2c8ac",
          "display": "Hortense Gallet"
        },
        "effectiveDateTime": "2025-04-15T20:16:45Z",
        "specimen": {
          "reference": "urn:uuid:321d7086-27e1-4fdf-8f6a-a1ccee493314"
        }
      }
    },
    {
      "fullUrl": "urn:uuid:a497f10f-cfa9-4ba4-b1ee-9cccd25cf088",
      "resource": {
        "resourceType": "Device",
        "id": "a497f10f-cfa9-4ba4-b1ee-9cccd25cf088",
        "deviceName": [
          {
            "name": "SYNDERAI Synthetic Generator",
            "type": "manufacturer-name"
          }
        ],
        "version": [
          {
            "value": "5.0"
          }
        ],
        "text": {
          "status": "generated",
          "div": "<div xmlns=\"http://www.w3.org/1999/xhtml\">SYNDERAI Synthetic Generator v5.0</div>"
        },
        "status": "active\"",
        "distinctIdentifier": "synderai-generator-50",
        "manufacturer": "SYNDERAI Project"
      }
    },
    {
      "fullUrl": "urn:uuid:03e25f37-536f-4f17-a16a-cdcd1d1e533d",
      "resource": {
        "resourceType": "Provenance",
        "id": "03e25f37-536f-4f17-a16a-cdcd1d1e533d",
        "target": [
          {
            "reference": "Patient/54bca2a4-36cc-4177-8ff8-8a5810f2c8ac"
          },
          {
            "reference": "Bundle/c1327e19-aa10-43a4-8502-987af128c41e"
          },
          {
            "reference": "Composition/a4a1fc25-2250-454d-bf48-a65136225a7e"
          },
          {
            "reference": "PractitionerRole/f14409f0-e2db-49f4-bbdf-3af80a450c7d"
          },
          {
            "reference": "Practitioner/4aecf30f-396a-40f1-ad70-0a5d8ff2654e"
          },
          {
            "reference": "PractitionerRole/1aad2c4b-1fb6-4535-87ec-837848018307"
          },
          {
            "reference": "Organization/7d72e4c4-eb86-4369-a071-531847885bbf"
          }
        ],
        "activity": {
          "text": "Synthetic Example Data Generation"
        },
        "policy": [
          "https://synderai.net/synderai-synthetic-data-policy"
        ],
        "agent": [
          {
            "type": {
              "text": "author"
            },
            "who": {
              "reference": "Device/a497f10f-cfa9-4ba4-b1ee-9cccd25cf088"
            }
          }
        ],
        "reason": [
          {
            "text": "Interoperability Testing and Training (non-clinical use)"
          }
        ],
        "text": {
          "status": "generated",
          "div": "<div xmlns=\"http://www.w3.org/1999/xhtml\">Provenance for SYNDERAI Synthetic Example Data Resource</div>"
        },
        "recorded": "2025-04-15T22:16:45Z"
      }
    },
    {
      "fullUrl": "urn:uuid:f14409f0-e2db-49f4-bbdf-3af80a450c7d",
      "resource": {
        "resourceType": "PractitionerRole",
        "id": "f14409f0-e2db-49f4-bbdf-3af80a450c7d",
        "meta": {
          "profile": [
            "http://hl7.eu/fhir/base/StructureDefinition/practitionerRole-eu"
          ]
        },
        "text": {
          "status": "generated",
          "div": "<div xmlns=\"http://www.w3.org/1999/xhtml\">Laboratory Role Id: f14409f0-e2db-49f4-bbdf-3af80a450c7d</div>"
        },
        "practitioner": {
          "reference": "urn:uuid:4aecf30f-396a-40f1-ad70-0a5d8ff2654e"
        }
      }
    },
    {
      "fullUrl": "urn:uuid:4aecf30f-396a-40f1-ad70-0a5d8ff2654e",
      "resource": {
        "resourceType": "Practitioner",
        "id": "4aecf30f-396a-40f1-ad70-0a5d8ff2654e",
        "meta": {
          "profile": [
            "http://hl7.eu/fhir/base/StructureDefinition/practitioner-eu"
          ]
        },
        "identifier": [
          {
            "assigner": {
              "display": "HL7 Europe"
            },
            "system": "urn:oid:2.16.840.1.113883.2.51.999",
            "value": "a0a307fb-fe52-4409-a470-b9fac12a7f65"
          }
        ],
        "name": [
          {
            "prefix": [
              "dr"
            ],
            "given": [
              "Ex"
            ],
            "family": "Ample"
          }
        ],
        "address": [
          {
            "line": [
              "Laboratoire Central Européenne",
              "Boulevard du Jardin Botanique 32"
            ],
            "postalCode": "1000",
            "city": "Brussels",
            "country": "Belgium"
          }
        ],
        "text": {
          "status": "generated",
          "div": "<div xmlns=\"http://www.w3.org/1999/xhtml\">Laboratory: Laboratoire Central Européenne, 1000 Brussels, Belgium</div>"
        }
      }
    }
  ],
  "type": "document",
  "timestamp": "2025-04-15T22:16:45Z"
}
