{
  "resourceType": "Bundle",
  "id": "52403e6b-266c-4b1b-9304-1c7e6a19ebfe",
  "meta": {
    "profile": [
      "http://hl7.eu/fhir/laboratory/StructureDefinition/Bundle-eu-lab"
    ]
  },
  "identifier": {
    "assigner": {
      "display": "HL7 Europe"
    },
    "system": "urn:oid:2.16.840.1.113883.2.51.999",
    "value": "c08c0b30-4cdc-4d51-b6b3-38274990891c"
  },
  "entry": [
    {
      "fullUrl": "urn:uuid:0471fd21-347d-4dd3-9af1-424ddd95d444",
      "resource": {
        "resourceType": "Composition",
        "id": "0471fd21-347d-4dd3-9af1-424ddd95d444",
        "meta": {
          "profile": [
            "http://hl7.eu/fhir/laboratory/StructureDefinition/Composition-eu-lab"
          ]
        },
        "identifier": {
          "assigner": {
            "display": "HL7 Europe"
          },
          "system": "urn:oid:2.16.840.1.113883.2.51.999",
          "value": "373b5330-e1b1-4afb-a7af-d959362f801c"
        },
        "author": [
          {
            "reference": "urn:uuid:1a4b8720-c3d7-4912-b3c2-10ae927d50ab"
          }
        ],
        "category": [
          {
            "coding": [
              {
                "code": "26436-6",
                "system": "http://loinc.org",
                "display": "Laboratory studies (set)"
              }
            ]
          }
        ],
        "type": {
          "coding": [
            {
              "code": "11502-2",
              "system": "http://loinc.org",
              "display": "Laboratory report"
            }
          ],
          "text": "Laboratory Report"
        },
        "section": [
          {
            "code": {
              "coding": [
                {
                  "code": "26436-6",
                  "system": "http://loinc.org",
                  "display": "Laboratory studies (set)"
                }
              ],
              "text": "Laboratory studies"
            },
            "section": [
              {
                "code": {
                  "coding": [
                    {
                      "code": "$18719-5",
                      "system": "http://loinc.org",
                      "display": "Chemistry studies (set)"
                    }
                  ],
                  "text": "Chemistry"
                },
                "entry": [
                  {
                    "reference": "urn:uuid:a46f3f8e-db2a-4c09-83b8-24bbf945da45"
                  },
                  {
                    "reference": "urn:uuid:5499bdeb-7650-433f-b419-bc008376d3cd"
                  },
                  {
                    "reference": "urn:uuid:307d7e43-d615-49c0-98a6-bfaa5a329faf"
                  },
                  {
                    "reference": "urn:uuid:3ecab604-3972-46a2-bc7a-eba91ed61d6b"
                  },
                  {
                    "reference": "urn:uuid:b0c8ce86-f49e-4fe4-8c27-2735d866ac32"
                  },
                  {
                    "reference": "urn:uuid:14d485cd-699f-4162-bf07-a8163711bd4d"
                  },
                  {
                    "reference": "urn:uuid:24223ae1-ab64-44e3-9662-5d6c36882d24"
                  },
                  {
                    "reference": "urn:uuid:c6bd0f7d-477f-44b4-8c49-15de7085b150"
                  },
                  {
                    "reference": "urn:uuid:5d8cb139-afb1-480d-aaa2-b4d07e936605"
                  },
                  {
                    "reference": "urn:uuid:ee261f28-374e-4dc1-a44e-036c401146f4"
                  },
                  {
                    "reference": "urn:uuid:50a4978a-d29d-4fa7-9924-86fbee6dd6c0"
                  },
                  {
                    "reference": "urn:uuid:f61aac58-56a5-49ce-8326-cc30cb214d2d"
                  },
                  {
                    "reference": "urn:uuid:ab6bc335-7304-4853-a5fb-60ecf092cff2"
                  },
                  {
                    "reference": "urn:uuid:7382cc16-debd-4e30-ad41-1131e6083d87"
                  },
                  {
                    "reference": "urn:uuid:8c72d4ce-b75f-4287-8133-4da62d9b9068"
                  },
                  {
                    "reference": "urn:uuid:3613ab8a-0407-4f7c-9055-c7713e2d688a"
                  }
                ],
                "text": {
                  "status": "generated",
                  "div": "<div xmlns=\"http://www.w3.org/1999/xhtml\"><h3>Chemistry</h3><table class=\"hl7__eu__lab__report\"><thead><tr><th>Test</th><th>09-AUG-2015</th><th>Reference&#xA0;Range</th><th>Unit</th></tr></thead><tbody><tr><td>Glucose [Mass/volume] in Blood</td><td>94.6</td><td>70 - 140</td><td>mg/dL</td></tr><tr><td>Urea nitrogen [Mass/volume] in Blood</td><td>17.4</td><td>7 - 30</td><td>mg/dL</td></tr><tr><td>Creatinine [Mass/volume] in Blood</td><td><strong>2.9 H</strong></td><td>0.5 - 1.3</td><td>mg/dL</td></tr><tr><td>Calcium [Mass/volume] in Blood</td><td>9.2</td><td>8.6 - 10.2</td><td>mg/dL</td></tr><tr><td>Sodium [Moles/volume] in Blood</td><td>138.5</td><td>135 - 145</td><td>mmol/L</td></tr><tr><td>Potassium [Moles/volume] in Blood</td><td>4.2</td><td>3.5 - 5.1</td><td>mmol/L</td></tr><tr><td>Chloride [Moles/volume] in Blood</td><td>109.5</td><td>98 - 114</td><td>mmol/L</td></tr><tr><td>Carbon dioxide, total [Moles/volume] in Blood</td><td><strong>20.1 L</strong></td><td>22 - 32</td><td>mmol/L</td></tr><tr><td>Protein [Mass/volume] in Serum or Plasma</td><td>7.7</td><td>6 - 8.3</td><td>g/dL</td></tr><tr><td>Albumin [Mass/volume] in Serum or Plasma</td><td>3.7</td><td>3.5 - 5.5</td><td>g/dL</td></tr><tr><td>Globulin [Mass/volume] in Serum by calculation</td><td>3.1</td><td>2 - 3.5</td><td>g/L</td></tr><tr><td>Bilirubin.total [Mass/volume] in Serum or Plasma</td><td><strong>0.1 L</strong></td><td>0.3 - 1.2</td><td>mg/dL</td></tr><tr><td>Alkaline phosphatase [Enzymatic activity/volume] in Serum or Plasma</td><td>115.3</td><td>44 - 142</td><td>U/L</td></tr><tr><td>Alanine aminotransferase [Enzymatic activity/volume] in Serum or Plasma</td><td>25.9</td><td>7 - 40</td><td>U/L</td></tr><tr><td>Aspartate aminotransferase [Enzymatic activity/volume] in Serum or Plasma</td><td>28.8</td><td>10 - 40</td><td>U/L</td></tr><tr><td>Ketones [Presence] in Urine by Test strip</td><td>Urine ketone test = +++</td><td></td><td></td></tr></tbody></table></div>"
                },
                "title": "Chemistry"
              },
              {
                "code": {
                  "coding": [
                    {
                      "code": "$18729-4",
                      "system": "http://loinc.org",
                      "display": "Urinalysis studies (set)"
                    }
                  ],
                  "text": "Urinalysis"
                },
                "entry": [
                  {
                    "reference": "urn:uuid:58d26f58-73c2-4cbb-8429-056b06f68bd4"
                  },
                  {
                    "reference": "urn:uuid:ab58a8b5-f8ee-45d9-b787-3edf17c8b4b0"
                  },
                  {
                    "reference": "urn:uuid:5533fff3-f3f5-4505-8c04-f4a3f6e06c33"
                  },
                  {
                    "reference": "urn:uuid:c51c66fd-c9f9-4a49-8849-3b5a609cca76"
                  },
                  {
                    "reference": "urn:uuid:76ee7b10-3916-4a13-ae3e-29a0f59505b7"
                  },
                  {
                    "reference": "urn:uuid:e862f9f6-7d7d-426f-b0c8-7d1e05815651"
                  },
                  {
                    "reference": "urn:uuid:49953896-ddcf-4e3c-bb88-eb6c4dfb5ff1"
                  },
                  {
                    "reference": "urn:uuid:528c3afe-9719-46d1-884f-b970594e3617"
                  },
                  {
                    "reference": "urn:uuid:a1fac87b-9db5-4582-b3d3-a78fa2c37825"
                  },
                  {
                    "reference": "urn:uuid:e61ce861-4381-46a0-abae-ca702b235b4d"
                  },
                  {
                    "reference": "urn:uuid:66c6810c-c845-488c-854f-549fa56c7ea1"
                  },
                  {
                    "reference": "urn:uuid:f0708331-5cff-4f0d-9018-ef076981e63f"
                  }
                ],
                "text": {
                  "status": "generated",
                  "div": "<div xmlns=\"http://www.w3.org/1999/xhtml\"><h3>Urinalysis</h3><table class=\"hl7__eu__lab__report\"><thead><tr><th>Test</th><th>09-AUG-2015</th><th>Reference&#xA0;Range</th><th>Unit</th></tr></thead><tbody><tr><td>Glucose [Mass/volume] in Urine by Test strip</td><td><strong>1.6 H</strong></td><td>0.8 - 0</td><td>mg/dL</td></tr><tr><td>Glucose [Presence] in Urine by Test strip</td><td>++</td><td></td><td></td></tr><tr><td>Bilirubin.total [Mass/volume] in Urine by Test strip</td><td>1.1</td><td>0 - 1.5</td><td>mg/dL</td></tr><tr><td>Bilirubin.total [Presence] in Urine by Test strip</td><td>Finding of bilirubin in urine</td><td></td><td></td></tr><tr><td>Ketones [Mass/volume] in Urine by Test strip</td><td><strong>10.4 H</strong></td><td>0 - 8</td><td>mg/dL</td></tr><tr><td>Specific gravity of Urine by Test strip</td><td><strong>1.0 L</strong></td><td>1.01 - 1.03</td><td>{nominal}</td></tr><tr><td>pH of Urine by Test strip</td><td>5.1</td><td>4.6 - 7.5</td><td>pH</td></tr><tr><td>Protein [Mass/volume] in Urine by Test strip</td><td><strong>426.7 H</strong></td><td>0 - 14</td><td>mg/dL</td></tr><tr><td>Protein [Presence] in Urine by Test strip</td><td>Urine protein test = +++</td><td></td><td></td></tr><tr><td>Nitrite [Presence] in Urine by Test strip</td><td>Urine nitrite negative</td><td></td><td></td></tr><tr><td>Hemoglobin [Presence] in Urine by Test strip</td><td>Urine blood test = negative</td><td></td><td></td></tr><tr><td>Leukocyte esterase [Presence] in Urine by Test strip</td><td>Urine leukocyte test negative</td><td></td><td></td></tr></tbody></table></div>"
                },
                "title": "Urinalysis"
              },
              {
                "code": {
                  "coding": [
                    {
                      "code": "$LP7846-1",
                      "system": "http://loinc.org",
                      "display": "Specimen information"
                    }
                  ],
                  "text": "Specimen information"
                },
                "entry": [
                  {
                    "reference": "urn:uuid:1af0f152-4dda-4dae-af5b-462c2d0a9476"
                  },
                  {
                    "reference": "urn:uuid:8fe8320a-0d7a-45e9-b85d-dec04fc02514"
                  },
                  {
                    "reference": "urn:uuid:7fafbced-3dd9-4578-988a-8e26dfdcbae0"
                  },
                  {
                    "reference": "urn:uuid:0cf9f715-8546-4178-9792-bbb251d3d9cf"
                  }
                ],
                "text": {
                  "status": "generated",
                  "div": "<div xmlns=\"http://www.w3.org/1999/xhtml\"><h3>Specimen information</h3><table class=\"hl7__eu__lab__report\"><thead><tr><th>Test</th><th>09-AUG-2015</th><th>Specimen</th><th></th></tr></thead><tbody><tr><td>Appearance of Urine</td><td>Cloudy urine</td><td>Urine</td><td></td></tr><tr><td>Odor of Urine</td><td>Urine smell ammoniacal</td><td>Urine</td><td></td></tr><tr><td>Clarity of Urine</td><td>Translucent</td><td>Urine</td><td></td></tr><tr><td>Color of Urine</td><td>Brown color</td><td>Urine</td><td></td></tr></tbody></table></div>"
                },
                "title": "Specimen information"
              }
            ],
            "title": "Laboratory Report"
          },
          {
            "text": {
              "status": "generated",
              "div": "<div xmlns=\"http://www.w3.org/1999/xhtml\"><h3>Annotation</h3><table class=\"hl7__eu__lab__report\"><tr><th>Conclusion and Recommendations based on this report and previous findings known to us</th></tr><tr><td>The patient shows markedly elevated serum creatinine, indicating significant renal impairment. Urinalysis reveals proteinuria, glycosuria, and ketonuria, with low specific gravity, suggesting impaired renal concentrating ability and possible nephrotic or diabetic kidney involvement. No evidence of urinary tract infection is present. Blood CO₂ is low, indicating possible metabolic acidosis. Liver function and electrolytes are within normal limits. Findings are consistent with advanced renal dysfunction; prompt nephrology evaluation is recommended.</td></tr></table></div>"
            },
            "code": {
              "coding": [
                {
                  "system": "http://loinc.org",
                  "code": "48767-8",
                  "display": "Annotation comment"
                }
              ]
            },
            "title": "Annotation comment"
          }
        ],
        "status": "final",
        "subject": {
          "reference": "urn:uuid:aa507fc9-3585-4a94-8702-432b663c9fa9",
          "display": "Maria Nohlmans"
        },
        "date": "2015-08-09T22:58:39Z",
        "title": "Laboratory Report",
        "confidentiality": "N"
      }
    },
    {
      "fullUrl": "urn:uuid:8c6a595a-ebbf-4514-980a-775bd755517d",
      "resource": {
        "resourceType": "DiagnosticReport",
        "id": "8c6a595a-ebbf-4514-980a-775bd755517d",
        "meta": {
          "profile": [
            "http://hl7.eu/fhir/laboratory/StructureDefinition/DiagnosticReport-eu-lab"
          ]
        },
        "identifier": [
          {
            "assigner": {
              "display": "HL7 Europe"
            },
            "system": "urn:oid:2.16.840.1.113883.2.51.999",
            "value": "9e8f0d0a-fc8e-44f9-82a6-708d244a9511"
          }
        ],
        "extension": [
          {
            "url": "http://hl7.org/fhir/5.0/StructureDefinition/extension-DiagnosticReport.composition",
            "valueReference": {
              "reference": "urn:uuid:373b5330-e1b1-4afb-a7af-d959362f801c"
            }
          }
        ],
        "category": [
          {
            "coding": [
              {
                "code": "26436-6",
                "system": "http://loinc.org",
                "display": "Laboratory studies (set)"
              }
            ]
          }
        ],
        "specimen": [
          {
            "reference": "urn:uuid:5627bb2c-b628-4ab5-bcd0-6d6042026482"
          },
          {
            "reference": "urn:uuid:f3328593-3bab-4ea5-9511-f4e933fc8c52"
          },
          {
            "reference": "urn:uuid:cc2ebeeb-3e45-432a-a903-b13e75e5d4c5"
          },
          {
            "reference": "urn:uuid:25f78af1-61c3-4949-a073-1ebaa0381172"
          }
        ],
        "result": [
          {
            "reference": "urn:uuid:a46f3f8e-db2a-4c09-83b8-24bbf945da45"
          },
          {
            "reference": "urn:uuid:5499bdeb-7650-433f-b419-bc008376d3cd"
          },
          {
            "reference": "urn:uuid:307d7e43-d615-49c0-98a6-bfaa5a329faf"
          },
          {
            "reference": "urn:uuid:3ecab604-3972-46a2-bc7a-eba91ed61d6b"
          },
          {
            "reference": "urn:uuid:b0c8ce86-f49e-4fe4-8c27-2735d866ac32"
          },
          {
            "reference": "urn:uuid:14d485cd-699f-4162-bf07-a8163711bd4d"
          },
          {
            "reference": "urn:uuid:24223ae1-ab64-44e3-9662-5d6c36882d24"
          },
          {
            "reference": "urn:uuid:c6bd0f7d-477f-44b4-8c49-15de7085b150"
          },
          {
            "reference": "urn:uuid:5d8cb139-afb1-480d-aaa2-b4d07e936605"
          },
          {
            "reference": "urn:uuid:ee261f28-374e-4dc1-a44e-036c401146f4"
          },
          {
            "reference": "urn:uuid:50a4978a-d29d-4fa7-9924-86fbee6dd6c0"
          },
          {
            "reference": "urn:uuid:f61aac58-56a5-49ce-8326-cc30cb214d2d"
          },
          {
            "reference": "urn:uuid:ab6bc335-7304-4853-a5fb-60ecf092cff2"
          },
          {
            "reference": "urn:uuid:7382cc16-debd-4e30-ad41-1131e6083d87"
          },
          {
            "reference": "urn:uuid:8c72d4ce-b75f-4287-8133-4da62d9b9068"
          },
          {
            "reference": "urn:uuid:1af0f152-4dda-4dae-af5b-462c2d0a9476"
          },
          {
            "reference": "urn:uuid:8fe8320a-0d7a-45e9-b85d-dec04fc02514"
          },
          {
            "reference": "urn:uuid:7fafbced-3dd9-4578-988a-8e26dfdcbae0"
          },
          {
            "reference": "urn:uuid:0cf9f715-8546-4178-9792-bbb251d3d9cf"
          },
          {
            "reference": "urn:uuid:58d26f58-73c2-4cbb-8429-056b06f68bd4"
          },
          {
            "reference": "urn:uuid:ab58a8b5-f8ee-45d9-b787-3edf17c8b4b0"
          },
          {
            "reference": "urn:uuid:5533fff3-f3f5-4505-8c04-f4a3f6e06c33"
          },
          {
            "reference": "urn:uuid:c51c66fd-c9f9-4a49-8849-3b5a609cca76"
          },
          {
            "reference": "urn:uuid:76ee7b10-3916-4a13-ae3e-29a0f59505b7"
          },
          {
            "reference": "urn:uuid:3613ab8a-0407-4f7c-9055-c7713e2d688a"
          },
          {
            "reference": "urn:uuid:e862f9f6-7d7d-426f-b0c8-7d1e05815651"
          },
          {
            "reference": "urn:uuid:49953896-ddcf-4e3c-bb88-eb6c4dfb5ff1"
          },
          {
            "reference": "urn:uuid:528c3afe-9719-46d1-884f-b970594e3617"
          },
          {
            "reference": "urn:uuid:a1fac87b-9db5-4582-b3d3-a78fa2c37825"
          },
          {
            "reference": "urn:uuid:e61ce861-4381-46a0-abae-ca702b235b4d"
          },
          {
            "reference": "urn:uuid:66c6810c-c845-488c-854f-549fa56c7ea1"
          },
          {
            "reference": "urn:uuid:f0708331-5cff-4f0d-9018-ef076981e63f"
          }
        ],
        "status": "registered",
        "code": {
          "coding": [
            {
              "code": "11502-2",
              "system": "http://loinc.org",
              "display": "Laboratory report"
            }
          ]
        },
        "subject": {
          "reference": "urn:uuid:aa507fc9-3585-4a94-8702-432b663c9fa9",
          "display": "Maria Nohlmans"
        }
      }
    },
    {
      "fullUrl": "urn:uuid:aa507fc9-3585-4a94-8702-432b663c9fa9",
      "resource": {
        "resourceType": "Patient",
        "id": "aa507fc9-3585-4a94-8702-432b663c9fa9",
        "meta": {
          "security": [
            {
              "system": "http://terminology.hl7.org/CodeSystem/v3-ActReason",
              "code": "HTEST"
            },
            {
              "system": "http://terminology.hl7.org/CodeSystem/v3-ActReason",
              "code": "TRAIN"
            }
          ],
          "tag": [
            {
              "system": "https://synderai.net/fhir/CodeSystem/tags",
              "code": "synthetic",
              "display": "SYNDERAI Synthetic data"
            }
          ],
          "profile": [
            "http://hl7.eu/fhir/base/StructureDefinition/patient-eu-core"
          ]
        },
        "identifier": [
          {
            "type": {
              "coding": [
                {
                  "code": "PT",
                  "system": "http://terminology.hl7.org/CodeSystem/v2-0203"
                }
              ]
            },
            "system": "http://ec.europa.eu/identifier/eci",
            "value": "6886-506417-1"
          },
          {
            "type": {
              "coding": [
                {
                  "code": "MR",
                  "system": "http://terminology.hl7.org/CodeSystem/v2-0203"
                }
              ]
            },
            "system": "http://local.setting.eu/identifier",
            "value": "2cb21ed6-b617-b1f3-2290-589a710de5ee"
          }
        ],
        "name": [
          {
            "family": "Nohlmans"
          },
          {
            "given": [
              "Maria"
            ]
          },
          {
            "text": "Maria Nohlmans"
          }
        ],
        "address": [
          {
            "line": [
              "Alfons-Wulff-Weg 1"
            ],
            "use": "home",
            "type": "physical",
            "postalCode": "25813",
            "city": "Husum",
            "country": "Germany"
          }
        ],
        "telecom": [
          {
            "system": "phone",
            "value": "+49(0)1911 105501"
          }
        ],
        "extension": [
          {
            "url": "http://hl7.org/fhir/StructureDefinition/patient-nationality",
            "valueCodeableConcept": {
              "coding": [
                {
                  "code": "DE",
                  "system": "http://hl7.org/fhir/ValueSet/country"
                }
              ]
            }
          }
        ],
        "text": {
          "status": "generated",
          "div": "<div xmlns=\"http://www.w3.org/1999/xhtml\"><table class=\"hl7__ips\"><tr><td>Maria Nohlmans</td><td>female</td><td>11-Jun-1947</td></tr></table></div>"
        },
        "gender": "female",
        "birthDate": "1947-06-11"
      }
    },
    {
      "fullUrl": "urn:uuid:4f934609-b8cf-45c0-9fea-be457cfd9f0b",
      "resource": {
        "resourceType": "ServiceRequest",
        "id": "4f934609-b8cf-45c0-9fea-be457cfd9f0b",
        "meta": {
          "profile": [
            "http://hl7.eu/fhir/laboratory/StructureDefinition/ServiceRequest-eu-lab"
          ]
        },
        "identifier": [
          {
            "system": "http://example.org",
            "value": "ccbc772b-beed-4af6-8b8d-5c950c72d36f"
          }
        ],
        "specimen": [
          {
            "reference": "urn:uuid:5627bb2c-b628-4ab5-bcd0-6d6042026482"
          },
          {
            "reference": "urn:uuid:f3328593-3bab-4ea5-9511-f4e933fc8c52"
          },
          {
            "reference": "urn:uuid:cc2ebeeb-3e45-432a-a903-b13e75e5d4c5"
          },
          {
            "reference": "urn:uuid:25f78af1-61c3-4949-a073-1ebaa0381172"
          }
        ],
        "reasonCode": [
          {
            "coding": [
              {
                "code": "401314000",
                "system": "http://snomed.info/sct",
                "display": "Acute non-ST segment elevation myocardial infarction"
              }
            ]
          },
          {
            "coding": [
              {
                "code": "157141000119108",
                "system": "http://snomed.info/sct",
                "display": "Proteinuria due to type 2 diabetes mellitus"
              }
            ]
          },
          {
            "coding": [
              {
                "code": "237602007",
                "system": "http://snomed.info/sct",
                "display": "Metabolic syndrome X"
              }
            ]
          },
          {
            "coding": [
              {
                "code": "90781000119102",
                "system": "http://snomed.info/sct",
                "display": "Microalbuminuria due to type 2 diabetes mellitus"
              }
            ]
          },
          {
            "coding": [
              {
                "code": "127013003",
                "system": "http://snomed.info/sct",
                "display": "Disorder of kidney due to diabetes mellitus"
              }
            ]
          },
          {
            "coding": [
              {
                "code": "59621000",
                "system": "http://snomed.info/sct",
                "display": "Essential hypertension"
              }
            ]
          },
          {
            "coding": [
              {
                "code": "271737000",
                "system": "http://snomed.info/sct",
                "display": "Anemia"
              }
            ]
          },
          {
            "coding": [
              {
                "code": "15777000",
                "system": "http://snomed.info/sct",
                "display": "Prediabetes"
              }
            ]
          }
        ],
        "status": "active",
        "intent": "order",
        "code": {
          "coding": [
            {
              "code": "108252007",
              "system": "http://snomed.info/sct",
              "display": "Laboratory procedure"
            }
          ]
        },
        "subject": {
          "reference": "urn:uuid:aa507fc9-3585-4a94-8702-432b663c9fa9",
          "display": "Maria Nohlmans"
        },
        "requester": {
          "reference": "urn:uuid:29b9abb4-05d6-4923-8233-3e2af87423d1"
        }
      }
    },
    {
      "fullUrl": "urn:uuid:29b9abb4-05d6-4923-8233-3e2af87423d1",
      "resource": {
        "resourceType": "PractitionerRole",
        "id": "29b9abb4-05d6-4923-8233-3e2af87423d1",
        "meta": {
          "profile": [
            "http://hl7.eu/fhir/base/StructureDefinition/practitionerRole-eu"
          ]
        },
        "text": {
          "status": "generated",
          "div": "<div xmlns=\"http://www.w3.org/1999/xhtml\">Provider Role Id: 29b9abb4-05d6-4923-8233-3e2af87423d1</div>"
        },
        "organization": {
          "reference": "urn:uuid:5d49de68-4199-486d-b532-d523f0cc3d28"
        }
      }
    },
    {
      "fullUrl": "urn:uuid:5d49de68-4199-486d-b532-d523f0cc3d28",
      "resource": {
        "resourceType": "Organization",
        "id": "5d49de68-4199-486d-b532-d523f0cc3d28",
        "meta": {
          "profile": [
            "http://hl7.eu/fhir/base/StructureDefinition/organization-eu"
          ]
        },
        "identifier": [
          {
            "assigner": {
              "display": "HL7 Europe"
            },
            "system": "urn:oid:2.16.840.1.113883.2.51.999",
            "value": "de03e173-1fbd-4410-9b2f-d6d51e86d024"
          }
        ],
        "address": [
          {
            "line": [
              "Brinckmannstraße 35"
            ],
            "city": "Husum",
            "postalCode": "25813",
            "country": "Germany"
          }
        ],
        "text": {
          "status": "generated",
          "div": "<div xmlns=\"http://www.w3.org/1999/xhtml\">Provider Organization: Dr. Wolfram Hussels Kieferorthopäde</div>"
        },
        "name": "Dr. Wolfram Hussels Kieferorthopäde"
      }
    },
    {
      "fullUrl": "urn:uuid:5627bb2c-b628-4ab5-bcd0-6d6042026482",
      "resource": {
        "resourceType": "Specimen",
        "id": "5627bb2c-b628-4ab5-bcd0-6d6042026482",
        "meta": {
          "profile": [
            "http://hl7.eu/fhir/laboratory/StructureDefinition/Specimen-eu-lab"
          ]
        },
        "collection": {
          "collectedDateTime": "2015-08-09"
        },
        "text": {
          "status": "generated",
          "div": "<div xmlns=\"http://www.w3.org/1999/xhtml\"><table class=\"hl7__eu__lab__report\"><tr><th>Specimen</th><th>Collection Date</th></tr><tr><td>Whole blood specimen (specimen)</td><td><span class=\"nb\">09-Aug-2015</span></td></tr></table></div>"
        },
        "type": {
          "coding": [
            {
              "code": "258580003",
              "system": "http://snomed.info/sct",
              "display": "Whole blood specimen (specimen)"
            }
          ]
        }
      }
    },
    {
      "fullUrl": "urn:uuid:f3328593-3bab-4ea5-9511-f4e933fc8c52",
      "resource": {
        "resourceType": "Specimen",
        "id": "f3328593-3bab-4ea5-9511-f4e933fc8c52",
        "meta": {
          "profile": [
            "http://hl7.eu/fhir/laboratory/StructureDefinition/Specimen-eu-lab"
          ]
        },
        "collection": {
          "collectedDateTime": "2015-08-09"
        },
        "text": {
          "status": "generated",
          "div": "<div xmlns=\"http://www.w3.org/1999/xhtml\"><table class=\"hl7__eu__lab__report\"><tr><th>Specimen</th><th>Collection Date</th></tr><tr><td>Acellular blood (serum or plasma) specimen</td><td><span class=\"nb\">09-Aug-2015</span></td></tr></table></div>"
        },
        "type": {
          "coding": [
            {
              "code": "122592007",
              "system": "http://snomed.info/sct",
              "display": "Acellular blood (serum or plasma) specimen"
            }
          ]
        }
      }
    },
    {
      "fullUrl": "urn:uuid:cc2ebeeb-3e45-432a-a903-b13e75e5d4c5",
      "resource": {
        "resourceType": "Specimen",
        "id": "cc2ebeeb-3e45-432a-a903-b13e75e5d4c5",
        "meta": {
          "profile": [
            "http://hl7.eu/fhir/laboratory/StructureDefinition/Specimen-eu-lab"
          ]
        },
        "collection": {
          "collectedDateTime": "2015-08-09"
        },
        "text": {
          "status": "generated",
          "div": "<div xmlns=\"http://www.w3.org/1999/xhtml\"><table class=\"hl7__eu__lab__report\"><tr><th>Specimen</th><th>Collection Date</th></tr><tr><td>Serum specimen</td><td><span class=\"nb\">09-Aug-2015</span></td></tr></table></div>"
        },
        "type": {
          "coding": [
            {
              "code": "119364003",
              "system": "http://snomed.info/sct",
              "display": "Serum specimen"
            }
          ]
        }
      }
    },
    {
      "fullUrl": "urn:uuid:25f78af1-61c3-4949-a073-1ebaa0381172",
      "resource": {
        "resourceType": "Specimen",
        "id": "25f78af1-61c3-4949-a073-1ebaa0381172",
        "meta": {
          "profile": [
            "http://hl7.eu/fhir/laboratory/StructureDefinition/Specimen-eu-lab"
          ]
        },
        "collection": {
          "collectedDateTime": "2015-08-09"
        },
        "text": {
          "status": "generated",
          "div": "<div xmlns=\"http://www.w3.org/1999/xhtml\"><table class=\"hl7__eu__lab__report\"><tr><th>Specimen</th><th>Collection Date</th></tr><tr><td>Urine specimen</td><td><span class=\"nb\">09-Aug-2015</span></td></tr></table></div>"
        },
        "type": {
          "coding": [
            {
              "code": "122575003",
              "system": "http://snomed.info/sct",
              "display": "Urine specimen"
            }
          ]
        }
      }
    },
    {
      "fullUrl": "urn:uuid:a46f3f8e-db2a-4c09-83b8-24bbf945da45",
      "resource": {
        "resourceType": "Observation",
        "id": "a46f3f8e-db2a-4c09-83b8-24bbf945da45",
        "meta": {
          "profile": [
            "http://hl7.eu/fhir/laboratory/StructureDefinition/Observation-resultslab-eu-lab"
          ]
        },
        "performer": [
          {
            "display": "The Central European Lab"
          }
        ],
        "category": [
          {
            "coding": [
              {
                "system": "http://terminology.hl7.org/CodeSystem/observation-category",
                "code": "laboratory"
              }
            ]
          }
        ],
        "code": {
          "coding": [
            {
              "code": "2339-0",
              "system": "http://loinc.org",
              "display": "Glucose [Mass/volume] in Blood"
            }
          ],
          "text": "Glucose [Mass/volume] in Blood"
        },
        "valueQuantity": {
          "system": "http://unitsofmeasure.org",
          "value": 94.6,
          "unit": "mg/dL",
          "code": "mg/dL"
        },
        "referenceRange": [
          {
            "low": {
              "value": 70,
              "code": "mg/dL",
              "system": "http://unitsofmeasure.org"
            }
          },
          {
            "high": {
              "value": 140,
              "code": "mg/dL",
              "system": "http://unitsofmeasure.org"
            }
          }
        ],
        "text": {
          "status": "generated",
          "div": "<div xmlns=\"http://www.w3.org/1999/xhtml\"><table class=\"hl7__eu__lab__report\"><tr><th>Test</th><th>09-Aug-2015</th><th>Reference&#xA0;Range</th><th>Unit</th></tr><tr><td>Glucose [Mass/volume] in Blood</td><td>94.6</td><td>70 - 140</td><td></td><td>mg/dL</td></tr></table></div>"
        },
        "status": "final",
        "subject": {
          "reference": "urn:uuid:aa507fc9-3585-4a94-8702-432b663c9fa9",
          "display": "Maria Nohlmans"
        },
        "effectiveDateTime": "2015-08-09T20:58:39Z",
        "specimen": {
          "reference": "urn:uuid:5627bb2c-b628-4ab5-bcd0-6d6042026482"
        }
      }
    },
    {
      "fullUrl": "urn:uuid:5499bdeb-7650-433f-b419-bc008376d3cd",
      "resource": {
        "resourceType": "Observation",
        "id": "5499bdeb-7650-433f-b419-bc008376d3cd",
        "meta": {
          "profile": [
            "http://hl7.eu/fhir/laboratory/StructureDefinition/Observation-resultslab-eu-lab"
          ]
        },
        "performer": [
          {
            "display": "The Central European Lab"
          }
        ],
        "category": [
          {
            "coding": [
              {
                "system": "http://terminology.hl7.org/CodeSystem/observation-category",
                "code": "laboratory"
              }
            ]
          }
        ],
        "code": {
          "coding": [
            {
              "code": "6299-2",
              "system": "http://loinc.org",
              "display": "Urea nitrogen [Mass/volume] in Blood"
            }
          ],
          "text": "Urea nitrogen [Mass/volume] in Blood"
        },
        "valueQuantity": {
          "system": "http://unitsofmeasure.org",
          "value": 17.4,
          "unit": "mg/dL",
          "code": "mg/dL"
        },
        "referenceRange": [
          {
            "low": {
              "value": 7,
              "code": "mg/dL",
              "system": "http://unitsofmeasure.org"
            }
          },
          {
            "high": {
              "value": 30,
              "code": "mg/dL",
              "system": "http://unitsofmeasure.org"
            }
          }
        ],
        "text": {
          "status": "generated",
          "div": "<div xmlns=\"http://www.w3.org/1999/xhtml\"><table class=\"hl7__eu__lab__report\"><tr><th>Test</th><th>09-Aug-2015</th><th>Reference&#xA0;Range</th><th>Unit</th></tr><tr><td>Urea nitrogen [Mass/volume] in Blood</td><td>17.4</td><td>7 - 30</td><td></td><td>mg/dL</td></tr></table></div>"
        },
        "status": "final",
        "subject": {
          "reference": "urn:uuid:aa507fc9-3585-4a94-8702-432b663c9fa9",
          "display": "Maria Nohlmans"
        },
        "effectiveDateTime": "2015-08-09T20:58:39Z",
        "specimen": {
          "reference": "urn:uuid:5627bb2c-b628-4ab5-bcd0-6d6042026482"
        }
      }
    },
    {
      "fullUrl": "urn:uuid:307d7e43-d615-49c0-98a6-bfaa5a329faf",
      "resource": {
        "resourceType": "Observation",
        "id": "307d7e43-d615-49c0-98a6-bfaa5a329faf",
        "meta": {
          "profile": [
            "http://hl7.eu/fhir/laboratory/StructureDefinition/Observation-resultslab-eu-lab"
          ]
        },
        "performer": [
          {
            "display": "The Central European Lab"
          }
        ],
        "category": [
          {
            "coding": [
              {
                "system": "http://terminology.hl7.org/CodeSystem/observation-category",
                "code": "laboratory"
              }
            ]
          }
        ],
        "code": {
          "coding": [
            {
              "code": "38483-4",
              "system": "http://loinc.org",
              "display": "Creatinine [Mass/volume] in Blood"
            }
          ],
          "text": "Creatinine [Mass/volume] in Blood"
        },
        "valueQuantity": {
          "system": "http://unitsofmeasure.org",
          "value": 2.9,
          "unit": "mg/dL",
          "code": "mg/dL"
        },
        "referenceRange": [
          {
            "low": {
              "value": 0.5,
              "code": "mg/dL",
              "system": "http://unitsofmeasure.org"
            }
          },
          {
            "high": {
              "value": 1.3,
              "code": "mg/dL",
              "system": "http://unitsofmeasure.org"
            }
          }
        ],
        "interpretation": [
          {
            "coding": [
              {
                "code": "H",
                "system": "http://terminology.hl7.org/CodeSystem/v3-ObservationInterpretation",
                "display": "High"
              }
            ]
          }
        ],
        "text": {
          "status": "generated",
          "div": "<div xmlns=\"http://www.w3.org/1999/xhtml\"><table class=\"hl7__eu__lab__report\"><tr><th>Test</th><th>09-Aug-2015</th><th>Reference&#xA0;Range</th><th>Unit</th></tr><tr><td>Creatinine [Mass/volume] in Blood</td><td>2.9</td><td>0.5 - 1.3</td><td>H</td><td>mg/dL</td></tr></table></div>"
        },
        "status": "final",
        "subject": {
          "reference": "urn:uuid:aa507fc9-3585-4a94-8702-432b663c9fa9",
          "display": "Maria Nohlmans"
        },
        "effectiveDateTime": "2015-08-09T20:58:39Z",
        "specimen": {
          "reference": "urn:uuid:5627bb2c-b628-4ab5-bcd0-6d6042026482"
        }
      }
    },
    {
      "fullUrl": "urn:uuid:3ecab604-3972-46a2-bc7a-eba91ed61d6b",
      "resource": {
        "resourceType": "Observation",
        "id": "3ecab604-3972-46a2-bc7a-eba91ed61d6b",
        "meta": {
          "profile": [
            "http://hl7.eu/fhir/laboratory/StructureDefinition/Observation-resultslab-eu-lab"
          ]
        },
        "performer": [
          {
            "display": "The Central European Lab"
          }
        ],
        "category": [
          {
            "coding": [
              {
                "system": "http://terminology.hl7.org/CodeSystem/observation-category",
                "code": "laboratory"
              }
            ]
          }
        ],
        "code": {
          "coding": [
            {
              "code": "49765-1",
              "system": "http://loinc.org",
              "display": "Calcium [Mass/volume] in Blood"
            }
          ],
          "text": "Calcium [Mass/volume] in Blood"
        },
        "valueQuantity": {
          "system": "http://unitsofmeasure.org",
          "value": 9.2,
          "unit": "mg/dL",
          "code": "mg/dL"
        },
        "referenceRange": [
          {
            "low": {
              "value": 8.6,
              "code": "mg/dL",
              "system": "http://unitsofmeasure.org"
            }
          },
          {
            "high": {
              "value": 10.2,
              "code": "mg/dL",
              "system": "http://unitsofmeasure.org"
            }
          }
        ],
        "text": {
          "status": "generated",
          "div": "<div xmlns=\"http://www.w3.org/1999/xhtml\"><table class=\"hl7__eu__lab__report\"><tr><th>Test</th><th>09-Aug-2015</th><th>Reference&#xA0;Range</th><th>Unit</th></tr><tr><td>Calcium [Mass/volume] in Blood</td><td>9.2</td><td>8.6 - 10.2</td><td></td><td>mg/dL</td></tr></table></div>"
        },
        "status": "final",
        "subject": {
          "reference": "urn:uuid:aa507fc9-3585-4a94-8702-432b663c9fa9",
          "display": "Maria Nohlmans"
        },
        "effectiveDateTime": "2015-08-09T20:58:39Z",
        "specimen": {
          "reference": "urn:uuid:5627bb2c-b628-4ab5-bcd0-6d6042026482"
        }
      }
    },
    {
      "fullUrl": "urn:uuid:b0c8ce86-f49e-4fe4-8c27-2735d866ac32",
      "resource": {
        "resourceType": "Observation",
        "id": "b0c8ce86-f49e-4fe4-8c27-2735d866ac32",
        "meta": {
          "profile": [
            "http://hl7.eu/fhir/laboratory/StructureDefinition/Observation-resultslab-eu-lab"
          ]
        },
        "performer": [
          {
            "display": "The Central European Lab"
          }
        ],
        "category": [
          {
            "coding": [
              {
                "system": "http://terminology.hl7.org/CodeSystem/observation-category",
                "code": "laboratory"
              }
            ]
          }
        ],
        "code": {
          "coding": [
            {
              "code": "2947-0",
              "system": "http://loinc.org",
              "display": "Sodium [Moles/volume] in Blood"
            }
          ],
          "text": "Sodium [Moles/volume] in Blood"
        },
        "valueQuantity": {
          "system": "http://unitsofmeasure.org",
          "value": 138.5,
          "unit": "mmol/L",
          "code": "mmol/L"
        },
        "referenceRange": [
          {
            "low": {
              "value": 135,
              "code": "mmol/L",
              "system": "http://unitsofmeasure.org"
            }
          },
          {
            "high": {
              "value": 145,
              "code": "mmol/L",
              "system": "http://unitsofmeasure.org"
            }
          }
        ],
        "text": {
          "status": "generated",
          "div": "<div xmlns=\"http://www.w3.org/1999/xhtml\"><table class=\"hl7__eu__lab__report\"><tr><th>Test</th><th>09-Aug-2015</th><th>Reference&#xA0;Range</th><th>Unit</th></tr><tr><td>Sodium [Moles/volume] in Blood</td><td>138.5</td><td>135 - 145</td><td></td><td>mmol/L</td></tr></table></div>"
        },
        "status": "final",
        "subject": {
          "reference": "urn:uuid:aa507fc9-3585-4a94-8702-432b663c9fa9",
          "display": "Maria Nohlmans"
        },
        "effectiveDateTime": "2015-08-09T20:58:39Z",
        "specimen": {
          "reference": "urn:uuid:5627bb2c-b628-4ab5-bcd0-6d6042026482"
        }
      }
    },
    {
      "fullUrl": "urn:uuid:14d485cd-699f-4162-bf07-a8163711bd4d",
      "resource": {
        "resourceType": "Observation",
        "id": "14d485cd-699f-4162-bf07-a8163711bd4d",
        "meta": {
          "profile": [
            "http://hl7.eu/fhir/laboratory/StructureDefinition/Observation-resultslab-eu-lab"
          ]
        },
        "performer": [
          {
            "display": "The Central European Lab"
          }
        ],
        "category": [
          {
            "coding": [
              {
                "system": "http://terminology.hl7.org/CodeSystem/observation-category",
                "code": "laboratory"
              }
            ]
          }
        ],
        "code": {
          "coding": [
            {
              "code": "6298-4",
              "system": "http://loinc.org",
              "display": "Potassium [Moles/volume] in Blood"
            }
          ],
          "text": "Potassium [Moles/volume] in Blood"
        },
        "valueQuantity": {
          "system": "http://unitsofmeasure.org",
          "value": 4.2,
          "unit": "mmol/L",
          "code": "mmol/L"
        },
        "referenceRange": [
          {
            "low": {
              "value": 3.5,
              "code": "mmol/L",
              "system": "http://unitsofmeasure.org"
            }
          },
          {
            "high": {
              "value": 5.1,
              "code": "mmol/L",
              "system": "http://unitsofmeasure.org"
            }
          }
        ],
        "text": {
          "status": "generated",
          "div": "<div xmlns=\"http://www.w3.org/1999/xhtml\"><table class=\"hl7__eu__lab__report\"><tr><th>Test</th><th>09-Aug-2015</th><th>Reference&#xA0;Range</th><th>Unit</th></tr><tr><td>Potassium [Moles/volume] in Blood</td><td>4.2</td><td>3.5 - 5.1</td><td></td><td>mmol/L</td></tr></table></div>"
        },
        "status": "final",
        "subject": {
          "reference": "urn:uuid:aa507fc9-3585-4a94-8702-432b663c9fa9",
          "display": "Maria Nohlmans"
        },
        "effectiveDateTime": "2015-08-09T20:58:39Z",
        "specimen": {
          "reference": "urn:uuid:5627bb2c-b628-4ab5-bcd0-6d6042026482"
        }
      }
    },
    {
      "fullUrl": "urn:uuid:24223ae1-ab64-44e3-9662-5d6c36882d24",
      "resource": {
        "resourceType": "Observation",
        "id": "24223ae1-ab64-44e3-9662-5d6c36882d24",
        "meta": {
          "profile": [
            "http://hl7.eu/fhir/laboratory/StructureDefinition/Observation-resultslab-eu-lab"
          ]
        },
        "performer": [
          {
            "display": "The Central European Lab"
          }
        ],
        "category": [
          {
            "coding": [
              {
                "system": "http://terminology.hl7.org/CodeSystem/observation-category",
                "code": "laboratory"
              }
            ]
          }
        ],
        "code": {
          "coding": [
            {
              "code": "2069-3",
              "system": "http://loinc.org",
              "display": "Chloride [Moles/volume] in Blood"
            }
          ],
          "text": "Chloride [Moles/volume] in Blood"
        },
        "valueQuantity": {
          "system": "http://unitsofmeasure.org",
          "value": 109.5,
          "unit": "mmol/L",
          "code": "mmol/L"
        },
        "referenceRange": [
          {
            "low": {
              "value": 98,
              "code": "mmol/L",
              "system": "http://unitsofmeasure.org"
            }
          },
          {
            "high": {
              "value": 114,
              "code": "mmol/L",
              "system": "http://unitsofmeasure.org"
            }
          }
        ],
        "text": {
          "status": "generated",
          "div": "<div xmlns=\"http://www.w3.org/1999/xhtml\"><table class=\"hl7__eu__lab__report\"><tr><th>Test</th><th>09-Aug-2015</th><th>Reference&#xA0;Range</th><th>Unit</th></tr><tr><td>Chloride [Moles/volume] in Blood</td><td>109.5</td><td>98 - 114</td><td></td><td>mmol/L</td></tr></table></div>"
        },
        "status": "final",
        "subject": {
          "reference": "urn:uuid:aa507fc9-3585-4a94-8702-432b663c9fa9",
          "display": "Maria Nohlmans"
        },
        "effectiveDateTime": "2015-08-09T20:58:39Z",
        "specimen": {
          "reference": "urn:uuid:5627bb2c-b628-4ab5-bcd0-6d6042026482"
        }
      }
    },
    {
      "fullUrl": "urn:uuid:c6bd0f7d-477f-44b4-8c49-15de7085b150",
      "resource": {
        "resourceType": "Observation",
        "id": "c6bd0f7d-477f-44b4-8c49-15de7085b150",
        "meta": {
          "profile": [
            "http://hl7.eu/fhir/laboratory/StructureDefinition/Observation-resultslab-eu-lab"
          ]
        },
        "performer": [
          {
            "display": "The Central European Lab"
          }
        ],
        "category": [
          {
            "coding": [
              {
                "system": "http://terminology.hl7.org/CodeSystem/observation-category",
                "code": "laboratory"
              }
            ]
          }
        ],
        "code": {
          "coding": [
            {
              "code": "20565-8",
              "system": "http://loinc.org",
              "display": "Carbon dioxide, total [Moles/volume] in Blood"
            }
          ],
          "text": "Carbon dioxide, total [Moles/volume] in Blood"
        },
        "valueQuantity": {
          "system": "http://unitsofmeasure.org",
          "value": 20.1,
          "unit": "mmol/L",
          "code": "mmol/L"
        },
        "referenceRange": [
          {
            "low": {
              "value": 22,
              "code": "mmol/L",
              "system": "http://unitsofmeasure.org"
            }
          },
          {
            "high": {
              "value": 32,
              "code": "mmol/L",
              "system": "http://unitsofmeasure.org"
            }
          }
        ],
        "interpretation": [
          {
            "coding": [
              {
                "code": "L",
                "system": "http://terminology.hl7.org/CodeSystem/v3-ObservationInterpretation",
                "display": "Low"
              }
            ]
          }
        ],
        "text": {
          "status": "generated",
          "div": "<div xmlns=\"http://www.w3.org/1999/xhtml\"><table class=\"hl7__eu__lab__report\"><tr><th>Test</th><th>09-Aug-2015</th><th>Reference&#xA0;Range</th><th>Unit</th></tr><tr><td>Carbon dioxide, total [Moles/volume] in Blood</td><td>20.1</td><td>22 - 32</td><td>L</td><td>mmol/L</td></tr></table></div>"
        },
        "status": "final",
        "subject": {
          "reference": "urn:uuid:aa507fc9-3585-4a94-8702-432b663c9fa9",
          "display": "Maria Nohlmans"
        },
        "effectiveDateTime": "2015-08-09T20:58:39Z",
        "specimen": {
          "reference": "urn:uuid:5627bb2c-b628-4ab5-bcd0-6d6042026482"
        }
      }
    },
    {
      "fullUrl": "urn:uuid:5d8cb139-afb1-480d-aaa2-b4d07e936605",
      "resource": {
        "resourceType": "Observation",
        "id": "5d8cb139-afb1-480d-aaa2-b4d07e936605",
        "meta": {
          "profile": [
            "http://hl7.eu/fhir/laboratory/StructureDefinition/Observation-resultslab-eu-lab"
          ]
        },
        "performer": [
          {
            "display": "The Central European Lab"
          }
        ],
        "category": [
          {
            "coding": [
              {
                "system": "http://terminology.hl7.org/CodeSystem/observation-category",
                "code": "laboratory"
              }
            ]
          }
        ],
        "code": {
          "coding": [
            {
              "code": "2885-2",
              "system": "http://loinc.org",
              "display": "Protein [Mass/volume] in Serum or Plasma"
            }
          ],
          "text": "Protein [Mass/volume] in Serum or Plasma"
        },
        "valueQuantity": {
          "system": "http://unitsofmeasure.org",
          "value": 7.7,
          "unit": "g/dL",
          "code": "g/dL"
        },
        "referenceRange": [
          {
            "low": {
              "value": 6,
              "code": "g/dL",
              "system": "http://unitsofmeasure.org"
            }
          },
          {
            "high": {
              "value": 8.3,
              "code": "g/dL",
              "system": "http://unitsofmeasure.org"
            }
          }
        ],
        "text": {
          "status": "generated",
          "div": "<div xmlns=\"http://www.w3.org/1999/xhtml\"><table class=\"hl7__eu__lab__report\"><tr><th>Test</th><th>09-Aug-2015</th><th>Reference&#xA0;Range</th><th>Unit</th></tr><tr><td>Protein [Mass/volume] in Serum or Plasma</td><td>7.7</td><td>6 - 8.3</td><td></td><td>g/dL</td></tr></table></div>"
        },
        "status": "final",
        "subject": {
          "reference": "urn:uuid:aa507fc9-3585-4a94-8702-432b663c9fa9",
          "display": "Maria Nohlmans"
        },
        "effectiveDateTime": "2015-08-09T20:58:39Z",
        "specimen": {
          "reference": "urn:uuid:f3328593-3bab-4ea5-9511-f4e933fc8c52"
        }
      }
    },
    {
      "fullUrl": "urn:uuid:ee261f28-374e-4dc1-a44e-036c401146f4",
      "resource": {
        "resourceType": "Observation",
        "id": "ee261f28-374e-4dc1-a44e-036c401146f4",
        "meta": {
          "profile": [
            "http://hl7.eu/fhir/laboratory/StructureDefinition/Observation-resultslab-eu-lab"
          ]
        },
        "performer": [
          {
            "display": "The Central European Lab"
          }
        ],
        "category": [
          {
            "coding": [
              {
                "system": "http://terminology.hl7.org/CodeSystem/observation-category",
                "code": "laboratory"
              }
            ]
          }
        ],
        "code": {
          "coding": [
            {
              "code": "1751-7",
              "system": "http://loinc.org",
              "display": "Albumin [Mass/volume] in Serum or Plasma"
            }
          ],
          "text": "Albumin [Mass/volume] in Serum or Plasma"
        },
        "valueQuantity": {
          "system": "http://unitsofmeasure.org",
          "value": 3.7,
          "unit": "g/dL",
          "code": "g/dL"
        },
        "referenceRange": [
          {
            "low": {
              "value": 3.5,
              "code": "g/dL",
              "system": "http://unitsofmeasure.org"
            }
          },
          {
            "high": {
              "value": 5.5,
              "code": "g/dL",
              "system": "http://unitsofmeasure.org"
            }
          }
        ],
        "text": {
          "status": "generated",
          "div": "<div xmlns=\"http://www.w3.org/1999/xhtml\"><table class=\"hl7__eu__lab__report\"><tr><th>Test</th><th>09-Aug-2015</th><th>Reference&#xA0;Range</th><th>Unit</th></tr><tr><td>Albumin [Mass/volume] in Serum or Plasma</td><td>3.7</td><td>3.5 - 5.5</td><td></td><td>g/dL</td></tr></table></div>"
        },
        "status": "final",
        "subject": {
          "reference": "urn:uuid:aa507fc9-3585-4a94-8702-432b663c9fa9",
          "display": "Maria Nohlmans"
        },
        "effectiveDateTime": "2015-08-09T20:58:39Z",
        "specimen": {
          "reference": "urn:uuid:f3328593-3bab-4ea5-9511-f4e933fc8c52"
        }
      }
    },
    {
      "fullUrl": "urn:uuid:50a4978a-d29d-4fa7-9924-86fbee6dd6c0",
      "resource": {
        "resourceType": "Observation",
        "id": "50a4978a-d29d-4fa7-9924-86fbee6dd6c0",
        "meta": {
          "profile": [
            "http://hl7.eu/fhir/laboratory/StructureDefinition/Observation-resultslab-eu-lab"
          ]
        },
        "performer": [
          {
            "display": "The Central European Lab"
          }
        ],
        "category": [
          {
            "coding": [
              {
                "system": "http://terminology.hl7.org/CodeSystem/observation-category",
                "code": "laboratory"
              }
            ]
          }
        ],
        "code": {
          "coding": [
            {
              "code": "10834-0",
              "system": "http://loinc.org",
              "display": "Globulin [Mass/volume] in Serum by calculation"
            }
          ],
          "text": "Globulin [Mass/volume] in Serum by calculation"
        },
        "valueQuantity": {
          "system": "http://unitsofmeasure.org",
          "value": 3.1,
          "unit": "g/L",
          "code": "g/L"
        },
        "referenceRange": [
          {
            "low": {
              "value": 2,
              "code": "g/L",
              "system": "http://unitsofmeasure.org"
            }
          },
          {
            "high": {
              "value": 3.5,
              "code": "g/L",
              "system": "http://unitsofmeasure.org"
            }
          }
        ],
        "text": {
          "status": "generated",
          "div": "<div xmlns=\"http://www.w3.org/1999/xhtml\"><table class=\"hl7__eu__lab__report\"><tr><th>Test</th><th>09-Aug-2015</th><th>Reference&#xA0;Range</th><th>Unit</th></tr><tr><td>Globulin [Mass/volume] in Serum by calculation</td><td>3.1</td><td>2 - 3.5</td><td></td><td>g/L</td></tr></table></div>"
        },
        "status": "final",
        "subject": {
          "reference": "urn:uuid:aa507fc9-3585-4a94-8702-432b663c9fa9",
          "display": "Maria Nohlmans"
        },
        "effectiveDateTime": "2015-08-09T20:58:39Z",
        "specimen": {
          "reference": "urn:uuid:cc2ebeeb-3e45-432a-a903-b13e75e5d4c5"
        }
      }
    },
    {
      "fullUrl": "urn:uuid:f61aac58-56a5-49ce-8326-cc30cb214d2d",
      "resource": {
        "resourceType": "Observation",
        "id": "f61aac58-56a5-49ce-8326-cc30cb214d2d",
        "meta": {
          "profile": [
            "http://hl7.eu/fhir/laboratory/StructureDefinition/Observation-resultslab-eu-lab"
          ]
        },
        "performer": [
          {
            "display": "The Central European Lab"
          }
        ],
        "category": [
          {
            "coding": [
              {
                "system": "http://terminology.hl7.org/CodeSystem/observation-category",
                "code": "laboratory"
              }
            ]
          }
        ],
        "code": {
          "coding": [
            {
              "code": "1975-2",
              "system": "http://loinc.org",
              "display": "Bilirubin.total [Mass/volume] in Serum or Plasma"
            }
          ],
          "text": "Bilirubin.total [Mass/volume] in Serum or Plasma"
        },
        "valueQuantity": {
          "system": "http://unitsofmeasure.org",
          "value": 0.1,
          "unit": "mg/dL",
          "code": "mg/dL"
        },
        "referenceRange": [
          {
            "low": {
              "value": 0.3,
              "code": "mg/dL",
              "system": "http://unitsofmeasure.org"
            }
          },
          {
            "high": {
              "value": 1.2,
              "code": "mg/dL",
              "system": "http://unitsofmeasure.org"
            }
          }
        ],
        "interpretation": [
          {
            "coding": [
              {
                "code": "L",
                "system": "http://terminology.hl7.org/CodeSystem/v3-ObservationInterpretation",
                "display": "Low"
              }
            ]
          }
        ],
        "text": {
          "status": "generated",
          "div": "<div xmlns=\"http://www.w3.org/1999/xhtml\"><table class=\"hl7__eu__lab__report\"><tr><th>Test</th><th>09-Aug-2015</th><th>Reference&#xA0;Range</th><th>Unit</th></tr><tr><td>Bilirubin.total [Mass/volume] in Serum or Plasma</td><td>0.1</td><td>0.3 - 1.2</td><td>L</td><td>mg/dL</td></tr></table></div>"
        },
        "status": "final",
        "subject": {
          "reference": "urn:uuid:aa507fc9-3585-4a94-8702-432b663c9fa9",
          "display": "Maria Nohlmans"
        },
        "effectiveDateTime": "2015-08-09T20:58:39Z",
        "specimen": {
          "reference": "urn:uuid:f3328593-3bab-4ea5-9511-f4e933fc8c52"
        }
      }
    },
    {
      "fullUrl": "urn:uuid:ab6bc335-7304-4853-a5fb-60ecf092cff2",
      "resource": {
        "resourceType": "Observation",
        "id": "ab6bc335-7304-4853-a5fb-60ecf092cff2",
        "meta": {
          "profile": [
            "http://hl7.eu/fhir/laboratory/StructureDefinition/Observation-resultslab-eu-lab"
          ]
        },
        "performer": [
          {
            "display": "The Central European Lab"
          }
        ],
        "category": [
          {
            "coding": [
              {
                "system": "http://terminology.hl7.org/CodeSystem/observation-category",
                "code": "laboratory"
              }
            ]
          }
        ],
        "code": {
          "coding": [
            {
              "code": "6768-6",
              "system": "http://loinc.org",
              "display": "Alkaline phosphatase [Enzymatic activity/volume] in Serum or Plasma"
            }
          ],
          "text": "Alkaline phosphatase [Enzymatic activity/volume] in Serum or Plasma"
        },
        "valueQuantity": {
          "system": "http://unitsofmeasure.org",
          "value": 115.3,
          "unit": "U/L",
          "code": "U/L"
        },
        "referenceRange": [
          {
            "low": {
              "value": 44,
              "code": "U/L",
              "system": "http://unitsofmeasure.org"
            }
          },
          {
            "high": {
              "value": 142,
              "code": "U/L",
              "system": "http://unitsofmeasure.org"
            }
          }
        ],
        "text": {
          "status": "generated",
          "div": "<div xmlns=\"http://www.w3.org/1999/xhtml\"><table class=\"hl7__eu__lab__report\"><tr><th>Test</th><th>09-Aug-2015</th><th>Reference&#xA0;Range</th><th>Unit</th></tr><tr><td>Alkaline phosphatase [Enzymatic activity/volume] in Serum or Plasma</td><td>115.3</td><td>44 - 142</td><td></td><td>U/L</td></tr></table></div>"
        },
        "status": "final",
        "subject": {
          "reference": "urn:uuid:aa507fc9-3585-4a94-8702-432b663c9fa9",
          "display": "Maria Nohlmans"
        },
        "effectiveDateTime": "2015-08-09T20:58:39Z",
        "specimen": {
          "reference": "urn:uuid:f3328593-3bab-4ea5-9511-f4e933fc8c52"
        }
      }
    },
    {
      "fullUrl": "urn:uuid:7382cc16-debd-4e30-ad41-1131e6083d87",
      "resource": {
        "resourceType": "Observation",
        "id": "7382cc16-debd-4e30-ad41-1131e6083d87",
        "meta": {
          "profile": [
            "http://hl7.eu/fhir/laboratory/StructureDefinition/Observation-resultslab-eu-lab"
          ]
        },
        "performer": [
          {
            "display": "The Central European Lab"
          }
        ],
        "category": [
          {
            "coding": [
              {
                "system": "http://terminology.hl7.org/CodeSystem/observation-category",
                "code": "laboratory"
              }
            ]
          }
        ],
        "code": {
          "coding": [
            {
              "code": "1742-6",
              "system": "http://loinc.org",
              "display": "Alanine aminotransferase [Enzymatic activity/volume] in Serum or Plasma"
            }
          ],
          "text": "Alanine aminotransferase [Enzymatic activity/volume] in Serum or Plasma"
        },
        "valueQuantity": {
          "system": "http://unitsofmeasure.org",
          "value": 25.9,
          "unit": "U/L",
          "code": "U/L"
        },
        "referenceRange": [
          {
            "low": {
              "value": 7,
              "code": "U/L",
              "system": "http://unitsofmeasure.org"
            }
          },
          {
            "high": {
              "value": 40,
              "code": "U/L",
              "system": "http://unitsofmeasure.org"
            }
          }
        ],
        "text": {
          "status": "generated",
          "div": "<div xmlns=\"http://www.w3.org/1999/xhtml\"><table class=\"hl7__eu__lab__report\"><tr><th>Test</th><th>09-Aug-2015</th><th>Reference&#xA0;Range</th><th>Unit</th></tr><tr><td>Alanine aminotransferase [Enzymatic activity/volume] in Serum or Plasma</td><td>25.9</td><td>7 - 40</td><td></td><td>U/L</td></tr></table></div>"
        },
        "status": "final",
        "subject": {
          "reference": "urn:uuid:aa507fc9-3585-4a94-8702-432b663c9fa9",
          "display": "Maria Nohlmans"
        },
        "effectiveDateTime": "2015-08-09T20:58:39Z",
        "specimen": {
          "reference": "urn:uuid:f3328593-3bab-4ea5-9511-f4e933fc8c52"
        }
      }
    },
    {
      "fullUrl": "urn:uuid:8c72d4ce-b75f-4287-8133-4da62d9b9068",
      "resource": {
        "resourceType": "Observation",
        "id": "8c72d4ce-b75f-4287-8133-4da62d9b9068",
        "meta": {
          "profile": [
            "http://hl7.eu/fhir/laboratory/StructureDefinition/Observation-resultslab-eu-lab"
          ]
        },
        "performer": [
          {
            "display": "The Central European Lab"
          }
        ],
        "category": [
          {
            "coding": [
              {
                "system": "http://terminology.hl7.org/CodeSystem/observation-category",
                "code": "laboratory"
              }
            ]
          }
        ],
        "code": {
          "coding": [
            {
              "code": "1920-8",
              "system": "http://loinc.org",
              "display": "Aspartate aminotransferase [Enzymatic activity/volume] in Serum or Plasma"
            }
          ],
          "text": "Aspartate aminotransferase [Enzymatic activity/volume] in Serum or Plasma"
        },
        "valueQuantity": {
          "system": "http://unitsofmeasure.org",
          "value": 28.8,
          "unit": "U/L",
          "code": "U/L"
        },
        "referenceRange": [
          {
            "low": {
              "value": 10,
              "code": "U/L",
              "system": "http://unitsofmeasure.org"
            }
          },
          {
            "high": {
              "value": 40,
              "code": "U/L",
              "system": "http://unitsofmeasure.org"
            }
          }
        ],
        "text": {
          "status": "generated",
          "div": "<div xmlns=\"http://www.w3.org/1999/xhtml\"><table class=\"hl7__eu__lab__report\"><tr><th>Test</th><th>09-Aug-2015</th><th>Reference&#xA0;Range</th><th>Unit</th></tr><tr><td>Aspartate aminotransferase [Enzymatic activity/volume] in Serum or Plasma</td><td>28.8</td><td>10 - 40</td><td></td><td>U/L</td></tr></table></div>"
        },
        "status": "final",
        "subject": {
          "reference": "urn:uuid:aa507fc9-3585-4a94-8702-432b663c9fa9",
          "display": "Maria Nohlmans"
        },
        "effectiveDateTime": "2015-08-09T20:58:39Z",
        "specimen": {
          "reference": "urn:uuid:f3328593-3bab-4ea5-9511-f4e933fc8c52"
        }
      }
    },
    {
      "fullUrl": "urn:uuid:1af0f152-4dda-4dae-af5b-462c2d0a9476",
      "resource": {
        "resourceType": "Observation",
        "id": "1af0f152-4dda-4dae-af5b-462c2d0a9476",
        "meta": {
          "profile": [
            "http://hl7.eu/fhir/laboratory/StructureDefinition/Observation-resultslab-eu-lab"
          ]
        },
        "performer": [
          {
            "display": "The Central European Lab"
          }
        ],
        "category": [
          {
            "coding": [
              {
                "system": "http://terminology.hl7.org/CodeSystem/observation-category",
                "code": "laboratory"
              }
            ]
          }
        ],
        "code": {
          "coding": [
            {
              "code": "5767-9",
              "system": "http://loinc.org",
              "display": "Appearance of Urine"
            }
          ],
          "text": "Appearance of Urine"
        },
        "text": {
          "status": "generated",
          "div": "<div xmlns=\"http://www.w3.org/1999/xhtml\"><table class=\"hl7__eu__lab__report\"><tr><th>Test</th><th>09-Aug-2015</th><th>Reference&#xA0;Range</th><th>Unit</th></tr><tr><td>Appearance of Urine</td></tr></table></div>"
        },
        "status": "final",
        "subject": {
          "reference": "urn:uuid:aa507fc9-3585-4a94-8702-432b663c9fa9",
          "display": "Maria Nohlmans"
        },
        "effectiveDateTime": "2015-08-09T20:58:39Z",
        "specimen": {
          "reference": "urn:uuid:25f78af1-61c3-4949-a073-1ebaa0381172"
        }
      }
    },
    {
      "fullUrl": "urn:uuid:8fe8320a-0d7a-45e9-b85d-dec04fc02514",
      "resource": {
        "resourceType": "Observation",
        "id": "8fe8320a-0d7a-45e9-b85d-dec04fc02514",
        "meta": {
          "profile": [
            "http://hl7.eu/fhir/laboratory/StructureDefinition/Observation-resultslab-eu-lab"
          ]
        },
        "performer": [
          {
            "display": "The Central European Lab"
          }
        ],
        "category": [
          {
            "coding": [
              {
                "system": "http://terminology.hl7.org/CodeSystem/observation-category",
                "code": "laboratory"
              }
            ]
          }
        ],
        "code": {
          "coding": [
            {
              "code": "34533-0",
              "system": "http://loinc.org",
              "display": "Odor of Urine"
            }
          ],
          "text": "Odor of Urine"
        },
        "text": {
          "status": "generated",
          "div": "<div xmlns=\"http://www.w3.org/1999/xhtml\"><table class=\"hl7__eu__lab__report\"><tr><th>Test</th><th>09-Aug-2015</th><th>Reference&#xA0;Range</th><th>Unit</th></tr><tr><td>Odor of Urine</td></tr></table></div>"
        },
        "status": "final",
        "subject": {
          "reference": "urn:uuid:aa507fc9-3585-4a94-8702-432b663c9fa9",
          "display": "Maria Nohlmans"
        },
        "effectiveDateTime": "2015-08-09T20:58:39Z",
        "specimen": {
          "reference": "urn:uuid:25f78af1-61c3-4949-a073-1ebaa0381172"
        }
      }
    },
    {
      "fullUrl": "urn:uuid:7fafbced-3dd9-4578-988a-8e26dfdcbae0",
      "resource": {
        "resourceType": "Observation",
        "id": "7fafbced-3dd9-4578-988a-8e26dfdcbae0",
        "meta": {
          "profile": [
            "http://hl7.eu/fhir/laboratory/StructureDefinition/Observation-resultslab-eu-lab"
          ]
        },
        "performer": [
          {
            "display": "The Central European Lab"
          }
        ],
        "category": [
          {
            "coding": [
              {
                "system": "http://terminology.hl7.org/CodeSystem/observation-category",
                "code": "laboratory"
              }
            ]
          }
        ],
        "code": {
          "coding": [
            {
              "code": "32167-9",
              "system": "http://loinc.org",
              "display": "Clarity of Urine"
            }
          ],
          "text": "Clarity of Urine"
        },
        "text": {
          "status": "generated",
          "div": "<div xmlns=\"http://www.w3.org/1999/xhtml\"><table class=\"hl7__eu__lab__report\"><tr><th>Test</th><th>09-Aug-2015</th><th>Reference&#xA0;Range</th><th>Unit</th></tr><tr><td>Clarity of Urine</td></tr></table></div>"
        },
        "status": "final",
        "subject": {
          "reference": "urn:uuid:aa507fc9-3585-4a94-8702-432b663c9fa9",
          "display": "Maria Nohlmans"
        },
        "effectiveDateTime": "2015-08-09T20:58:39Z",
        "specimen": {
          "reference": "urn:uuid:25f78af1-61c3-4949-a073-1ebaa0381172"
        }
      }
    },
    {
      "fullUrl": "urn:uuid:0cf9f715-8546-4178-9792-bbb251d3d9cf",
      "resource": {
        "resourceType": "Observation",
        "id": "0cf9f715-8546-4178-9792-bbb251d3d9cf",
        "meta": {
          "profile": [
            "http://hl7.eu/fhir/laboratory/StructureDefinition/Observation-resultslab-eu-lab"
          ]
        },
        "performer": [
          {
            "display": "The Central European Lab"
          }
        ],
        "category": [
          {
            "coding": [
              {
                "system": "http://terminology.hl7.org/CodeSystem/observation-category",
                "code": "laboratory"
              }
            ]
          }
        ],
        "code": {
          "coding": [
            {
              "code": "5778-6",
              "system": "http://loinc.org",
              "display": "Color of Urine"
            }
          ],
          "text": "Color of Urine"
        },
        "text": {
          "status": "generated",
          "div": "<div xmlns=\"http://www.w3.org/1999/xhtml\"><table class=\"hl7__eu__lab__report\"><tr><th>Test</th><th>09-Aug-2015</th><th>Reference&#xA0;Range</th><th>Unit</th></tr><tr><td>Color of Urine</td></tr></table></div>"
        },
        "status": "final",
        "subject": {
          "reference": "urn:uuid:aa507fc9-3585-4a94-8702-432b663c9fa9",
          "display": "Maria Nohlmans"
        },
        "effectiveDateTime": "2015-08-09T20:58:39Z",
        "specimen": {
          "reference": "urn:uuid:25f78af1-61c3-4949-a073-1ebaa0381172"
        }
      }
    },
    {
      "fullUrl": "urn:uuid:58d26f58-73c2-4cbb-8429-056b06f68bd4",
      "resource": {
        "resourceType": "Observation",
        "id": "58d26f58-73c2-4cbb-8429-056b06f68bd4",
        "meta": {
          "profile": [
            "http://hl7.eu/fhir/laboratory/StructureDefinition/Observation-resultslab-eu-lab"
          ]
        },
        "performer": [
          {
            "display": "The Central European Lab"
          }
        ],
        "category": [
          {
            "coding": [
              {
                "system": "http://terminology.hl7.org/CodeSystem/observation-category",
                "code": "laboratory"
              }
            ]
          }
        ],
        "code": {
          "coding": [
            {
              "code": "5792-7",
              "system": "http://loinc.org",
              "display": "Glucose [Mass/volume] in Urine by Test strip"
            }
          ],
          "text": "Glucose [Mass/volume] in Urine by Test strip"
        },
        "valueQuantity": {
          "system": "http://unitsofmeasure.org",
          "value": 1.6,
          "unit": "mg/dL",
          "code": "mg/dL"
        },
        "referenceRange": [
          {
            "low": {
              "value": 0.8,
              "code": "mg/dL",
              "system": "http://unitsofmeasure.org"
            }
          },
          {
            "high": {
              "value": 0,
              "code": "mg/dL",
              "system": "http://unitsofmeasure.org"
            }
          }
        ],
        "interpretation": [
          {
            "coding": [
              {
                "code": "H",
                "system": "http://terminology.hl7.org/CodeSystem/v3-ObservationInterpretation",
                "display": "High"
              }
            ]
          }
        ],
        "text": {
          "status": "generated",
          "div": "<div xmlns=\"http://www.w3.org/1999/xhtml\"><table class=\"hl7__eu__lab__report\"><tr><th>Test</th><th>09-Aug-2015</th><th>Reference&#xA0;Range</th><th>Unit</th></tr><tr><td>Glucose [Mass/volume] in Urine by Test strip</td><td>1.6</td><td>0.8 - 0</td><td>H</td><td>mg/dL</td></tr></table></div>"
        },
        "status": "final",
        "subject": {
          "reference": "urn:uuid:aa507fc9-3585-4a94-8702-432b663c9fa9",
          "display": "Maria Nohlmans"
        },
        "effectiveDateTime": "2015-08-09T20:58:39Z",
        "specimen": {
          "reference": "urn:uuid:25f78af1-61c3-4949-a073-1ebaa0381172"
        }
      }
    },
    {
      "fullUrl": "urn:uuid:ab58a8b5-f8ee-45d9-b787-3edf17c8b4b0",
      "resource": {
        "resourceType": "Observation",
        "id": "ab58a8b5-f8ee-45d9-b787-3edf17c8b4b0",
        "meta": {
          "profile": [
            "http://hl7.eu/fhir/laboratory/StructureDefinition/Observation-resultslab-eu-lab"
          ]
        },
        "performer": [
          {
            "display": "The Central European Lab"
          }
        ],
        "category": [
          {
            "coding": [
              {
                "system": "http://terminology.hl7.org/CodeSystem/observation-category",
                "code": "laboratory"
              }
            ]
          }
        ],
        "code": {
          "coding": [
            {
              "code": "25428-4",
              "system": "http://loinc.org",
              "display": "Glucose [Presence] in Urine by Test strip"
            }
          ],
          "text": "Glucose [Presence] in Urine by Test strip"
        },
        "text": {
          "status": "generated",
          "div": "<div xmlns=\"http://www.w3.org/1999/xhtml\"><table class=\"hl7__eu__lab__report\"><tr><th>Test</th><th>09-Aug-2015</th><th>Reference&#xA0;Range</th><th>Unit</th></tr><tr><td>Glucose [Presence] in Urine by Test strip</td></tr></table></div>"
        },
        "status": "final",
        "subject": {
          "reference": "urn:uuid:aa507fc9-3585-4a94-8702-432b663c9fa9",
          "display": "Maria Nohlmans"
        },
        "effectiveDateTime": "2015-08-09T20:58:39Z",
        "specimen": {
          "reference": "urn:uuid:25f78af1-61c3-4949-a073-1ebaa0381172"
        }
      }
    },
    {
      "fullUrl": "urn:uuid:5533fff3-f3f5-4505-8c04-f4a3f6e06c33",
      "resource": {
        "resourceType": "Observation",
        "id": "5533fff3-f3f5-4505-8c04-f4a3f6e06c33",
        "meta": {
          "profile": [
            "http://hl7.eu/fhir/laboratory/StructureDefinition/Observation-resultslab-eu-lab"
          ]
        },
        "performer": [
          {
            "display": "The Central European Lab"
          }
        ],
        "category": [
          {
            "coding": [
              {
                "system": "http://terminology.hl7.org/CodeSystem/observation-category",
                "code": "laboratory"
              }
            ]
          }
        ],
        "code": {
          "coding": [
            {
              "code": "20505-4",
              "system": "http://loinc.org",
              "display": "Bilirubin.total [Mass/volume] in Urine by Test strip"
            }
          ],
          "text": "Bilirubin.total [Mass/volume] in Urine by Test strip"
        },
        "valueQuantity": {
          "system": "http://unitsofmeasure.org",
          "value": 1.1,
          "unit": "mg/dL",
          "code": "mg/dL"
        },
        "referenceRange": [
          {
            "low": {
              "value": 0,
              "code": "mg/dL",
              "system": "http://unitsofmeasure.org"
            }
          },
          {
            "high": {
              "value": 1.5,
              "code": "mg/dL",
              "system": "http://unitsofmeasure.org"
            }
          }
        ],
        "text": {
          "status": "generated",
          "div": "<div xmlns=\"http://www.w3.org/1999/xhtml\"><table class=\"hl7__eu__lab__report\"><tr><th>Test</th><th>09-Aug-2015</th><th>Reference&#xA0;Range</th><th>Unit</th></tr><tr><td>Bilirubin.total [Mass/volume] in Urine by Test strip</td><td>1.1</td><td>0 - 1.5</td><td></td><td>mg/dL</td></tr></table></div>"
        },
        "status": "final",
        "subject": {
          "reference": "urn:uuid:aa507fc9-3585-4a94-8702-432b663c9fa9",
          "display": "Maria Nohlmans"
        },
        "effectiveDateTime": "2015-08-09T20:58:39Z",
        "specimen": {
          "reference": "urn:uuid:25f78af1-61c3-4949-a073-1ebaa0381172"
        }
      }
    },
    {
      "fullUrl": "urn:uuid:c51c66fd-c9f9-4a49-8849-3b5a609cca76",
      "resource": {
        "resourceType": "Observation",
        "id": "c51c66fd-c9f9-4a49-8849-3b5a609cca76",
        "meta": {
          "profile": [
            "http://hl7.eu/fhir/laboratory/StructureDefinition/Observation-resultslab-eu-lab"
          ]
        },
        "performer": [
          {
            "display": "The Central European Lab"
          }
        ],
        "category": [
          {
            "coding": [
              {
                "system": "http://terminology.hl7.org/CodeSystem/observation-category",
                "code": "laboratory"
              }
            ]
          }
        ],
        "code": {
          "coding": [
            {
              "code": "5770-3",
              "system": "http://loinc.org",
              "display": "Bilirubin.total [Presence] in Urine by Test strip"
            }
          ],
          "text": "Bilirubin.total [Presence] in Urine by Test strip"
        },
        "text": {
          "status": "generated",
          "div": "<div xmlns=\"http://www.w3.org/1999/xhtml\"><table class=\"hl7__eu__lab__report\"><tr><th>Test</th><th>09-Aug-2015</th><th>Reference&#xA0;Range</th><th>Unit</th></tr><tr><td>Bilirubin.total [Presence] in Urine by Test strip</td></tr></table></div>"
        },
        "status": "final",
        "subject": {
          "reference": "urn:uuid:aa507fc9-3585-4a94-8702-432b663c9fa9",
          "display": "Maria Nohlmans"
        },
        "effectiveDateTime": "2015-08-09T20:58:39Z",
        "specimen": {
          "reference": "urn:uuid:25f78af1-61c3-4949-a073-1ebaa0381172"
        }
      }
    },
    {
      "fullUrl": "urn:uuid:76ee7b10-3916-4a13-ae3e-29a0f59505b7",
      "resource": {
        "resourceType": "Observation",
        "id": "76ee7b10-3916-4a13-ae3e-29a0f59505b7",
        "meta": {
          "profile": [
            "http://hl7.eu/fhir/laboratory/StructureDefinition/Observation-resultslab-eu-lab"
          ]
        },
        "performer": [
          {
            "display": "The Central European Lab"
          }
        ],
        "category": [
          {
            "coding": [
              {
                "system": "http://terminology.hl7.org/CodeSystem/observation-category",
                "code": "laboratory"
              }
            ]
          }
        ],
        "code": {
          "coding": [
            {
              "code": "5797-6",
              "system": "http://loinc.org",
              "display": "Ketones [Mass/volume] in Urine by Test strip"
            }
          ],
          "text": "Ketones [Mass/volume] in Urine by Test strip"
        },
        "valueQuantity": {
          "system": "http://unitsofmeasure.org",
          "value": 10.4,
          "unit": "mg/dL",
          "code": "mg/dL"
        },
        "referenceRange": [
          {
            "low": {
              "value": 0,
              "code": "mg/dL",
              "system": "http://unitsofmeasure.org"
            }
          },
          {
            "high": {
              "value": 8,
              "code": "mg/dL",
              "system": "http://unitsofmeasure.org"
            }
          }
        ],
        "interpretation": [
          {
            "coding": [
              {
                "code": "H",
                "system": "http://terminology.hl7.org/CodeSystem/v3-ObservationInterpretation",
                "display": "High"
              }
            ]
          }
        ],
        "text": {
          "status": "generated",
          "div": "<div xmlns=\"http://www.w3.org/1999/xhtml\"><table class=\"hl7__eu__lab__report\"><tr><th>Test</th><th>09-Aug-2015</th><th>Reference&#xA0;Range</th><th>Unit</th></tr><tr><td>Ketones [Mass/volume] in Urine by Test strip</td><td>10.4</td><td>0 - 8</td><td>H</td><td>mg/dL</td></tr></table></div>"
        },
        "status": "final",
        "subject": {
          "reference": "urn:uuid:aa507fc9-3585-4a94-8702-432b663c9fa9",
          "display": "Maria Nohlmans"
        },
        "effectiveDateTime": "2015-08-09T20:58:39Z",
        "specimen": {
          "reference": "urn:uuid:25f78af1-61c3-4949-a073-1ebaa0381172"
        }
      }
    },
    {
      "fullUrl": "urn:uuid:3613ab8a-0407-4f7c-9055-c7713e2d688a",
      "resource": {
        "resourceType": "Observation",
        "id": "3613ab8a-0407-4f7c-9055-c7713e2d688a",
        "meta": {
          "profile": [
            "http://hl7.eu/fhir/laboratory/StructureDefinition/Observation-resultslab-eu-lab"
          ]
        },
        "performer": [
          {
            "display": "The Central European Lab"
          }
        ],
        "category": [
          {
            "coding": [
              {
                "system": "http://terminology.hl7.org/CodeSystem/observation-category",
                "code": "laboratory"
              }
            ]
          }
        ],
        "code": {
          "coding": [
            {
              "code": "2514-8",
              "system": "http://loinc.org",
              "display": "Ketones [Presence] in Urine by Test strip"
            }
          ],
          "text": "Ketones [Presence] in Urine by Test strip"
        },
        "text": {
          "status": "generated",
          "div": "<div xmlns=\"http://www.w3.org/1999/xhtml\"><table class=\"hl7__eu__lab__report\"><tr><th>Test</th><th>09-Aug-2015</th><th>Reference&#xA0;Range</th><th>Unit</th></tr><tr><td>Ketones [Presence] in Urine by Test strip</td></tr></table></div>"
        },
        "status": "final",
        "subject": {
          "reference": "urn:uuid:aa507fc9-3585-4a94-8702-432b663c9fa9",
          "display": "Maria Nohlmans"
        },
        "effectiveDateTime": "2015-08-09T20:58:39Z",
        "specimen": {
          "reference": "urn:uuid:25f78af1-61c3-4949-a073-1ebaa0381172"
        }
      }
    },
    {
      "fullUrl": "urn:uuid:e862f9f6-7d7d-426f-b0c8-7d1e05815651",
      "resource": {
        "resourceType": "Observation",
        "id": "e862f9f6-7d7d-426f-b0c8-7d1e05815651",
        "meta": {
          "profile": [
            "http://hl7.eu/fhir/laboratory/StructureDefinition/Observation-resultslab-eu-lab"
          ]
        },
        "performer": [
          {
            "display": "The Central European Lab"
          }
        ],
        "category": [
          {
            "coding": [
              {
                "system": "http://terminology.hl7.org/CodeSystem/observation-category",
                "code": "laboratory"
              }
            ]
          }
        ],
        "code": {
          "coding": [
            {
              "code": "5811-5",
              "system": "http://loinc.org",
              "display": "Specific gravity of Urine by Test strip"
            }
          ],
          "text": "Specific gravity of Urine by Test strip"
        },
        "valueQuantity": {
          "system": "http://unitsofmeasure.org",
          "value": 1,
          "unit": "{nominal}",
          "code": "{nominal}"
        },
        "referenceRange": [
          {
            "low": {
              "value": 1.01,
              "code": "g/mL",
              "system": "http://unitsofmeasure.org"
            }
          },
          {
            "high": {
              "value": 1.03,
              "code": "g/mL",
              "system": "http://unitsofmeasure.org"
            }
          }
        ],
        "interpretation": [
          {
            "coding": [
              {
                "code": "L",
                "system": "http://terminology.hl7.org/CodeSystem/v3-ObservationInterpretation",
                "display": "Low"
              }
            ]
          }
        ],
        "text": {
          "status": "generated",
          "div": "<div xmlns=\"http://www.w3.org/1999/xhtml\"><table class=\"hl7__eu__lab__report\"><tr><th>Test</th><th>09-Aug-2015</th><th>Reference&#xA0;Range</th><th>Unit</th></tr><tr><td>Specific gravity of Urine by Test strip</td><td>1.0</td><td>1.01 - 1.03</td><td>L</td><td>{nominal}</td></tr></table></div>"
        },
        "status": "final",
        "subject": {
          "reference": "urn:uuid:aa507fc9-3585-4a94-8702-432b663c9fa9",
          "display": "Maria Nohlmans"
        },
        "effectiveDateTime": "2015-08-09T20:58:39Z",
        "specimen": {
          "reference": "urn:uuid:25f78af1-61c3-4949-a073-1ebaa0381172"
        }
      }
    },
    {
      "fullUrl": "urn:uuid:49953896-ddcf-4e3c-bb88-eb6c4dfb5ff1",
      "resource": {
        "resourceType": "Observation",
        "id": "49953896-ddcf-4e3c-bb88-eb6c4dfb5ff1",
        "meta": {
          "profile": [
            "http://hl7.eu/fhir/laboratory/StructureDefinition/Observation-resultslab-eu-lab"
          ]
        },
        "performer": [
          {
            "display": "The Central European Lab"
          }
        ],
        "category": [
          {
            "coding": [
              {
                "system": "http://terminology.hl7.org/CodeSystem/observation-category",
                "code": "laboratory"
              }
            ]
          }
        ],
        "code": {
          "coding": [
            {
              "code": "5803-2",
              "system": "http://loinc.org",
              "display": "pH of Urine by Test strip"
            }
          ],
          "text": "pH of Urine by Test strip"
        },
        "valueQuantity": {
          "system": "http://unitsofmeasure.org",
          "value": 5.1,
          "unit": "pH",
          "code": "pH"
        },
        "referenceRange": [
          {
            "low": {
              "value": 4.6,
              "code": "pH",
              "system": "http://unitsofmeasure.org"
            }
          },
          {
            "high": {
              "value": 7.5,
              "code": "pH",
              "system": "http://unitsofmeasure.org"
            }
          }
        ],
        "text": {
          "status": "generated",
          "div": "<div xmlns=\"http://www.w3.org/1999/xhtml\"><table class=\"hl7__eu__lab__report\"><tr><th>Test</th><th>09-Aug-2015</th><th>Reference&#xA0;Range</th><th>Unit</th></tr><tr><td>pH of Urine by Test strip</td><td>5.1</td><td>4.6 - 7.5</td><td></td><td>pH</td></tr></table></div>"
        },
        "status": "final",
        "subject": {
          "reference": "urn:uuid:aa507fc9-3585-4a94-8702-432b663c9fa9",
          "display": "Maria Nohlmans"
        },
        "effectiveDateTime": "2015-08-09T20:58:39Z",
        "specimen": {
          "reference": "urn:uuid:25f78af1-61c3-4949-a073-1ebaa0381172"
        }
      }
    },
    {
      "fullUrl": "urn:uuid:528c3afe-9719-46d1-884f-b970594e3617",
      "resource": {
        "resourceType": "Observation",
        "id": "528c3afe-9719-46d1-884f-b970594e3617",
        "meta": {
          "profile": [
            "http://hl7.eu/fhir/laboratory/StructureDefinition/Observation-resultslab-eu-lab"
          ]
        },
        "performer": [
          {
            "display": "The Central European Lab"
          }
        ],
        "category": [
          {
            "coding": [
              {
                "system": "http://terminology.hl7.org/CodeSystem/observation-category",
                "code": "laboratory"
              }
            ]
          }
        ],
        "code": {
          "coding": [
            {
              "code": "5804-0",
              "system": "http://loinc.org",
              "display": "Protein [Mass/volume] in Urine by Test strip"
            }
          ],
          "text": "Protein [Mass/volume] in Urine by Test strip"
        },
        "valueQuantity": {
          "system": "http://unitsofmeasure.org",
          "value": 426.7,
          "unit": "mg/dL",
          "code": "mg/dL"
        },
        "referenceRange": [
          {
            "low": {
              "value": 0,
              "code": "mg/dL",
              "system": "http://unitsofmeasure.org"
            }
          },
          {
            "high": {
              "value": 14,
              "code": "mg/dL",
              "system": "http://unitsofmeasure.org"
            }
          }
        ],
        "interpretation": [
          {
            "coding": [
              {
                "code": "H",
                "system": "http://terminology.hl7.org/CodeSystem/v3-ObservationInterpretation",
                "display": "High"
              }
            ]
          }
        ],
        "text": {
          "status": "generated",
          "div": "<div xmlns=\"http://www.w3.org/1999/xhtml\"><table class=\"hl7__eu__lab__report\"><tr><th>Test</th><th>09-Aug-2015</th><th>Reference&#xA0;Range</th><th>Unit</th></tr><tr><td>Protein [Mass/volume] in Urine by Test strip</td><td>426.7</td><td>0 - 14</td><td>H</td><td>mg/dL</td></tr></table></div>"
        },
        "status": "final",
        "subject": {
          "reference": "urn:uuid:aa507fc9-3585-4a94-8702-432b663c9fa9",
          "display": "Maria Nohlmans"
        },
        "effectiveDateTime": "2015-08-09T20:58:39Z",
        "specimen": {
          "reference": "urn:uuid:25f78af1-61c3-4949-a073-1ebaa0381172"
        }
      }
    },
    {
      "fullUrl": "urn:uuid:a1fac87b-9db5-4582-b3d3-a78fa2c37825",
      "resource": {
        "resourceType": "Observation",
        "id": "a1fac87b-9db5-4582-b3d3-a78fa2c37825",
        "meta": {
          "profile": [
            "http://hl7.eu/fhir/laboratory/StructureDefinition/Observation-resultslab-eu-lab"
          ]
        },
        "performer": [
          {
            "display": "The Central European Lab"
          }
        ],
        "category": [
          {
            "coding": [
              {
                "system": "http://terminology.hl7.org/CodeSystem/observation-category",
                "code": "laboratory"
              }
            ]
          }
        ],
        "code": {
          "coding": [
            {
              "code": "20454-5",
              "system": "http://loinc.org",
              "display": "Protein [Presence] in Urine by Test strip"
            }
          ],
          "text": "Protein [Presence] in Urine by Test strip"
        },
        "text": {
          "status": "generated",
          "div": "<div xmlns=\"http://www.w3.org/1999/xhtml\"><table class=\"hl7__eu__lab__report\"><tr><th>Test</th><th>09-Aug-2015</th><th>Reference&#xA0;Range</th><th>Unit</th></tr><tr><td>Protein [Presence] in Urine by Test strip</td></tr></table></div>"
        },
        "status": "final",
        "subject": {
          "reference": "urn:uuid:aa507fc9-3585-4a94-8702-432b663c9fa9",
          "display": "Maria Nohlmans"
        },
        "effectiveDateTime": "2015-08-09T20:58:39Z",
        "specimen": {
          "reference": "urn:uuid:25f78af1-61c3-4949-a073-1ebaa0381172"
        }
      }
    },
    {
      "fullUrl": "urn:uuid:e61ce861-4381-46a0-abae-ca702b235b4d",
      "resource": {
        "resourceType": "Observation",
        "id": "e61ce861-4381-46a0-abae-ca702b235b4d",
        "meta": {
          "profile": [
            "http://hl7.eu/fhir/laboratory/StructureDefinition/Observation-resultslab-eu-lab"
          ]
        },
        "performer": [
          {
            "display": "The Central European Lab"
          }
        ],
        "category": [
          {
            "coding": [
              {
                "system": "http://terminology.hl7.org/CodeSystem/observation-category",
                "code": "laboratory"
              }
            ]
          }
        ],
        "code": {
          "coding": [
            {
              "code": "5802-4",
              "system": "http://loinc.org",
              "display": "Nitrite [Presence] in Urine by Test strip"
            }
          ],
          "text": "Nitrite [Presence] in Urine by Test strip"
        },
        "text": {
          "status": "generated",
          "div": "<div xmlns=\"http://www.w3.org/1999/xhtml\"><table class=\"hl7__eu__lab__report\"><tr><th>Test</th><th>09-Aug-2015</th><th>Reference&#xA0;Range</th><th>Unit</th></tr><tr><td>Nitrite [Presence] in Urine by Test strip</td></tr></table></div>"
        },
        "status": "final",
        "subject": {
          "reference": "urn:uuid:aa507fc9-3585-4a94-8702-432b663c9fa9",
          "display": "Maria Nohlmans"
        },
        "effectiveDateTime": "2015-08-09T20:58:39Z",
        "specimen": {
          "reference": "urn:uuid:25f78af1-61c3-4949-a073-1ebaa0381172"
        }
      }
    },
    {
      "fullUrl": "urn:uuid:66c6810c-c845-488c-854f-549fa56c7ea1",
      "resource": {
        "resourceType": "Observation",
        "id": "66c6810c-c845-488c-854f-549fa56c7ea1",
        "meta": {
          "profile": [
            "http://hl7.eu/fhir/laboratory/StructureDefinition/Observation-resultslab-eu-lab"
          ]
        },
        "performer": [
          {
            "display": "The Central European Lab"
          }
        ],
        "category": [
          {
            "coding": [
              {
                "system": "http://terminology.hl7.org/CodeSystem/observation-category",
                "code": "laboratory"
              }
            ]
          }
        ],
        "code": {
          "coding": [
            {
              "code": "5794-3",
              "system": "http://loinc.org",
              "display": "Hemoglobin [Presence] in Urine by Test strip"
            }
          ],
          "text": "Hemoglobin [Presence] in Urine by Test strip"
        },
        "text": {
          "status": "generated",
          "div": "<div xmlns=\"http://www.w3.org/1999/xhtml\"><table class=\"hl7__eu__lab__report\"><tr><th>Test</th><th>09-Aug-2015</th><th>Reference&#xA0;Range</th><th>Unit</th></tr><tr><td>Hemoglobin [Presence] in Urine by Test strip</td></tr></table></div>"
        },
        "status": "final",
        "subject": {
          "reference": "urn:uuid:aa507fc9-3585-4a94-8702-432b663c9fa9",
          "display": "Maria Nohlmans"
        },
        "effectiveDateTime": "2015-08-09T20:58:39Z",
        "specimen": {
          "reference": "urn:uuid:25f78af1-61c3-4949-a073-1ebaa0381172"
        }
      }
    },
    {
      "fullUrl": "urn:uuid:f0708331-5cff-4f0d-9018-ef076981e63f",
      "resource": {
        "resourceType": "Observation",
        "id": "f0708331-5cff-4f0d-9018-ef076981e63f",
        "meta": {
          "profile": [
            "http://hl7.eu/fhir/laboratory/StructureDefinition/Observation-resultslab-eu-lab"
          ]
        },
        "performer": [
          {
            "display": "The Central European Lab"
          }
        ],
        "category": [
          {
            "coding": [
              {
                "system": "http://terminology.hl7.org/CodeSystem/observation-category",
                "code": "laboratory"
              }
            ]
          }
        ],
        "code": {
          "coding": [
            {
              "code": "5799-2",
              "system": "http://loinc.org",
              "display": "Leukocyte esterase [Presence] in Urine by Test strip"
            }
          ],
          "text": "Leukocyte esterase [Presence] in Urine by Test strip"
        },
        "text": {
          "status": "generated",
          "div": "<div xmlns=\"http://www.w3.org/1999/xhtml\"><table class=\"hl7__eu__lab__report\"><tr><th>Test</th><th>09-Aug-2015</th><th>Reference&#xA0;Range</th><th>Unit</th></tr><tr><td>Leukocyte esterase [Presence] in Urine by Test strip</td></tr></table></div>"
        },
        "status": "final",
        "subject": {
          "reference": "urn:uuid:aa507fc9-3585-4a94-8702-432b663c9fa9",
          "display": "Maria Nohlmans"
        },
        "effectiveDateTime": "2015-08-09T20:58:39Z",
        "specimen": {
          "reference": "urn:uuid:25f78af1-61c3-4949-a073-1ebaa0381172"
        }
      }
    },
    {
      "fullUrl": "urn:uuid:de3a1067-4888-4e46-9c9f-824468630898",
      "resource": {
        "resourceType": "Device",
        "id": "de3a1067-4888-4e46-9c9f-824468630898",
        "deviceName": [
          {
            "name": "SYNDERAI Synthetic Generator",
            "type": "manufacturer-name"
          }
        ],
        "version": [
          {
            "value": "5.0"
          }
        ],
        "text": {
          "status": "generated",
          "div": "<div xmlns=\"http://www.w3.org/1999/xhtml\">SYNDERAI Synthetic Generator v5.0</div>"
        },
        "status": "active\"",
        "distinctIdentifier": "synderai-generator-50",
        "manufacturer": "SYNDERAI Project"
      }
    },
    {
      "fullUrl": "urn:uuid:4ecd9fef-38ec-46e3-bd92-9c039bfb874d",
      "resource": {
        "resourceType": "Provenance",
        "id": "4ecd9fef-38ec-46e3-bd92-9c039bfb874d",
        "target": [
          {
            "reference": "Patient/aa507fc9-3585-4a94-8702-432b663c9fa9"
          },
          {
            "reference": "Bundle/52403e6b-266c-4b1b-9304-1c7e6a19ebfe"
          },
          {
            "reference": "Composition/0471fd21-347d-4dd3-9af1-424ddd95d444"
          },
          {
            "reference": "PractitionerRole/1a4b8720-c3d7-4912-b3c2-10ae927d50ab"
          },
          {
            "reference": "Practitioner/4991bdb3-24c2-4781-a5b6-7639acefefea"
          },
          {
            "reference": "PractitionerRole/29b9abb4-05d6-4923-8233-3e2af87423d1"
          },
          {
            "reference": "Organization/5d49de68-4199-486d-b532-d523f0cc3d28"
          }
        ],
        "activity": {
          "text": "Synthetic Example Data Generation"
        },
        "policy": [
          "https://synderai.net/synderai-synthetic-data-policy"
        ],
        "agent": [
          {
            "type": {
              "text": "author"
            },
            "who": {
              "reference": "Device/de3a1067-4888-4e46-9c9f-824468630898"
            }
          }
        ],
        "reason": [
          {
            "text": "Interoperability Testing and Training (non-clinical use)"
          }
        ],
        "text": {
          "status": "generated",
          "div": "<div xmlns=\"http://www.w3.org/1999/xhtml\">Provenance for SYNDERAI Synthetic Example Data Resource</div>"
        },
        "recorded": "2015-08-09T22:58:39Z"
      }
    },
    {
      "fullUrl": "urn:uuid:1a4b8720-c3d7-4912-b3c2-10ae927d50ab",
      "resource": {
        "resourceType": "PractitionerRole",
        "id": "1a4b8720-c3d7-4912-b3c2-10ae927d50ab",
        "meta": {
          "profile": [
            "http://hl7.eu/fhir/base/StructureDefinition/practitionerRole-eu"
          ]
        },
        "text": {
          "status": "generated",
          "div": "<div xmlns=\"http://www.w3.org/1999/xhtml\">Laboratory Role Id: 1a4b8720-c3d7-4912-b3c2-10ae927d50ab</div>"
        },
        "practitioner": {
          "reference": "urn:uuid:4991bdb3-24c2-4781-a5b6-7639acefefea"
        }
      }
    },
    {
      "fullUrl": "urn:uuid:4991bdb3-24c2-4781-a5b6-7639acefefea",
      "resource": {
        "resourceType": "Practitioner",
        "id": "4991bdb3-24c2-4781-a5b6-7639acefefea",
        "meta": {
          "profile": [
            "http://hl7.eu/fhir/base/StructureDefinition/practitioner-eu"
          ]
        },
        "identifier": [
          {
            "assigner": {
              "display": "HL7 Europe"
            },
            "system": "urn:oid:2.16.840.1.113883.2.51.999",
            "value": "069d6949-6efa-4b96-ac02-8a22d6a64418"
          }
        ],
        "name": [
          {
            "prefix": [
              "dr"
            ],
            "given": [
              "Ex"
            ],
            "family": "Ample"
          }
        ],
        "address": [
          {
            "line": [
              "Laboratoire Central Européenne",
              "Boulevard du Jardin Botanique 32"
            ],
            "postalCode": "1000",
            "city": "Brussels",
            "country": "Belgium"
          }
        ],
        "text": {
          "status": "generated",
          "div": "<div xmlns=\"http://www.w3.org/1999/xhtml\">Laboratory: Laboratoire Central Européenne, 1000 Brussels, Belgium</div>"
        }
      }
    }
  ],
  "type": "document",
  "timestamp": "2015-08-09T22:58:39Z"
}
