<Bundle xmlns="http://hl7.org/fhir">
   <id value="938e73a9-3e2b-4e6b-b8cc-d880dd1dcfc1"/>
   <meta>
      <profile value="http://hl7.eu/fhir/laboratory/StructureDefinition/Bundle-eu-lab"/>
   </meta>
   <identifier>
      <system value="urn:oid:2.16.840.1.113883.2.51.999"/>
      <value value="e1cc8881-189a-4c13-84ae-cde112277178"/>
      <assigner>
         <display value="HL7 Europe"/>
      </assigner>
   </identifier>
   <type value="document"/>
   <timestamp value="2017-06-29T16:42:11Z"/>
   <entry>
      <fullUrl value="urn:uuid:af3ec95b-cdc9-4294-922b-eb380b392b34"/>
      <resource>
         <Composition>
            <id value="af3ec95b-cdc9-4294-922b-eb380b392b34"/>
            <meta>
               <profile value="http://hl7.eu/fhir/laboratory/StructureDefinition/Composition-eu-lab"/>
            </meta>
            <identifier>
               <system value="urn:oid:2.16.840.1.113883.2.51.999"/>
               <value value="a8bd6243-4248-454b-bd52-7fcae82ce11c"/>
               <assigner>
                  <display value="HL7 Europe"/>
               </assigner>
            </identifier>
            <status value="final"/>
            <type>
               <coding>
                  <system value="http://loinc.org"/>
                  <code value="11502-2"/>
                  <display value="Laboratory report"/>
               </coding>
               <text value="Laboratory Report"/>
            </type>
            <category>
               <coding>
                  <system value="http://loinc.org"/>
                  <code value="26436-6"/>
                  <display value="Laboratory studies (set)"/>
               </coding>
            </category>
            <subject>
               <reference value="urn:uuid:2ff1139a-ca21-4bec-849c-e4f8746555be"/>
               <display value="Molly Jenkins"/>
            </subject>
            <date value="2017-06-29T16:42:11Z"/>
            <author>
               <reference value="urn:uuid:08be4cfe-6582-42f1-8907-fe3b7d65196c"/>
            </author>
            <title value="Laboratory Report"/>
            <confidentiality value="N"/>
            <section>
               <title value="Laboratory Report"/>
               <code>
                  <coding>
                     <system value="http://loinc.org"/>
                     <code value="26436-6"/>
                     <display value="Laboratory studies (set)"/>
                  </coding>
                  <text value="Laboratory studies"/>
               </code>
               <section>
                  <title value="Chemistry"/>
                  <code>
                     <coding>
                        <system value="http://loinc.org"/>
                        <code value="$18719-5"/>
                        <display value="Chemistry studies (set)"/>
                     </coding>
                     <text value="Chemistry"/>
                  </code>
                  <text>
                     <status value="generated"/>
                     <div xmlns="http://www.w3.org/1999/xhtml">
                        <h3>Chemistry</h3>
                        <table class="hl7__eu__lab__report">
                           <thead>
                              <tr>
                                 <th>Test</th>
                                 <th>29-JUN-2017</th>
                                 <th>Reference Range</th>
                                 <th>Unit</th>
                              </tr>
                           </thead>
                           <tbody>
                              <tr>
                                 <td>Glucose [Mass/volume] in Serum or Plasma</td>
                                 <td>82.2</td>
                                 <td>70 - 139</td>
                                 <td>mg/dL</td>
                              </tr>
                              <tr>
                                 <td>Urea nitrogen [Mass/volume] in Serum or Plasma</td>
                                 <td>14.5</td>
                                 <td>7 - 20</td>
                                 <td>mg/dL</td>
                              </tr>
                              <tr>
                                 <td>Creatinine [Mass/volume] in Serum or Plasma</td>
                                 <td>
                                    <strong>1.9 H</strong>
                                 </td>
                                 <td>0.6 - 1.1</td>
                                 <td>mg/dL</td>
                              </tr>
                              <tr>
                                 <td>Calcium [Mass/volume] in Serum or Plasma</td>
                                 <td>9.5</td>
                                 <td>8.5 - 10.4</td>
                                 <td>mg/dL</td>
                              </tr>
                              <tr>
                                 <td>Sodium [Moles/volume] in Serum or Plasma</td>
                                 <td>137.2</td>
                                 <td>135 - 145</td>
                                 <td>mmol/L</td>
                              </tr>
                              <tr>
                                 <td>Potassium [Moles/volume] in Serum or Plasma</td>
                                 <td>4.6</td>
                                 <td>3.5 - 5.1</td>
                                 <td>mmol/L</td>
                              </tr>
                              <tr>
                                 <td>Chloride [Moles/volume] in Serum or Plasma</td>
                                 <td>
                                    <strong>110.3 H</strong>
                                 </td>
                                 <td>98 - 110</td>
                                 <td>mmol/L</td>
                              </tr>
                              <tr>
                                 <td>Carbon dioxide, total [Moles/volume] in Serum or Plasma</td>
                                 <td>23.8</td>
                                 <td>22 - 32</td>
                                 <td>mmol/L</td>
                              </tr>
                              <tr>
                                 <td>Ketones [Presence] in Urine by Test strip</td>
                                 <td>Urine ketone test = +</td>
                                 <td/>
                                 <td/>
                              </tr>
                              <tr>
                                 <td>Hemoglobin A1c/Hemoglobin.total in Blood</td>
                                 <td>
                                    <strong>3.3 L</strong>
                                 </td>
                                 <td>4 - 6</td>
                                 <td>%</td>
                              </tr>
                              <tr>
                                 <td>Glucose [Mass/volume] in Blood</td>
                                 <td>82.2</td>
                                 <td>70 - 100</td>
                                 <td>mg/dL</td>
                              </tr>
                              <tr>
                                 <td>Urea nitrogen [Mass/volume] in Blood</td>
                                 <td>14.5</td>
                                 <td>7 - 20</td>
                                 <td>mg/dL</td>
                              </tr>
                              <tr>
                                 <td>Creatinine [Mass/volume] in Blood</td>
                                 <td>1.3</td>
                                 <td>0.6 - 1.3</td>
                                 <td>mg/dL</td>
                              </tr>
                              <tr>
                                 <td>Calcium [Mass/volume] in Blood</td>
                                 <td>9.5</td>
                                 <td>8.6 - 10.4</td>
                                 <td>mg/dL</td>
                              </tr>
                              <tr>
                                 <td>Sodium [Moles/volume] in Blood</td>
                                 <td>137.2</td>
                                 <td>135 - 145</td>
                                 <td>mmol/L</td>
                              </tr>
                              <tr>
                                 <td>Potassium [Moles/volume] in Blood</td>
                                 <td>4.6</td>
                                 <td>3.5 - 5.1</td>
                                 <td>mmol/L</td>
                              </tr>
                              <tr>
                                 <td>Chloride [Moles/volume] in Blood</td>
                                 <td>
                                    <strong>110.3 H</strong>
                                 </td>
                                 <td>98 - 110</td>
                                 <td>mmol/L</td>
                              </tr>
                              <tr>
                                 <td>Carbon dioxide, total [Moles/volume] in Blood</td>
                                 <td>23.8</td>
                                 <td>22 - 29</td>
                                 <td>mmol/L</td>
                              </tr>
                           </tbody>
                        </table>
                     </div>
                  </text>
                  <entry>
                     <reference value="urn:uuid:f1796633-31e6-46f9-b3cb-2f0c7bfc97ad"/>
                  </entry>
                  <entry>
                     <reference value="urn:uuid:413f29cd-17d5-4ba8-8211-9f381643413c"/>
                  </entry>
                  <entry>
                     <reference value="urn:uuid:f2350eae-d560-4757-a568-8418ee67c79b"/>
                  </entry>
                  <entry>
                     <reference value="urn:uuid:3436a7a8-c72b-47c4-8cfc-14321d408780"/>
                  </entry>
                  <entry>
                     <reference value="urn:uuid:e94e024c-9b24-4d3b-9aa1-2371c18ac3eb"/>
                  </entry>
                  <entry>
                     <reference value="urn:uuid:bf4858b9-001e-4b38-9e6c-4203076b8d3c"/>
                  </entry>
                  <entry>
                     <reference value="urn:uuid:67bdf101-d621-4ef5-9c28-fdcf7498a174"/>
                  </entry>
                  <entry>
                     <reference value="urn:uuid:64b94c20-e6b9-4bf7-b577-79c44668e83b"/>
                  </entry>
                  <entry>
                     <reference value="urn:uuid:4176e594-f3f0-4bf9-a5d7-acf1e698f825"/>
                  </entry>
                  <entry>
                     <reference value="urn:uuid:955185a1-36a6-4b8d-832e-6a6cb79d8e81"/>
                  </entry>
                  <entry>
                     <reference value="urn:uuid:5432f47d-1cd5-4e0f-84c1-ae796f015842"/>
                  </entry>
                  <entry>
                     <reference value="urn:uuid:d3142979-90f3-463c-98a9-e2803f0c1548"/>
                  </entry>
                  <entry>
                     <reference value="urn:uuid:5e972767-4e9f-4bbd-8a2b-b86ccf00fe5a"/>
                  </entry>
                  <entry>
                     <reference value="urn:uuid:c7a36048-8a99-4fd0-95f7-f812f62075dd"/>
                  </entry>
                  <entry>
                     <reference value="urn:uuid:d19e961a-1bc9-4827-867b-1ad80a5a07cf"/>
                  </entry>
                  <entry>
                     <reference value="urn:uuid:28c8aa3c-077e-4f49-bd37-3da714259d2e"/>
                  </entry>
                  <entry>
                     <reference value="urn:uuid:0ae9dded-fa96-41e9-92dc-8314bf0537a3"/>
                  </entry>
                  <entry>
                     <reference value="urn:uuid:3a830880-a390-4d62-ac2d-9f8b25832379"/>
                  </entry>
               </section>
               <section>
                  <title value="Urinalysis"/>
                  <code>
                     <coding>
                        <system value="http://loinc.org"/>
                        <code value="$18729-4"/>
                        <display value="Urinalysis studies (set)"/>
                     </coding>
                     <text value="Urinalysis"/>
                  </code>
                  <text>
                     <status value="generated"/>
                     <div xmlns="http://www.w3.org/1999/xhtml">
                        <h3>Urinalysis</h3>
                        <table class="hl7__eu__lab__report">
                           <thead>
                              <tr>
                                 <th>Test</th>
                                 <th>29-JUN-2017</th>
                                 <th>Reference Range</th>
                                 <th>Unit</th>
                              </tr>
                           </thead>
                           <tbody>
                              <tr>
                                 <td>Glucose [Mass/volume] in Urine by Test strip</td>
                                 <td>
                                    <strong>2.4 H</strong>
                                 </td>
                                 <td>0 - 0</td>
                                 <td>mg/dL</td>
                              </tr>
                              <tr>
                                 <td>Glucose [Presence] in Urine by Test strip</td>
                                 <td>++</td>
                                 <td/>
                                 <td/>
                              </tr>
                              <tr>
                                 <td>Bilirubin.total [Mass/volume] in Urine by Test strip</td>
                                 <td>1.3</td>
                                 <td>0 - 1.6</td>
                                 <td>mg/dL</td>
                              </tr>
                              <tr>
                                 <td>Bilirubin.total [Presence] in Urine by Test strip</td>
                                 <td>Finding of bilirubin in urine</td>
                                 <td/>
                                 <td/>
                              </tr>
                              <tr>
                                 <td>Ketones [Mass/volume] in Urine by Test strip</td>
                                 <td>
                                    <strong>10.8 H</strong>
                                 </td>
                                 <td>0 - 0.5</td>
                                 <td>mg/dL</td>
                              </tr>
                              <tr>
                                 <td>Specific gravity of Urine by Test strip</td>
                                 <td>
                                    <strong>1.0 L</strong>
                                 </td>
                                 <td>1.005 - 1.03</td>
                                 <td>{nominal}</td>
                              </tr>
                              <tr>
                                 <td>pH of Urine by Test strip</td>
                                 <td>5.6</td>
                                 <td>4.5 - 7.5</td>
                                 <td>pH</td>
                              </tr>
                              <tr>
                                 <td>Protein [Mass/volume] in Urine by Test strip</td>
                                 <td>
                                    <strong>274.5 H</strong>
                                 </td>
                                 <td>0 - 15</td>
                                 <td>mg/dL</td>
                              </tr>
                              <tr>
                                 <td>Protein [Presence] in Urine by Test strip</td>
                                 <td>Urine protein test = ++</td>
                                 <td/>
                                 <td/>
                              </tr>
                              <tr>
                                 <td>Nitrite [Presence] in Urine by Test strip</td>
                                 <td>Urine nitrite negative</td>
                                 <td/>
                                 <td/>
                              </tr>
                              <tr>
                                 <td>Hemoglobin [Presence] in Urine by Test strip</td>
                                 <td>Urine blood test = negative</td>
                                 <td/>
                                 <td/>
                              </tr>
                              <tr>
                                 <td>Leukocyte esterase [Presence] in Urine by Test strip</td>
                                 <td>Urine leukocyte test negative</td>
                                 <td/>
                                 <td/>
                              </tr>
                           </tbody>
                        </table>
                     </div>
                  </text>
                  <entry>
                     <reference value="urn:uuid:d47e209b-2abd-43c7-b4bd-d9d3585407e5"/>
                  </entry>
                  <entry>
                     <reference value="urn:uuid:02047cdb-55bf-4f48-9f75-c908059f7831"/>
                  </entry>
                  <entry>
                     <reference value="urn:uuid:5d3a85be-7d9a-4d3e-9f81-3decf666d2e6"/>
                  </entry>
                  <entry>
                     <reference value="urn:uuid:a564aec3-dd1b-4240-8085-d0e5c9b56ad2"/>
                  </entry>
                  <entry>
                     <reference value="urn:uuid:095df643-10ca-4d01-b371-9d2278b2edc7"/>
                  </entry>
                  <entry>
                     <reference value="urn:uuid:129a2363-abe4-4033-a235-c739ec4789ff"/>
                  </entry>
                  <entry>
                     <reference value="urn:uuid:91d9f9b4-27a3-431d-b7de-f4efe28891a4"/>
                  </entry>
                  <entry>
                     <reference value="urn:uuid:387f9c75-40d1-4031-b931-3fd277d1d349"/>
                  </entry>
                  <entry>
                     <reference value="urn:uuid:782a2458-c917-46af-8973-1f1e7aae401c"/>
                  </entry>
                  <entry>
                     <reference value="urn:uuid:6d743c98-b218-4d52-b68e-81378bf2f64e"/>
                  </entry>
                  <entry>
                     <reference value="urn:uuid:fb3874ee-4ed9-4722-90f5-36d7e4b52b24"/>
                  </entry>
                  <entry>
                     <reference value="urn:uuid:e6158c26-4777-4af3-8286-af921ce7c4fa"/>
                  </entry>
               </section>
               <section>
                  <title value="Specimen information"/>
                  <code>
                     <coding>
                        <system value="http://loinc.org"/>
                        <code value="$LP7846-1"/>
                        <display value="Specimen information"/>
                     </coding>
                     <text value="Specimen information"/>
                  </code>
                  <text>
                     <status value="generated"/>
                     <div xmlns="http://www.w3.org/1999/xhtml">
                        <h3>Specimen information</h3>
                        <table class="hl7__eu__lab__report">
                           <thead>
                              <tr>
                                 <th>Test</th>
                                 <th>29-JUN-2017</th>
                                 <th>Specimen</th>
                                 <th/>
                              </tr>
                           </thead>
                           <tbody>
                              <tr>
                                 <td>Appearance of Urine</td>
                                 <td>Cloudy urine</td>
                                 <td>Urine</td>
                                 <td/>
                              </tr>
                              <tr>
                                 <td>Odor of Urine</td>
                                 <td>Urine smell ammoniacal</td>
                                 <td>Urine</td>
                                 <td/>
                              </tr>
                              <tr>
                                 <td>Clarity of Urine</td>
                                 <td>Translucent</td>
                                 <td>Urine</td>
                                 <td/>
                              </tr>
                              <tr>
                                 <td>Color of Urine</td>
                                 <td>Brown color</td>
                                 <td>Urine</td>
                                 <td/>
                              </tr>
                           </tbody>
                        </table>
                     </div>
                  </text>
                  <entry>
                     <reference value="urn:uuid:4dca30c7-001b-43af-abd5-6d7f2b0fe336"/>
                  </entry>
                  <entry>
                     <reference value="urn:uuid:8bbfa7d1-152f-4b5a-9a18-4f0b3937c9c1"/>
                  </entry>
                  <entry>
                     <reference value="urn:uuid:595e9da2-0a4e-462a-8cc2-abb3ec28c200"/>
                  </entry>
                  <entry>
                     <reference value="urn:uuid:2d7718e1-2cd8-419f-984a-4fa65c8d93f2"/>
                  </entry>
               </section>
            </section>
            <section>
               <title value="Annotation comment"/>
               <code>
                  <coding>
                     <system value="http://loinc.org"/>
                     <code value="48767-8"/>
                     <display value="Annotation comment"/>
                  </coding>
               </code>
               <text>
                  <status value="generated"/>
                  <div xmlns="http://www.w3.org/1999/xhtml">
                     <h3>Annotation</h3>
                     <table class="hl7__eu__lab__report">
                        <tr>
                           <th>Conclusion and Recommendations based on this report and previous findings known to us</th>
                        </tr>
                        <tr>
                           <td>The patient shows elevated serum creatinine, proteinuria, glucosuria, ketonuria, and low urine specific gravity, suggesting impaired renal function with possible nephrotic-range proteinuria and tubular dysfunction. The presence of glucose and ketones in urine with low HbA1c and normal blood glucose is unusual and may indicate a non-diabetic cause. Urine is cloudy and brown, but no evidence of infection. Further nephrological evaluation is recommended to clarify the underlying renal pathology.</td>
                        </tr>
                     </table>
                  </div>
               </text>
            </section>
         </Composition>
      </resource>
   </entry>
   <entry>
      <fullUrl value="urn:uuid:bfab069a-b4c0-4671-8ae1-e2ccd6808033"/>
      <resource>
         <DiagnosticReport>
            <id value="bfab069a-b4c0-4671-8ae1-e2ccd6808033"/>
            <meta>
               <profile value="http://hl7.eu/fhir/laboratory/StructureDefinition/DiagnosticReport-eu-lab"/>
            </meta>
            <extension url="http://hl7.org/fhir/5.0/StructureDefinition/extension-DiagnosticReport.composition">
               <valueReference>
                  <reference value="urn:uuid:a8bd6243-4248-454b-bd52-7fcae82ce11c"/>
               </valueReference>
            </extension>
            <identifier>
               <system value="urn:oid:2.16.840.1.113883.2.51.999"/>
               <value value="bfcf5bfa-0b64-4e56-b6db-7254a6631a2d"/>
               <assigner>
                  <display value="HL7 Europe"/>
               </assigner>
            </identifier>
            <status value="registered"/>
            <category>
               <coding>
                  <system value="http://loinc.org"/>
                  <code value="26436-6"/>
                  <display value="Laboratory studies (set)"/>
               </coding>
            </category>
            <code>
               <coding>
                  <system value="http://loinc.org"/>
                  <code value="11502-2"/>
                  <display value="Laboratory report"/>
               </coding>
            </code>
            <subject>
               <reference value="urn:uuid:2ff1139a-ca21-4bec-849c-e4f8746555be"/>
               <display value="Molly Jenkins"/>
            </subject>
            <specimen>
               <reference value="urn:uuid:5cbcf0f5-3a6d-4045-ae45-76ff1c7f8509"/>
            </specimen>
            <specimen>
               <reference value="urn:uuid:75a714bc-09c6-4ddd-8e69-8d86f8630539"/>
            </specimen>
            <specimen>
               <reference value="urn:uuid:f9ab95b9-030d-4e32-bbc0-7a88c73fb510"/>
            </specimen>
            <result>
               <reference value="urn:uuid:f1796633-31e6-46f9-b3cb-2f0c7bfc97ad"/>
            </result>
            <result>
               <reference value="urn:uuid:413f29cd-17d5-4ba8-8211-9f381643413c"/>
            </result>
            <result>
               <reference value="urn:uuid:f2350eae-d560-4757-a568-8418ee67c79b"/>
            </result>
            <result>
               <reference value="urn:uuid:3436a7a8-c72b-47c4-8cfc-14321d408780"/>
            </result>
            <result>
               <reference value="urn:uuid:e94e024c-9b24-4d3b-9aa1-2371c18ac3eb"/>
            </result>
            <result>
               <reference value="urn:uuid:bf4858b9-001e-4b38-9e6c-4203076b8d3c"/>
            </result>
            <result>
               <reference value="urn:uuid:67bdf101-d621-4ef5-9c28-fdcf7498a174"/>
            </result>
            <result>
               <reference value="urn:uuid:64b94c20-e6b9-4bf7-b577-79c44668e83b"/>
            </result>
            <result>
               <reference value="urn:uuid:4dca30c7-001b-43af-abd5-6d7f2b0fe336"/>
            </result>
            <result>
               <reference value="urn:uuid:8bbfa7d1-152f-4b5a-9a18-4f0b3937c9c1"/>
            </result>
            <result>
               <reference value="urn:uuid:595e9da2-0a4e-462a-8cc2-abb3ec28c200"/>
            </result>
            <result>
               <reference value="urn:uuid:2d7718e1-2cd8-419f-984a-4fa65c8d93f2"/>
            </result>
            <result>
               <reference value="urn:uuid:d47e209b-2abd-43c7-b4bd-d9d3585407e5"/>
            </result>
            <result>
               <reference value="urn:uuid:02047cdb-55bf-4f48-9f75-c908059f7831"/>
            </result>
            <result>
               <reference value="urn:uuid:5d3a85be-7d9a-4d3e-9f81-3decf666d2e6"/>
            </result>
            <result>
               <reference value="urn:uuid:a564aec3-dd1b-4240-8085-d0e5c9b56ad2"/>
            </result>
            <result>
               <reference value="urn:uuid:095df643-10ca-4d01-b371-9d2278b2edc7"/>
            </result>
            <result>
               <reference value="urn:uuid:4176e594-f3f0-4bf9-a5d7-acf1e698f825"/>
            </result>
            <result>
               <reference value="urn:uuid:129a2363-abe4-4033-a235-c739ec4789ff"/>
            </result>
            <result>
               <reference value="urn:uuid:91d9f9b4-27a3-431d-b7de-f4efe28891a4"/>
            </result>
            <result>
               <reference value="urn:uuid:387f9c75-40d1-4031-b931-3fd277d1d349"/>
            </result>
            <result>
               <reference value="urn:uuid:782a2458-c917-46af-8973-1f1e7aae401c"/>
            </result>
            <result>
               <reference value="urn:uuid:6d743c98-b218-4d52-b68e-81378bf2f64e"/>
            </result>
            <result>
               <reference value="urn:uuid:fb3874ee-4ed9-4722-90f5-36d7e4b52b24"/>
            </result>
            <result>
               <reference value="urn:uuid:e6158c26-4777-4af3-8286-af921ce7c4fa"/>
            </result>
            <result>
               <reference value="urn:uuid:955185a1-36a6-4b8d-832e-6a6cb79d8e81"/>
            </result>
            <result>
               <reference value="urn:uuid:5432f47d-1cd5-4e0f-84c1-ae796f015842"/>
            </result>
            <result>
               <reference value="urn:uuid:d3142979-90f3-463c-98a9-e2803f0c1548"/>
            </result>
            <result>
               <reference value="urn:uuid:5e972767-4e9f-4bbd-8a2b-b86ccf00fe5a"/>
            </result>
            <result>
               <reference value="urn:uuid:c7a36048-8a99-4fd0-95f7-f812f62075dd"/>
            </result>
            <result>
               <reference value="urn:uuid:d19e961a-1bc9-4827-867b-1ad80a5a07cf"/>
            </result>
            <result>
               <reference value="urn:uuid:28c8aa3c-077e-4f49-bd37-3da714259d2e"/>
            </result>
            <result>
               <reference value="urn:uuid:0ae9dded-fa96-41e9-92dc-8314bf0537a3"/>
            </result>
            <result>
               <reference value="urn:uuid:3a830880-a390-4d62-ac2d-9f8b25832379"/>
            </result>
         </DiagnosticReport>
      </resource>
   </entry>
   <entry>
      <fullUrl value="urn:uuid:2ff1139a-ca21-4bec-849c-e4f8746555be"/>
      <resource>
         <Patient>
            <id value="2ff1139a-ca21-4bec-849c-e4f8746555be"/>
            <meta>
               <profile value="http://hl7.eu/fhir/base/StructureDefinition/patient-eu-core"/>
               <security>
                  <system value="http://terminology.hl7.org/CodeSystem/v3-ActReason"/>
                  <code value="HTEST"/>
               </security>
               <security>
                  <system value="http://terminology.hl7.org/CodeSystem/v3-ActReason"/>
                  <code value="TRAIN"/>
               </security>
               <tag>
                  <system value="https://synderai.net/fhir/CodeSystem/tags"/>
                  <code value="synthetic"/>
                  <display value="SYNDERAI Synthetic data"/>
               </tag>
            </meta>
            <text>
               <status value="generated"/>
               <div xmlns="http://www.w3.org/1999/xhtml">
                  <table class="hl7__ips">
                     <tr>
                        <td>Molly Jenkins</td>
                        <td>female</td>
                        <td>14-Aug-1967</td>
                     </tr>
                  </table>
               </div>
            </text>
            <extension url="http://hl7.org/fhir/StructureDefinition/patient-nationality">
               <valueCodeableConcept>
                  <coding>
                     <system value="http://hl7.org/fhir/ValueSet/country"/>
                     <code value="GB"/>
                  </coding>
               </valueCodeableConcept>
            </extension>
            <identifier>
               <type>
                  <coding>
                     <system value="http://terminology.hl7.org/CodeSystem/v2-0203"/>
                     <code value="PT"/>
                  </coding>
               </type>
               <system value="http://ec.europa.eu/identifier/eci"/>
               <value value="7634-012682-0"/>
            </identifier>
            <identifier>
               <type>
                  <coding>
                     <system value="http://terminology.hl7.org/CodeSystem/v2-0203"/>
                     <code value="MR"/>
                  </coding>
               </type>
               <system value="http://local.setting.eu/identifier"/>
               <value value="9934a8eb-b6e1-34e1-edf5-57a0262d1bea"/>
            </identifier>
            <name>
               <family value="Jenkins"/>
            </name>
            <name>
               <given value="Molly"/>
            </name>
            <name>
               <text value="Molly Jenkins"/>
            </name>
            <telecom>
               <system value="phone"/>
               <value value="(0118) 496 0334"/>
            </telecom>
            <gender value="female"/>
            <birthDate value="1967-08-14"/>
            <address>
               <use value="home"/>
               <type value="physical"/>
               <line value="98 Ali field"/>
               <city value="Port Jennamouth"/>
               <postalCode value="AB42"/>
               <country value="United Kingdom"/>
            </address>
         </Patient>
      </resource>
   </entry>
   <entry>
      <fullUrl value="urn:uuid:fb09c72c-d9e0-408d-a02b-e1ad2ac68e38"/>
      <resource>
         <ServiceRequest>
            <id value="fb09c72c-d9e0-408d-a02b-e1ad2ac68e38"/>
            <meta>
               <profile value="http://hl7.eu/fhir/laboratory/StructureDefinition/ServiceRequest-eu-lab"/>
            </meta>
            <identifier>
               <system value="http://example.org"/>
               <value value="eb1f84ed-426f-4c0d-9794-dea98223c943"/>
            </identifier>
            <status value="active"/>
            <intent value="order"/>
            <code>
               <coding>
                  <system value="http://snomed.info/sct"/>
                  <code value="108252007"/>
                  <display value="Laboratory procedure"/>
               </coding>
            </code>
            <subject>
               <reference value="urn:uuid:2ff1139a-ca21-4bec-849c-e4f8746555be"/>
               <display value="Molly Jenkins"/>
            </subject>
            <requester>
               <reference value="urn:uuid:0af07335-f060-445b-91a9-3b27eb85e9c2"/>
            </requester>
            <reasonCode>
               <coding>
                  <system value="http://snomed.info/sct"/>
                  <code value="431856006"/>
                  <display value="Chronic kidney disease stage 2"/>
               </coding>
            </reasonCode>
            <reasonCode>
               <coding>
                  <system value="http://snomed.info/sct"/>
                  <code value="90781000119102"/>
                  <display value="Microalbuminuria due to type 2 diabetes mellitus"/>
               </coding>
            </reasonCode>
            <reasonCode>
               <coding>
                  <system value="http://snomed.info/sct"/>
                  <code value="127013003"/>
                  <display value="Disorder of kidney due to diabetes mellitus"/>
               </coding>
            </reasonCode>
            <reasonCode>
               <coding>
                  <system value="http://snomed.info/sct"/>
                  <code value="431855005"/>
                  <display value="Chronic kidney disease stage 1"/>
               </coding>
            </reasonCode>
            <reasonCode>
               <coding>
                  <system value="http://snomed.info/sct"/>
                  <code value="15777000"/>
                  <display value="Prediabetes"/>
               </coding>
            </reasonCode>
            <reasonCode>
               <coding>
                  <system value="http://snomed.info/sct"/>
                  <code value="59621000"/>
                  <display value="Essential hypertension"/>
               </coding>
            </reasonCode>
            <reasonCode>
               <coding>
                  <system value="http://snomed.info/sct"/>
                  <code value="53827007"/>
                  <display value="Excessive salivation"/>
               </coding>
            </reasonCode>
            <reasonCode>
               <coding>
                  <system value="http://snomed.info/sct"/>
                  <code value="64859006"/>
                  <display value="Osteoporosis"/>
               </coding>
            </reasonCode>
            <reasonCode>
               <coding>
                  <system value="http://snomed.info/sct"/>
                  <code value="128188000"/>
                  <display value="Cerebral palsy"/>
               </coding>
            </reasonCode>
            <reasonCode>
               <coding>
                  <system value="http://snomed.info/sct"/>
                  <code value="235595009"/>
                  <display value="Gastroesophageal reflux disease"/>
               </coding>
            </reasonCode>
            <specimen>
               <reference value="urn:uuid:5cbcf0f5-3a6d-4045-ae45-76ff1c7f8509"/>
            </specimen>
            <specimen>
               <reference value="urn:uuid:75a714bc-09c6-4ddd-8e69-8d86f8630539"/>
            </specimen>
            <specimen>
               <reference value="urn:uuid:f9ab95b9-030d-4e32-bbc0-7a88c73fb510"/>
            </specimen>
         </ServiceRequest>
      </resource>
   </entry>
   <entry>
      <fullUrl value="urn:uuid:0af07335-f060-445b-91a9-3b27eb85e9c2"/>
      <resource>
         <PractitionerRole>
            <id value="0af07335-f060-445b-91a9-3b27eb85e9c2"/>
            <meta>
               <profile value="http://hl7.eu/fhir/base/StructureDefinition/practitionerRole-eu"/>
            </meta>
            <text>
               <status value="generated"/>
               <div xmlns="http://www.w3.org/1999/xhtml">Provider Role Id: 0af07335-f060-445b-91a9-3b27eb85e9c2</div>
            </text>
            <organization>
               <reference value="urn:uuid:f75e156e-f38e-439c-aaa7-d2f879fdf688"/>
            </organization>
         </PractitionerRole>
      </resource>
   </entry>
   <entry>
      <fullUrl value="urn:uuid:f75e156e-f38e-439c-aaa7-d2f879fdf688"/>
      <resource>
         <Organization>
            <id value="f75e156e-f38e-439c-aaa7-d2f879fdf688"/>
            <meta>
               <profile value="http://hl7.eu/fhir/base/StructureDefinition/organization-eu"/>
            </meta>
            <text>
               <status value="generated"/>
               <div xmlns="http://www.w3.org/1999/xhtml">Provider Organization: Aberdeen Community Health and Care Village</div>
            </text>
            <identifier>
               <system value="urn:oid:2.16.840.1.113883.2.51.999"/>
               <value value="3681e9d9-3471-4246-a701-ed53e19800e0"/>
               <assigner>
                  <display value="HL7 Europe"/>
               </assigner>
            </identifier>
            <name value="Aberdeen Community Health and Care Village"/>
            <address>
               <city value="Aberdeen"/>
               <postalCode value="AB11 6"/>
               <country value="United Kingdom"/>
            </address>
         </Organization>
      </resource>
   </entry>
   <entry>
      <fullUrl value="urn:uuid:5cbcf0f5-3a6d-4045-ae45-76ff1c7f8509"/>
      <resource>
         <Specimen>
            <id value="5cbcf0f5-3a6d-4045-ae45-76ff1c7f8509"/>
            <meta>
               <profile value="http://hl7.eu/fhir/laboratory/StructureDefinition/Specimen-eu-lab"/>
            </meta>
            <text>
               <status value="generated"/>
               <div xmlns="http://www.w3.org/1999/xhtml">
                  <table class="hl7__eu__lab__report">
                     <tr>
                        <th>Specimen</th>
                        <th>Collection Date</th>
                     </tr>
                     <tr>
                        <td>Acellular blood (serum or plasma) specimen</td>
                        <td>
                           <span class="nb">29-Jun-2017</span>
                        </td>
                     </tr>
                  </table>
               </div>
            </text>
            <type>
               <coding>
                  <system value="http://snomed.info/sct"/>
                  <code value="122592007"/>
                  <display value="Acellular blood (serum or plasma) specimen"/>
               </coding>
            </type>
            <collection>
               <collectedDateTime value="2017-06-29"/>
            </collection>
         </Specimen>
      </resource>
   </entry>
   <entry>
      <fullUrl value="urn:uuid:75a714bc-09c6-4ddd-8e69-8d86f8630539"/>
      <resource>
         <Specimen>
            <id value="75a714bc-09c6-4ddd-8e69-8d86f8630539"/>
            <meta>
               <profile value="http://hl7.eu/fhir/laboratory/StructureDefinition/Specimen-eu-lab"/>
            </meta>
            <text>
               <status value="generated"/>
               <div xmlns="http://www.w3.org/1999/xhtml">
                  <table class="hl7__eu__lab__report">
                     <tr>
                        <th>Specimen</th>
                        <th>Collection Date</th>
                     </tr>
                     <tr>
                        <td>Urine specimen</td>
                        <td>
                           <span class="nb">29-Jun-2017</span>
                        </td>
                     </tr>
                  </table>
               </div>
            </text>
            <type>
               <coding>
                  <system value="http://snomed.info/sct"/>
                  <code value="122575003"/>
                  <display value="Urine specimen"/>
               </coding>
            </type>
            <collection>
               <collectedDateTime value="2017-06-29"/>
            </collection>
         </Specimen>
      </resource>
   </entry>
   <entry>
      <fullUrl value="urn:uuid:f9ab95b9-030d-4e32-bbc0-7a88c73fb510"/>
      <resource>
         <Specimen>
            <id value="f9ab95b9-030d-4e32-bbc0-7a88c73fb510"/>
            <meta>
               <profile value="http://hl7.eu/fhir/laboratory/StructureDefinition/Specimen-eu-lab"/>
            </meta>
            <text>
               <status value="generated"/>
               <div xmlns="http://www.w3.org/1999/xhtml">
                  <table class="hl7__eu__lab__report">
                     <tr>
                        <th>Specimen</th>
                        <th>Collection Date</th>
                     </tr>
                     <tr>
                        <td>Whole blood specimen (specimen)</td>
                        <td>
                           <span class="nb">29-Jun-2017</span>
                        </td>
                     </tr>
                  </table>
               </div>
            </text>
            <type>
               <coding>
                  <system value="http://snomed.info/sct"/>
                  <code value="258580003"/>
                  <display value="Whole blood specimen (specimen)"/>
               </coding>
            </type>
            <collection>
               <collectedDateTime value="2017-06-29"/>
            </collection>
         </Specimen>
      </resource>
   </entry>
   <entry>
      <fullUrl value="urn:uuid:f1796633-31e6-46f9-b3cb-2f0c7bfc97ad"/>
      <resource>
         <Observation>
            <id value="f1796633-31e6-46f9-b3cb-2f0c7bfc97ad"/>
            <meta>
               <profile value="http://hl7.eu/fhir/laboratory/StructureDefinition/Observation-resultslab-eu-lab"/>
            </meta>
            <text>
               <status value="generated"/>
               <div xmlns="http://www.w3.org/1999/xhtml">
                  <table class="hl7__eu__lab__report">
                     <tr>
                        <th>Test</th>
                        <th>29-Jun-2017</th>
                        <th>Reference Range</th>
                        <th>Unit</th>
                     </tr>
                     <tr>
                        <td>Glucose [Mass/volume] in Serum or Plasma</td>
                        <td>82.2</td>
                        <td>70 - 139</td>
                        <td/>
                        <td>mg/dL</td>
                     </tr>
                  </table>
               </div>
            </text>
            <status value="final"/>
            <category>
               <coding>
                  <system value="http://terminology.hl7.org/CodeSystem/observation-category"/>
                  <code value="laboratory"/>
               </coding>
            </category>
            <code>
               <coding>
                  <system value="http://loinc.org"/>
                  <code value="2345-7"/>
                  <display value="Glucose [Mass/volume] in Serum or Plasma"/>
               </coding>
               <text value="Glucose [Mass/volume] in Serum or Plasma"/>
            </code>
            <subject>
               <reference value="urn:uuid:2ff1139a-ca21-4bec-849c-e4f8746555be"/>
               <display value="Molly Jenkins"/>
            </subject>
            <effectiveDateTime value="2017-06-29T14:42:11Z"/>
            <performer>
               <display value="The Central European Lab"/>
            </performer>
            <valueQuantity>
               <value value="82.2"/>
               <unit value="mg/dL"/>
               <system value="http://unitsofmeasure.org"/>
               <code value="mg/dL"/>
            </valueQuantity>
            <specimen>
               <reference value="urn:uuid:5cbcf0f5-3a6d-4045-ae45-76ff1c7f8509"/>
            </specimen>
            <referenceRange>
               <low>
                  <value value="70"/>
                  <system value="http://unitsofmeasure.org"/>
                  <code value="mg/dL"/>
               </low>
            </referenceRange>
            <referenceRange>
               <high>
                  <value value="139"/>
                  <system value="http://unitsofmeasure.org"/>
                  <code value="mg/dL"/>
               </high>
            </referenceRange>
         </Observation>
      </resource>
   </entry>
   <entry>
      <fullUrl value="urn:uuid:413f29cd-17d5-4ba8-8211-9f381643413c"/>
      <resource>
         <Observation>
            <id value="413f29cd-17d5-4ba8-8211-9f381643413c"/>
            <meta>
               <profile value="http://hl7.eu/fhir/laboratory/StructureDefinition/Observation-resultslab-eu-lab"/>
            </meta>
            <text>
               <status value="generated"/>
               <div xmlns="http://www.w3.org/1999/xhtml">
                  <table class="hl7__eu__lab__report">
                     <tr>
                        <th>Test</th>
                        <th>29-Jun-2017</th>
                        <th>Reference Range</th>
                        <th>Unit</th>
                     </tr>
                     <tr>
                        <td>Urea nitrogen [Mass/volume] in Serum or Plasma</td>
                        <td>14.5</td>
                        <td>7 - 20</td>
                        <td/>
                        <td>mg/dL</td>
                     </tr>
                  </table>
               </div>
            </text>
            <status value="final"/>
            <category>
               <coding>
                  <system value="http://terminology.hl7.org/CodeSystem/observation-category"/>
                  <code value="laboratory"/>
               </coding>
            </category>
            <code>
               <coding>
                  <system value="http://loinc.org"/>
                  <code value="3094-0"/>
                  <display value="Urea nitrogen [Mass/volume] in Serum or Plasma"/>
               </coding>
               <text value="Urea nitrogen [Mass/volume] in Serum or Plasma"/>
            </code>
            <subject>
               <reference value="urn:uuid:2ff1139a-ca21-4bec-849c-e4f8746555be"/>
               <display value="Molly Jenkins"/>
            </subject>
            <effectiveDateTime value="2017-06-29T14:42:11Z"/>
            <performer>
               <display value="The Central European Lab"/>
            </performer>
            <valueQuantity>
               <value value="14.5"/>
               <unit value="mg/dL"/>
               <system value="http://unitsofmeasure.org"/>
               <code value="mg/dL"/>
            </valueQuantity>
            <specimen>
               <reference value="urn:uuid:5cbcf0f5-3a6d-4045-ae45-76ff1c7f8509"/>
            </specimen>
            <referenceRange>
               <low>
                  <value value="7"/>
                  <system value="http://unitsofmeasure.org"/>
                  <code value="mg/dL"/>
               </low>
            </referenceRange>
            <referenceRange>
               <high>
                  <value value="20"/>
                  <system value="http://unitsofmeasure.org"/>
                  <code value="mg/dL"/>
               </high>
            </referenceRange>
         </Observation>
      </resource>
   </entry>
   <entry>
      <fullUrl value="urn:uuid:f2350eae-d560-4757-a568-8418ee67c79b"/>
      <resource>
         <Observation>
            <id value="f2350eae-d560-4757-a568-8418ee67c79b"/>
            <meta>
               <profile value="http://hl7.eu/fhir/laboratory/StructureDefinition/Observation-resultslab-eu-lab"/>
            </meta>
            <text>
               <status value="generated"/>
               <div xmlns="http://www.w3.org/1999/xhtml">
                  <table class="hl7__eu__lab__report">
                     <tr>
                        <th>Test</th>
                        <th>29-Jun-2017</th>
                        <th>Reference Range</th>
                        <th>Unit</th>
                     </tr>
                     <tr>
                        <td>Creatinine [Mass/volume] in Serum or Plasma</td>
                        <td>1.9</td>
                        <td>0.6 - 1.1</td>
                        <td>H</td>
                        <td>mg/dL</td>
                     </tr>
                  </table>
               </div>
            </text>
            <status value="final"/>
            <category>
               <coding>
                  <system value="http://terminology.hl7.org/CodeSystem/observation-category"/>
                  <code value="laboratory"/>
               </coding>
            </category>
            <code>
               <coding>
                  <system value="http://loinc.org"/>
                  <code value="2160-0"/>
                  <display value="Creatinine [Mass/volume] in Serum or Plasma"/>
               </coding>
               <text value="Creatinine [Mass/volume] in Serum or Plasma"/>
            </code>
            <subject>
               <reference value="urn:uuid:2ff1139a-ca21-4bec-849c-e4f8746555be"/>
               <display value="Molly Jenkins"/>
            </subject>
            <effectiveDateTime value="2017-06-29T14:42:11Z"/>
            <performer>
               <display value="The Central European Lab"/>
            </performer>
            <valueQuantity>
               <value value="1.9"/>
               <unit value="mg/dL"/>
               <system value="http://unitsofmeasure.org"/>
               <code value="mg/dL"/>
            </valueQuantity>
            <interpretation>
               <coding>
                  <system value="http://terminology.hl7.org/CodeSystem/v3-ObservationInterpretation"/>
                  <code value="H"/>
                  <display value="High"/>
               </coding>
            </interpretation>
            <specimen>
               <reference value="urn:uuid:5cbcf0f5-3a6d-4045-ae45-76ff1c7f8509"/>
            </specimen>
            <referenceRange>
               <low>
                  <value value="0.6"/>
                  <system value="http://unitsofmeasure.org"/>
                  <code value="mg/dL"/>
               </low>
            </referenceRange>
            <referenceRange>
               <high>
                  <value value="1.1"/>
                  <system value="http://unitsofmeasure.org"/>
                  <code value="mg/dL"/>
               </high>
            </referenceRange>
         </Observation>
      </resource>
   </entry>
   <entry>
      <fullUrl value="urn:uuid:3436a7a8-c72b-47c4-8cfc-14321d408780"/>
      <resource>
         <Observation>
            <id value="3436a7a8-c72b-47c4-8cfc-14321d408780"/>
            <meta>
               <profile value="http://hl7.eu/fhir/laboratory/StructureDefinition/Observation-resultslab-eu-lab"/>
            </meta>
            <text>
               <status value="generated"/>
               <div xmlns="http://www.w3.org/1999/xhtml">
                  <table class="hl7__eu__lab__report">
                     <tr>
                        <th>Test</th>
                        <th>29-Jun-2017</th>
                        <th>Reference Range</th>
                        <th>Unit</th>
                     </tr>
                     <tr>
                        <td>Calcium [Mass/volume] in Serum or Plasma</td>
                        <td>9.5</td>
                        <td>8.5 - 10.4</td>
                        <td/>
                        <td>mg/dL</td>
                     </tr>
                  </table>
               </div>
            </text>
            <status value="final"/>
            <category>
               <coding>
                  <system value="http://terminology.hl7.org/CodeSystem/observation-category"/>
                  <code value="laboratory"/>
               </coding>
            </category>
            <code>
               <coding>
                  <system value="http://loinc.org"/>
                  <code value="17861-6"/>
                  <display value="Calcium [Mass/volume] in Serum or Plasma"/>
               </coding>
               <text value="Calcium [Mass/volume] in Serum or Plasma"/>
            </code>
            <subject>
               <reference value="urn:uuid:2ff1139a-ca21-4bec-849c-e4f8746555be"/>
               <display value="Molly Jenkins"/>
            </subject>
            <effectiveDateTime value="2017-06-29T14:42:11Z"/>
            <performer>
               <display value="The Central European Lab"/>
            </performer>
            <valueQuantity>
               <value value="9.5"/>
               <unit value="mg/dL"/>
               <system value="http://unitsofmeasure.org"/>
               <code value="mg/dL"/>
            </valueQuantity>
            <specimen>
               <reference value="urn:uuid:5cbcf0f5-3a6d-4045-ae45-76ff1c7f8509"/>
            </specimen>
            <referenceRange>
               <low>
                  <value value="8.5"/>
                  <system value="http://unitsofmeasure.org"/>
                  <code value="mg/dL"/>
               </low>
            </referenceRange>
            <referenceRange>
               <high>
                  <value value="10.4"/>
                  <system value="http://unitsofmeasure.org"/>
                  <code value="mg/dL"/>
               </high>
            </referenceRange>
         </Observation>
      </resource>
   </entry>
   <entry>
      <fullUrl value="urn:uuid:e94e024c-9b24-4d3b-9aa1-2371c18ac3eb"/>
      <resource>
         <Observation>
            <id value="e94e024c-9b24-4d3b-9aa1-2371c18ac3eb"/>
            <meta>
               <profile value="http://hl7.eu/fhir/laboratory/StructureDefinition/Observation-resultslab-eu-lab"/>
            </meta>
            <text>
               <status value="generated"/>
               <div xmlns="http://www.w3.org/1999/xhtml">
                  <table class="hl7__eu__lab__report">
                     <tr>
                        <th>Test</th>
                        <th>29-Jun-2017</th>
                        <th>Reference Range</th>
                        <th>Unit</th>
                     </tr>
                     <tr>
                        <td>Sodium [Moles/volume] in Serum or Plasma</td>
                        <td>137.2</td>
                        <td>135 - 145</td>
                        <td/>
                        <td>mmol/L</td>
                     </tr>
                  </table>
               </div>
            </text>
            <status value="final"/>
            <category>
               <coding>
                  <system value="http://terminology.hl7.org/CodeSystem/observation-category"/>
                  <code value="laboratory"/>
               </coding>
            </category>
            <code>
               <coding>
                  <system value="http://loinc.org"/>
                  <code value="2951-2"/>
                  <display value="Sodium [Moles/volume] in Serum or Plasma"/>
               </coding>
               <text value="Sodium [Moles/volume] in Serum or Plasma"/>
            </code>
            <subject>
               <reference value="urn:uuid:2ff1139a-ca21-4bec-849c-e4f8746555be"/>
               <display value="Molly Jenkins"/>
            </subject>
            <effectiveDateTime value="2017-06-29T14:42:11Z"/>
            <performer>
               <display value="The Central European Lab"/>
            </performer>
            <valueQuantity>
               <value value="137.2"/>
               <unit value="mmol/L"/>
               <system value="http://unitsofmeasure.org"/>
               <code value="mmol/L"/>
            </valueQuantity>
            <specimen>
               <reference value="urn:uuid:5cbcf0f5-3a6d-4045-ae45-76ff1c7f8509"/>
            </specimen>
            <referenceRange>
               <low>
                  <value value="135"/>
                  <system value="http://unitsofmeasure.org"/>
                  <code value="mmol/L"/>
               </low>
            </referenceRange>
            <referenceRange>
               <high>
                  <value value="145"/>
                  <system value="http://unitsofmeasure.org"/>
                  <code value="mmol/L"/>
               </high>
            </referenceRange>
         </Observation>
      </resource>
   </entry>
   <entry>
      <fullUrl value="urn:uuid:bf4858b9-001e-4b38-9e6c-4203076b8d3c"/>
      <resource>
         <Observation>
            <id value="bf4858b9-001e-4b38-9e6c-4203076b8d3c"/>
            <meta>
               <profile value="http://hl7.eu/fhir/laboratory/StructureDefinition/Observation-resultslab-eu-lab"/>
            </meta>
            <text>
               <status value="generated"/>
               <div xmlns="http://www.w3.org/1999/xhtml">
                  <table class="hl7__eu__lab__report">
                     <tr>
                        <th>Test</th>
                        <th>29-Jun-2017</th>
                        <th>Reference Range</th>
                        <th>Unit</th>
                     </tr>
                     <tr>
                        <td>Potassium [Moles/volume] in Serum or Plasma</td>
                        <td>4.6</td>
                        <td>3.5 - 5.1</td>
                        <td/>
                        <td>mmol/L</td>
                     </tr>
                  </table>
               </div>
            </text>
            <status value="final"/>
            <category>
               <coding>
                  <system value="http://terminology.hl7.org/CodeSystem/observation-category"/>
                  <code value="laboratory"/>
               </coding>
            </category>
            <code>
               <coding>
                  <system value="http://loinc.org"/>
                  <code value="2823-3"/>
                  <display value="Potassium [Moles/volume] in Serum or Plasma"/>
               </coding>
               <text value="Potassium [Moles/volume] in Serum or Plasma"/>
            </code>
            <subject>
               <reference value="urn:uuid:2ff1139a-ca21-4bec-849c-e4f8746555be"/>
               <display value="Molly Jenkins"/>
            </subject>
            <effectiveDateTime value="2017-06-29T14:42:11Z"/>
            <performer>
               <display value="The Central European Lab"/>
            </performer>
            <valueQuantity>
               <value value="4.6"/>
               <unit value="mmol/L"/>
               <system value="http://unitsofmeasure.org"/>
               <code value="mmol/L"/>
            </valueQuantity>
            <specimen>
               <reference value="urn:uuid:5cbcf0f5-3a6d-4045-ae45-76ff1c7f8509"/>
            </specimen>
            <referenceRange>
               <low>
                  <value value="3.5"/>
                  <system value="http://unitsofmeasure.org"/>
                  <code value="mmol/L"/>
               </low>
            </referenceRange>
            <referenceRange>
               <high>
                  <value value="5.1"/>
                  <system value="http://unitsofmeasure.org"/>
                  <code value="mmol/L"/>
               </high>
            </referenceRange>
         </Observation>
      </resource>
   </entry>
   <entry>
      <fullUrl value="urn:uuid:67bdf101-d621-4ef5-9c28-fdcf7498a174"/>
      <resource>
         <Observation>
            <id value="67bdf101-d621-4ef5-9c28-fdcf7498a174"/>
            <meta>
               <profile value="http://hl7.eu/fhir/laboratory/StructureDefinition/Observation-resultslab-eu-lab"/>
            </meta>
            <text>
               <status value="generated"/>
               <div xmlns="http://www.w3.org/1999/xhtml">
                  <table class="hl7__eu__lab__report">
                     <tr>
                        <th>Test</th>
                        <th>29-Jun-2017</th>
                        <th>Reference Range</th>
                        <th>Unit</th>
                     </tr>
                     <tr>
                        <td>Chloride [Moles/volume] in Serum or Plasma</td>
                        <td>110.3</td>
                        <td>98 - 110</td>
                        <td>H</td>
                        <td>mmol/L</td>
                     </tr>
                  </table>
               </div>
            </text>
            <status value="final"/>
            <category>
               <coding>
                  <system value="http://terminology.hl7.org/CodeSystem/observation-category"/>
                  <code value="laboratory"/>
               </coding>
            </category>
            <code>
               <coding>
                  <system value="http://loinc.org"/>
                  <code value="2075-0"/>
                  <display value="Chloride [Moles/volume] in Serum or Plasma"/>
               </coding>
               <text value="Chloride [Moles/volume] in Serum or Plasma"/>
            </code>
            <subject>
               <reference value="urn:uuid:2ff1139a-ca21-4bec-849c-e4f8746555be"/>
               <display value="Molly Jenkins"/>
            </subject>
            <effectiveDateTime value="2017-06-29T14:42:11Z"/>
            <performer>
               <display value="The Central European Lab"/>
            </performer>
            <valueQuantity>
               <value value="110.3"/>
               <unit value="mmol/L"/>
               <system value="http://unitsofmeasure.org"/>
               <code value="mmol/L"/>
            </valueQuantity>
            <interpretation>
               <coding>
                  <system value="http://terminology.hl7.org/CodeSystem/v3-ObservationInterpretation"/>
                  <code value="H"/>
                  <display value="High"/>
               </coding>
            </interpretation>
            <specimen>
               <reference value="urn:uuid:5cbcf0f5-3a6d-4045-ae45-76ff1c7f8509"/>
            </specimen>
            <referenceRange>
               <low>
                  <value value="98"/>
                  <system value="http://unitsofmeasure.org"/>
                  <code value="mmol/L"/>
               </low>
            </referenceRange>
            <referenceRange>
               <high>
                  <value value="110"/>
                  <system value="http://unitsofmeasure.org"/>
                  <code value="mmol/L"/>
               </high>
            </referenceRange>
         </Observation>
      </resource>
   </entry>
   <entry>
      <fullUrl value="urn:uuid:64b94c20-e6b9-4bf7-b577-79c44668e83b"/>
      <resource>
         <Observation>
            <id value="64b94c20-e6b9-4bf7-b577-79c44668e83b"/>
            <meta>
               <profile value="http://hl7.eu/fhir/laboratory/StructureDefinition/Observation-resultslab-eu-lab"/>
            </meta>
            <text>
               <status value="generated"/>
               <div xmlns="http://www.w3.org/1999/xhtml">
                  <table class="hl7__eu__lab__report">
                     <tr>
                        <th>Test</th>
                        <th>29-Jun-2017</th>
                        <th>Reference Range</th>
                        <th>Unit</th>
                     </tr>
                     <tr>
                        <td>Carbon dioxide, total [Moles/volume] in Serum or Plasma</td>
                        <td>23.8</td>
                        <td>22 - 32</td>
                        <td/>
                        <td>mmol/L</td>
                     </tr>
                  </table>
               </div>
            </text>
            <status value="final"/>
            <category>
               <coding>
                  <system value="http://terminology.hl7.org/CodeSystem/observation-category"/>
                  <code value="laboratory"/>
               </coding>
            </category>
            <code>
               <coding>
                  <system value="http://loinc.org"/>
                  <code value="2028-9"/>
                  <display value="Carbon dioxide, total [Moles/volume] in Serum or Plasma"/>
               </coding>
               <text value="Carbon dioxide, total [Moles/volume] in Serum or Plasma"/>
            </code>
            <subject>
               <reference value="urn:uuid:2ff1139a-ca21-4bec-849c-e4f8746555be"/>
               <display value="Molly Jenkins"/>
            </subject>
            <effectiveDateTime value="2017-06-29T14:42:11Z"/>
            <performer>
               <display value="The Central European Lab"/>
            </performer>
            <valueQuantity>
               <value value="23.8"/>
               <unit value="mmol/L"/>
               <system value="http://unitsofmeasure.org"/>
               <code value="mmol/L"/>
            </valueQuantity>
            <specimen>
               <reference value="urn:uuid:5cbcf0f5-3a6d-4045-ae45-76ff1c7f8509"/>
            </specimen>
            <referenceRange>
               <low>
                  <value value="22"/>
                  <system value="http://unitsofmeasure.org"/>
                  <code value="mmol/L"/>
               </low>
            </referenceRange>
            <referenceRange>
               <high>
                  <value value="32"/>
                  <system value="http://unitsofmeasure.org"/>
                  <code value="mmol/L"/>
               </high>
            </referenceRange>
         </Observation>
      </resource>
   </entry>
   <entry>
      <fullUrl value="urn:uuid:4dca30c7-001b-43af-abd5-6d7f2b0fe336"/>
      <resource>
         <Observation>
            <id value="4dca30c7-001b-43af-abd5-6d7f2b0fe336"/>
            <meta>
               <profile value="http://hl7.eu/fhir/laboratory/StructureDefinition/Observation-resultslab-eu-lab"/>
            </meta>
            <text>
               <status value="generated"/>
               <div xmlns="http://www.w3.org/1999/xhtml">
                  <table class="hl7__eu__lab__report">
                     <tr>
                        <th>Test</th>
                        <th>29-Jun-2017</th>
                        <th>Reference Range</th>
                        <th>Unit</th>
                     </tr>
                     <tr>
                        <td>Appearance of Urine</td>
                     </tr>
                  </table>
               </div>
            </text>
            <status value="final"/>
            <category>
               <coding>
                  <system value="http://terminology.hl7.org/CodeSystem/observation-category"/>
                  <code value="laboratory"/>
               </coding>
            </category>
            <code>
               <coding>
                  <system value="http://loinc.org"/>
                  <code value="5767-9"/>
                  <display value="Appearance of Urine"/>
               </coding>
               <text value="Appearance of Urine"/>
            </code>
            <subject>
               <reference value="urn:uuid:2ff1139a-ca21-4bec-849c-e4f8746555be"/>
               <display value="Molly Jenkins"/>
            </subject>
            <effectiveDateTime value="2017-06-29T14:42:11Z"/>
            <performer>
               <display value="The Central European Lab"/>
            </performer>
            <specimen>
               <reference value="urn:uuid:75a714bc-09c6-4ddd-8e69-8d86f8630539"/>
            </specimen>
         </Observation>
      </resource>
   </entry>
   <entry>
      <fullUrl value="urn:uuid:8bbfa7d1-152f-4b5a-9a18-4f0b3937c9c1"/>
      <resource>
         <Observation>
            <id value="8bbfa7d1-152f-4b5a-9a18-4f0b3937c9c1"/>
            <meta>
               <profile value="http://hl7.eu/fhir/laboratory/StructureDefinition/Observation-resultslab-eu-lab"/>
            </meta>
            <text>
               <status value="generated"/>
               <div xmlns="http://www.w3.org/1999/xhtml">
                  <table class="hl7__eu__lab__report">
                     <tr>
                        <th>Test</th>
                        <th>29-Jun-2017</th>
                        <th>Reference Range</th>
                        <th>Unit</th>
                     </tr>
                     <tr>
                        <td>Odor of Urine</td>
                     </tr>
                  </table>
               </div>
            </text>
            <status value="final"/>
            <category>
               <coding>
                  <system value="http://terminology.hl7.org/CodeSystem/observation-category"/>
                  <code value="laboratory"/>
               </coding>
            </category>
            <code>
               <coding>
                  <system value="http://loinc.org"/>
                  <code value="34533-0"/>
                  <display value="Odor of Urine"/>
               </coding>
               <text value="Odor of Urine"/>
            </code>
            <subject>
               <reference value="urn:uuid:2ff1139a-ca21-4bec-849c-e4f8746555be"/>
               <display value="Molly Jenkins"/>
            </subject>
            <effectiveDateTime value="2017-06-29T14:42:11Z"/>
            <performer>
               <display value="The Central European Lab"/>
            </performer>
            <specimen>
               <reference value="urn:uuid:75a714bc-09c6-4ddd-8e69-8d86f8630539"/>
            </specimen>
         </Observation>
      </resource>
   </entry>
   <entry>
      <fullUrl value="urn:uuid:595e9da2-0a4e-462a-8cc2-abb3ec28c200"/>
      <resource>
         <Observation>
            <id value="595e9da2-0a4e-462a-8cc2-abb3ec28c200"/>
            <meta>
               <profile value="http://hl7.eu/fhir/laboratory/StructureDefinition/Observation-resultslab-eu-lab"/>
            </meta>
            <text>
               <status value="generated"/>
               <div xmlns="http://www.w3.org/1999/xhtml">
                  <table class="hl7__eu__lab__report">
                     <tr>
                        <th>Test</th>
                        <th>29-Jun-2017</th>
                        <th>Reference Range</th>
                        <th>Unit</th>
                     </tr>
                     <tr>
                        <td>Clarity of Urine</td>
                     </tr>
                  </table>
               </div>
            </text>
            <status value="final"/>
            <category>
               <coding>
                  <system value="http://terminology.hl7.org/CodeSystem/observation-category"/>
                  <code value="laboratory"/>
               </coding>
            </category>
            <code>
               <coding>
                  <system value="http://loinc.org"/>
                  <code value="32167-9"/>
                  <display value="Clarity of Urine"/>
               </coding>
               <text value="Clarity of Urine"/>
            </code>
            <subject>
               <reference value="urn:uuid:2ff1139a-ca21-4bec-849c-e4f8746555be"/>
               <display value="Molly Jenkins"/>
            </subject>
            <effectiveDateTime value="2017-06-29T14:42:11Z"/>
            <performer>
               <display value="The Central European Lab"/>
            </performer>
            <specimen>
               <reference value="urn:uuid:75a714bc-09c6-4ddd-8e69-8d86f8630539"/>
            </specimen>
         </Observation>
      </resource>
   </entry>
   <entry>
      <fullUrl value="urn:uuid:2d7718e1-2cd8-419f-984a-4fa65c8d93f2"/>
      <resource>
         <Observation>
            <id value="2d7718e1-2cd8-419f-984a-4fa65c8d93f2"/>
            <meta>
               <profile value="http://hl7.eu/fhir/laboratory/StructureDefinition/Observation-resultslab-eu-lab"/>
            </meta>
            <text>
               <status value="generated"/>
               <div xmlns="http://www.w3.org/1999/xhtml">
                  <table class="hl7__eu__lab__report">
                     <tr>
                        <th>Test</th>
                        <th>29-Jun-2017</th>
                        <th>Reference Range</th>
                        <th>Unit</th>
                     </tr>
                     <tr>
                        <td>Color of Urine</td>
                     </tr>
                  </table>
               </div>
            </text>
            <status value="final"/>
            <category>
               <coding>
                  <system value="http://terminology.hl7.org/CodeSystem/observation-category"/>
                  <code value="laboratory"/>
               </coding>
            </category>
            <code>
               <coding>
                  <system value="http://loinc.org"/>
                  <code value="5778-6"/>
                  <display value="Color of Urine"/>
               </coding>
               <text value="Color of Urine"/>
            </code>
            <subject>
               <reference value="urn:uuid:2ff1139a-ca21-4bec-849c-e4f8746555be"/>
               <display value="Molly Jenkins"/>
            </subject>
            <effectiveDateTime value="2017-06-29T14:42:11Z"/>
            <performer>
               <display value="The Central European Lab"/>
            </performer>
            <specimen>
               <reference value="urn:uuid:75a714bc-09c6-4ddd-8e69-8d86f8630539"/>
            </specimen>
         </Observation>
      </resource>
   </entry>
   <entry>
      <fullUrl value="urn:uuid:d47e209b-2abd-43c7-b4bd-d9d3585407e5"/>
      <resource>
         <Observation>
            <id value="d47e209b-2abd-43c7-b4bd-d9d3585407e5"/>
            <meta>
               <profile value="http://hl7.eu/fhir/laboratory/StructureDefinition/Observation-resultslab-eu-lab"/>
            </meta>
            <text>
               <status value="generated"/>
               <div xmlns="http://www.w3.org/1999/xhtml">
                  <table class="hl7__eu__lab__report">
                     <tr>
                        <th>Test</th>
                        <th>29-Jun-2017</th>
                        <th>Reference Range</th>
                        <th>Unit</th>
                     </tr>
                     <tr>
                        <td>Glucose [Mass/volume] in Urine by Test strip</td>
                        <td>2.4</td>
                        <td>0 - 0</td>
                        <td>H</td>
                        <td>mg/dL</td>
                     </tr>
                  </table>
               </div>
            </text>
            <status value="final"/>
            <category>
               <coding>
                  <system value="http://terminology.hl7.org/CodeSystem/observation-category"/>
                  <code value="laboratory"/>
               </coding>
            </category>
            <code>
               <coding>
                  <system value="http://loinc.org"/>
                  <code value="5792-7"/>
                  <display value="Glucose [Mass/volume] in Urine by Test strip"/>
               </coding>
               <text value="Glucose [Mass/volume] in Urine by Test strip"/>
            </code>
            <subject>
               <reference value="urn:uuid:2ff1139a-ca21-4bec-849c-e4f8746555be"/>
               <display value="Molly Jenkins"/>
            </subject>
            <effectiveDateTime value="2017-06-29T14:42:11Z"/>
            <performer>
               <display value="The Central European Lab"/>
            </performer>
            <valueQuantity>
               <value value="2.4"/>
               <unit value="mg/dL"/>
               <system value="http://unitsofmeasure.org"/>
               <code value="mg/dL"/>
            </valueQuantity>
            <interpretation>
               <coding>
                  <system value="http://terminology.hl7.org/CodeSystem/v3-ObservationInterpretation"/>
                  <code value="H"/>
                  <display value="High"/>
               </coding>
            </interpretation>
            <specimen>
               <reference value="urn:uuid:75a714bc-09c6-4ddd-8e69-8d86f8630539"/>
            </specimen>
            <referenceRange>
               <low>
                  <value value="0"/>
                  <system value="http://unitsofmeasure.org"/>
                  <code value="mg/dL"/>
               </low>
            </referenceRange>
            <referenceRange>
               <high>
                  <value value="0"/>
                  <system value="http://unitsofmeasure.org"/>
                  <code value="mg/dL"/>
               </high>
            </referenceRange>
         </Observation>
      </resource>
   </entry>
   <entry>
      <fullUrl value="urn:uuid:02047cdb-55bf-4f48-9f75-c908059f7831"/>
      <resource>
         <Observation>
            <id value="02047cdb-55bf-4f48-9f75-c908059f7831"/>
            <meta>
               <profile value="http://hl7.eu/fhir/laboratory/StructureDefinition/Observation-resultslab-eu-lab"/>
            </meta>
            <text>
               <status value="generated"/>
               <div xmlns="http://www.w3.org/1999/xhtml">
                  <table class="hl7__eu__lab__report">
                     <tr>
                        <th>Test</th>
                        <th>29-Jun-2017</th>
                        <th>Reference Range</th>
                        <th>Unit</th>
                     </tr>
                     <tr>
                        <td>Glucose [Presence] in Urine by Test strip</td>
                     </tr>
                  </table>
               </div>
            </text>
            <status value="final"/>
            <category>
               <coding>
                  <system value="http://terminology.hl7.org/CodeSystem/observation-category"/>
                  <code value="laboratory"/>
               </coding>
            </category>
            <code>
               <coding>
                  <system value="http://loinc.org"/>
                  <code value="25428-4"/>
                  <display value="Glucose [Presence] in Urine by Test strip"/>
               </coding>
               <text value="Glucose [Presence] in Urine by Test strip"/>
            </code>
            <subject>
               <reference value="urn:uuid:2ff1139a-ca21-4bec-849c-e4f8746555be"/>
               <display value="Molly Jenkins"/>
            </subject>
            <effectiveDateTime value="2017-06-29T14:42:11Z"/>
            <performer>
               <display value="The Central European Lab"/>
            </performer>
            <specimen>
               <reference value="urn:uuid:75a714bc-09c6-4ddd-8e69-8d86f8630539"/>
            </specimen>
         </Observation>
      </resource>
   </entry>
   <entry>
      <fullUrl value="urn:uuid:5d3a85be-7d9a-4d3e-9f81-3decf666d2e6"/>
      <resource>
         <Observation>
            <id value="5d3a85be-7d9a-4d3e-9f81-3decf666d2e6"/>
            <meta>
               <profile value="http://hl7.eu/fhir/laboratory/StructureDefinition/Observation-resultslab-eu-lab"/>
            </meta>
            <text>
               <status value="generated"/>
               <div xmlns="http://www.w3.org/1999/xhtml">
                  <table class="hl7__eu__lab__report">
                     <tr>
                        <th>Test</th>
                        <th>29-Jun-2017</th>
                        <th>Reference Range</th>
                        <th>Unit</th>
                     </tr>
                     <tr>
                        <td>Bilirubin.total [Mass/volume] in Urine by Test strip</td>
                        <td>1.3</td>
                        <td>0 - 1.6</td>
                        <td/>
                        <td>mg/dL</td>
                     </tr>
                  </table>
               </div>
            </text>
            <status value="final"/>
            <category>
               <coding>
                  <system value="http://terminology.hl7.org/CodeSystem/observation-category"/>
                  <code value="laboratory"/>
               </coding>
            </category>
            <code>
               <coding>
                  <system value="http://loinc.org"/>
                  <code value="20505-4"/>
                  <display value="Bilirubin.total [Mass/volume] in Urine by Test strip"/>
               </coding>
               <text value="Bilirubin.total [Mass/volume] in Urine by Test strip"/>
            </code>
            <subject>
               <reference value="urn:uuid:2ff1139a-ca21-4bec-849c-e4f8746555be"/>
               <display value="Molly Jenkins"/>
            </subject>
            <effectiveDateTime value="2017-06-29T14:42:11Z"/>
            <performer>
               <display value="The Central European Lab"/>
            </performer>
            <valueQuantity>
               <value value="1.3"/>
               <unit value="mg/dL"/>
               <system value="http://unitsofmeasure.org"/>
               <code value="mg/dL"/>
            </valueQuantity>
            <specimen>
               <reference value="urn:uuid:75a714bc-09c6-4ddd-8e69-8d86f8630539"/>
            </specimen>
            <referenceRange>
               <low>
                  <value value="0"/>
                  <system value="http://unitsofmeasure.org"/>
                  <code value="mg/dL"/>
               </low>
            </referenceRange>
            <referenceRange>
               <high>
                  <value value="1.6"/>
                  <system value="http://unitsofmeasure.org"/>
                  <code value="mg/dL"/>
               </high>
            </referenceRange>
         </Observation>
      </resource>
   </entry>
   <entry>
      <fullUrl value="urn:uuid:a564aec3-dd1b-4240-8085-d0e5c9b56ad2"/>
      <resource>
         <Observation>
            <id value="a564aec3-dd1b-4240-8085-d0e5c9b56ad2"/>
            <meta>
               <profile value="http://hl7.eu/fhir/laboratory/StructureDefinition/Observation-resultslab-eu-lab"/>
            </meta>
            <text>
               <status value="generated"/>
               <div xmlns="http://www.w3.org/1999/xhtml">
                  <table class="hl7__eu__lab__report">
                     <tr>
                        <th>Test</th>
                        <th>29-Jun-2017</th>
                        <th>Reference Range</th>
                        <th>Unit</th>
                     </tr>
                     <tr>
                        <td>Bilirubin.total [Presence] in Urine by Test strip</td>
                     </tr>
                  </table>
               </div>
            </text>
            <status value="final"/>
            <category>
               <coding>
                  <system value="http://terminology.hl7.org/CodeSystem/observation-category"/>
                  <code value="laboratory"/>
               </coding>
            </category>
            <code>
               <coding>
                  <system value="http://loinc.org"/>
                  <code value="5770-3"/>
                  <display value="Bilirubin.total [Presence] in Urine by Test strip"/>
               </coding>
               <text value="Bilirubin.total [Presence] in Urine by Test strip"/>
            </code>
            <subject>
               <reference value="urn:uuid:2ff1139a-ca21-4bec-849c-e4f8746555be"/>
               <display value="Molly Jenkins"/>
            </subject>
            <effectiveDateTime value="2017-06-29T14:42:11Z"/>
            <performer>
               <display value="The Central European Lab"/>
            </performer>
            <specimen>
               <reference value="urn:uuid:75a714bc-09c6-4ddd-8e69-8d86f8630539"/>
            </specimen>
         </Observation>
      </resource>
   </entry>
   <entry>
      <fullUrl value="urn:uuid:095df643-10ca-4d01-b371-9d2278b2edc7"/>
      <resource>
         <Observation>
            <id value="095df643-10ca-4d01-b371-9d2278b2edc7"/>
            <meta>
               <profile value="http://hl7.eu/fhir/laboratory/StructureDefinition/Observation-resultslab-eu-lab"/>
            </meta>
            <text>
               <status value="generated"/>
               <div xmlns="http://www.w3.org/1999/xhtml">
                  <table class="hl7__eu__lab__report">
                     <tr>
                        <th>Test</th>
                        <th>29-Jun-2017</th>
                        <th>Reference Range</th>
                        <th>Unit</th>
                     </tr>
                     <tr>
                        <td>Ketones [Mass/volume] in Urine by Test strip</td>
                        <td>10.8</td>
                        <td>0 - 0.5</td>
                        <td>H</td>
                        <td>mg/dL</td>
                     </tr>
                  </table>
               </div>
            </text>
            <status value="final"/>
            <category>
               <coding>
                  <system value="http://terminology.hl7.org/CodeSystem/observation-category"/>
                  <code value="laboratory"/>
               </coding>
            </category>
            <code>
               <coding>
                  <system value="http://loinc.org"/>
                  <code value="5797-6"/>
                  <display value="Ketones [Mass/volume] in Urine by Test strip"/>
               </coding>
               <text value="Ketones [Mass/volume] in Urine by Test strip"/>
            </code>
            <subject>
               <reference value="urn:uuid:2ff1139a-ca21-4bec-849c-e4f8746555be"/>
               <display value="Molly Jenkins"/>
            </subject>
            <effectiveDateTime value="2017-06-29T14:42:11Z"/>
            <performer>
               <display value="The Central European Lab"/>
            </performer>
            <valueQuantity>
               <value value="10.8"/>
               <unit value="mg/dL"/>
               <system value="http://unitsofmeasure.org"/>
               <code value="mg/dL"/>
            </valueQuantity>
            <interpretation>
               <coding>
                  <system value="http://terminology.hl7.org/CodeSystem/v3-ObservationInterpretation"/>
                  <code value="H"/>
                  <display value="High"/>
               </coding>
            </interpretation>
            <specimen>
               <reference value="urn:uuid:75a714bc-09c6-4ddd-8e69-8d86f8630539"/>
            </specimen>
            <referenceRange>
               <low>
                  <value value="0"/>
                  <system value="http://unitsofmeasure.org"/>
                  <code value="mg/dL"/>
               </low>
            </referenceRange>
            <referenceRange>
               <high>
                  <value value="0.5"/>
                  <system value="http://unitsofmeasure.org"/>
                  <code value="mg/dL"/>
               </high>
            </referenceRange>
         </Observation>
      </resource>
   </entry>
   <entry>
      <fullUrl value="urn:uuid:4176e594-f3f0-4bf9-a5d7-acf1e698f825"/>
      <resource>
         <Observation>
            <id value="4176e594-f3f0-4bf9-a5d7-acf1e698f825"/>
            <meta>
               <profile value="http://hl7.eu/fhir/laboratory/StructureDefinition/Observation-resultslab-eu-lab"/>
            </meta>
            <text>
               <status value="generated"/>
               <div xmlns="http://www.w3.org/1999/xhtml">
                  <table class="hl7__eu__lab__report">
                     <tr>
                        <th>Test</th>
                        <th>29-Jun-2017</th>
                        <th>Reference Range</th>
                        <th>Unit</th>
                     </tr>
                     <tr>
                        <td>Ketones [Presence] in Urine by Test strip</td>
                     </tr>
                  </table>
               </div>
            </text>
            <status value="final"/>
            <category>
               <coding>
                  <system value="http://terminology.hl7.org/CodeSystem/observation-category"/>
                  <code value="laboratory"/>
               </coding>
            </category>
            <code>
               <coding>
                  <system value="http://loinc.org"/>
                  <code value="2514-8"/>
                  <display value="Ketones [Presence] in Urine by Test strip"/>
               </coding>
               <text value="Ketones [Presence] in Urine by Test strip"/>
            </code>
            <subject>
               <reference value="urn:uuid:2ff1139a-ca21-4bec-849c-e4f8746555be"/>
               <display value="Molly Jenkins"/>
            </subject>
            <effectiveDateTime value="2017-06-29T14:42:11Z"/>
            <performer>
               <display value="The Central European Lab"/>
            </performer>
            <specimen>
               <reference value="urn:uuid:75a714bc-09c6-4ddd-8e69-8d86f8630539"/>
            </specimen>
         </Observation>
      </resource>
   </entry>
   <entry>
      <fullUrl value="urn:uuid:129a2363-abe4-4033-a235-c739ec4789ff"/>
      <resource>
         <Observation>
            <id value="129a2363-abe4-4033-a235-c739ec4789ff"/>
            <meta>
               <profile value="http://hl7.eu/fhir/laboratory/StructureDefinition/Observation-resultslab-eu-lab"/>
            </meta>
            <text>
               <status value="generated"/>
               <div xmlns="http://www.w3.org/1999/xhtml">
                  <table class="hl7__eu__lab__report">
                     <tr>
                        <th>Test</th>
                        <th>29-Jun-2017</th>
                        <th>Reference Range</th>
                        <th>Unit</th>
                     </tr>
                     <tr>
                        <td>Specific gravity of Urine by Test strip</td>
                        <td>1.0</td>
                        <td>1.005 - 1.03</td>
                        <td>L</td>
                        <td>{nominal}</td>
                     </tr>
                  </table>
               </div>
            </text>
            <status value="final"/>
            <category>
               <coding>
                  <system value="http://terminology.hl7.org/CodeSystem/observation-category"/>
                  <code value="laboratory"/>
               </coding>
            </category>
            <code>
               <coding>
                  <system value="http://loinc.org"/>
                  <code value="5811-5"/>
                  <display value="Specific gravity of Urine by Test strip"/>
               </coding>
               <text value="Specific gravity of Urine by Test strip"/>
            </code>
            <subject>
               <reference value="urn:uuid:2ff1139a-ca21-4bec-849c-e4f8746555be"/>
               <display value="Molly Jenkins"/>
            </subject>
            <effectiveDateTime value="2017-06-29T14:42:11Z"/>
            <performer>
               <display value="The Central European Lab"/>
            </performer>
            <valueQuantity>
               <value value="1"/>
               <unit value="{nominal}"/>
               <system value="http://unitsofmeasure.org"/>
               <code value="{nominal}"/>
            </valueQuantity>
            <interpretation>
               <coding>
                  <system value="http://terminology.hl7.org/CodeSystem/v3-ObservationInterpretation"/>
                  <code value="L"/>
                  <display value="Low"/>
               </coding>
            </interpretation>
            <specimen>
               <reference value="urn:uuid:75a714bc-09c6-4ddd-8e69-8d86f8630539"/>
            </specimen>
            <referenceRange>
               <low>
                  <value value="1.005"/>
                  <system value="http://unitsofmeasure.org"/>
                  <code value="g/mL"/>
               </low>
            </referenceRange>
            <referenceRange>
               <high>
                  <value value="1.03"/>
                  <system value="http://unitsofmeasure.org"/>
                  <code value="g/mL"/>
               </high>
            </referenceRange>
         </Observation>
      </resource>
   </entry>
   <entry>
      <fullUrl value="urn:uuid:91d9f9b4-27a3-431d-b7de-f4efe28891a4"/>
      <resource>
         <Observation>
            <id value="91d9f9b4-27a3-431d-b7de-f4efe28891a4"/>
            <meta>
               <profile value="http://hl7.eu/fhir/laboratory/StructureDefinition/Observation-resultslab-eu-lab"/>
            </meta>
            <text>
               <status value="generated"/>
               <div xmlns="http://www.w3.org/1999/xhtml">
                  <table class="hl7__eu__lab__report">
                     <tr>
                        <th>Test</th>
                        <th>29-Jun-2017</th>
                        <th>Reference Range</th>
                        <th>Unit</th>
                     </tr>
                     <tr>
                        <td>pH of Urine by Test strip</td>
                        <td>5.6</td>
                        <td>4.5 - 7.5</td>
                        <td/>
                        <td>pH</td>
                     </tr>
                  </table>
               </div>
            </text>
            <status value="final"/>
            <category>
               <coding>
                  <system value="http://terminology.hl7.org/CodeSystem/observation-category"/>
                  <code value="laboratory"/>
               </coding>
            </category>
            <code>
               <coding>
                  <system value="http://loinc.org"/>
                  <code value="5803-2"/>
                  <display value="pH of Urine by Test strip"/>
               </coding>
               <text value="pH of Urine by Test strip"/>
            </code>
            <subject>
               <reference value="urn:uuid:2ff1139a-ca21-4bec-849c-e4f8746555be"/>
               <display value="Molly Jenkins"/>
            </subject>
            <effectiveDateTime value="2017-06-29T14:42:11Z"/>
            <performer>
               <display value="The Central European Lab"/>
            </performer>
            <valueQuantity>
               <value value="5.6"/>
               <unit value="pH"/>
               <system value="http://unitsofmeasure.org"/>
               <code value="pH"/>
            </valueQuantity>
            <specimen>
               <reference value="urn:uuid:75a714bc-09c6-4ddd-8e69-8d86f8630539"/>
            </specimen>
            <referenceRange>
               <low>
                  <value value="4.5"/>
                  <system value="http://unitsofmeasure.org"/>
                  <code value="pH"/>
               </low>
            </referenceRange>
            <referenceRange>
               <high>
                  <value value="7.5"/>
                  <system value="http://unitsofmeasure.org"/>
                  <code value="pH"/>
               </high>
            </referenceRange>
         </Observation>
      </resource>
   </entry>
   <entry>
      <fullUrl value="urn:uuid:387f9c75-40d1-4031-b931-3fd277d1d349"/>
      <resource>
         <Observation>
            <id value="387f9c75-40d1-4031-b931-3fd277d1d349"/>
            <meta>
               <profile value="http://hl7.eu/fhir/laboratory/StructureDefinition/Observation-resultslab-eu-lab"/>
            </meta>
            <text>
               <status value="generated"/>
               <div xmlns="http://www.w3.org/1999/xhtml">
                  <table class="hl7__eu__lab__report">
                     <tr>
                        <th>Test</th>
                        <th>29-Jun-2017</th>
                        <th>Reference Range</th>
                        <th>Unit</th>
                     </tr>
                     <tr>
                        <td>Protein [Mass/volume] in Urine by Test strip</td>
                        <td>274.5</td>
                        <td>0 - 15</td>
                        <td>H</td>
                        <td>mg/dL</td>
                     </tr>
                  </table>
               </div>
            </text>
            <status value="final"/>
            <category>
               <coding>
                  <system value="http://terminology.hl7.org/CodeSystem/observation-category"/>
                  <code value="laboratory"/>
               </coding>
            </category>
            <code>
               <coding>
                  <system value="http://loinc.org"/>
                  <code value="5804-0"/>
                  <display value="Protein [Mass/volume] in Urine by Test strip"/>
               </coding>
               <text value="Protein [Mass/volume] in Urine by Test strip"/>
            </code>
            <subject>
               <reference value="urn:uuid:2ff1139a-ca21-4bec-849c-e4f8746555be"/>
               <display value="Molly Jenkins"/>
            </subject>
            <effectiveDateTime value="2017-06-29T14:42:11Z"/>
            <performer>
               <display value="The Central European Lab"/>
            </performer>
            <valueQuantity>
               <value value="274.5"/>
               <unit value="mg/dL"/>
               <system value="http://unitsofmeasure.org"/>
               <code value="mg/dL"/>
            </valueQuantity>
            <interpretation>
               <coding>
                  <system value="http://terminology.hl7.org/CodeSystem/v3-ObservationInterpretation"/>
                  <code value="H"/>
                  <display value="High"/>
               </coding>
            </interpretation>
            <specimen>
               <reference value="urn:uuid:75a714bc-09c6-4ddd-8e69-8d86f8630539"/>
            </specimen>
            <referenceRange>
               <low>
                  <value value="0"/>
                  <system value="http://unitsofmeasure.org"/>
                  <code value="mg/dL"/>
               </low>
            </referenceRange>
            <referenceRange>
               <high>
                  <value value="15"/>
                  <system value="http://unitsofmeasure.org"/>
                  <code value="mg/dL"/>
               </high>
            </referenceRange>
         </Observation>
      </resource>
   </entry>
   <entry>
      <fullUrl value="urn:uuid:782a2458-c917-46af-8973-1f1e7aae401c"/>
      <resource>
         <Observation>
            <id value="782a2458-c917-46af-8973-1f1e7aae401c"/>
            <meta>
               <profile value="http://hl7.eu/fhir/laboratory/StructureDefinition/Observation-resultslab-eu-lab"/>
            </meta>
            <text>
               <status value="generated"/>
               <div xmlns="http://www.w3.org/1999/xhtml">
                  <table class="hl7__eu__lab__report">
                     <tr>
                        <th>Test</th>
                        <th>29-Jun-2017</th>
                        <th>Reference Range</th>
                        <th>Unit</th>
                     </tr>
                     <tr>
                        <td>Protein [Presence] in Urine by Test strip</td>
                     </tr>
                  </table>
               </div>
            </text>
            <status value="final"/>
            <category>
               <coding>
                  <system value="http://terminology.hl7.org/CodeSystem/observation-category"/>
                  <code value="laboratory"/>
               </coding>
            </category>
            <code>
               <coding>
                  <system value="http://loinc.org"/>
                  <code value="20454-5"/>
                  <display value="Protein [Presence] in Urine by Test strip"/>
               </coding>
               <text value="Protein [Presence] in Urine by Test strip"/>
            </code>
            <subject>
               <reference value="urn:uuid:2ff1139a-ca21-4bec-849c-e4f8746555be"/>
               <display value="Molly Jenkins"/>
            </subject>
            <effectiveDateTime value="2017-06-29T14:42:11Z"/>
            <performer>
               <display value="The Central European Lab"/>
            </performer>
            <specimen>
               <reference value="urn:uuid:75a714bc-09c6-4ddd-8e69-8d86f8630539"/>
            </specimen>
         </Observation>
      </resource>
   </entry>
   <entry>
      <fullUrl value="urn:uuid:6d743c98-b218-4d52-b68e-81378bf2f64e"/>
      <resource>
         <Observation>
            <id value="6d743c98-b218-4d52-b68e-81378bf2f64e"/>
            <meta>
               <profile value="http://hl7.eu/fhir/laboratory/StructureDefinition/Observation-resultslab-eu-lab"/>
            </meta>
            <text>
               <status value="generated"/>
               <div xmlns="http://www.w3.org/1999/xhtml">
                  <table class="hl7__eu__lab__report">
                     <tr>
                        <th>Test</th>
                        <th>29-Jun-2017</th>
                        <th>Reference Range</th>
                        <th>Unit</th>
                     </tr>
                     <tr>
                        <td>Nitrite [Presence] in Urine by Test strip</td>
                     </tr>
                  </table>
               </div>
            </text>
            <status value="final"/>
            <category>
               <coding>
                  <system value="http://terminology.hl7.org/CodeSystem/observation-category"/>
                  <code value="laboratory"/>
               </coding>
            </category>
            <code>
               <coding>
                  <system value="http://loinc.org"/>
                  <code value="5802-4"/>
                  <display value="Nitrite [Presence] in Urine by Test strip"/>
               </coding>
               <text value="Nitrite [Presence] in Urine by Test strip"/>
            </code>
            <subject>
               <reference value="urn:uuid:2ff1139a-ca21-4bec-849c-e4f8746555be"/>
               <display value="Molly Jenkins"/>
            </subject>
            <effectiveDateTime value="2017-06-29T14:42:11Z"/>
            <performer>
               <display value="The Central European Lab"/>
            </performer>
            <specimen>
               <reference value="urn:uuid:75a714bc-09c6-4ddd-8e69-8d86f8630539"/>
            </specimen>
         </Observation>
      </resource>
   </entry>
   <entry>
      <fullUrl value="urn:uuid:fb3874ee-4ed9-4722-90f5-36d7e4b52b24"/>
      <resource>
         <Observation>
            <id value="fb3874ee-4ed9-4722-90f5-36d7e4b52b24"/>
            <meta>
               <profile value="http://hl7.eu/fhir/laboratory/StructureDefinition/Observation-resultslab-eu-lab"/>
            </meta>
            <text>
               <status value="generated"/>
               <div xmlns="http://www.w3.org/1999/xhtml">
                  <table class="hl7__eu__lab__report">
                     <tr>
                        <th>Test</th>
                        <th>29-Jun-2017</th>
                        <th>Reference Range</th>
                        <th>Unit</th>
                     </tr>
                     <tr>
                        <td>Hemoglobin [Presence] in Urine by Test strip</td>
                     </tr>
                  </table>
               </div>
            </text>
            <status value="final"/>
            <category>
               <coding>
                  <system value="http://terminology.hl7.org/CodeSystem/observation-category"/>
                  <code value="laboratory"/>
               </coding>
            </category>
            <code>
               <coding>
                  <system value="http://loinc.org"/>
                  <code value="5794-3"/>
                  <display value="Hemoglobin [Presence] in Urine by Test strip"/>
               </coding>
               <text value="Hemoglobin [Presence] in Urine by Test strip"/>
            </code>
            <subject>
               <reference value="urn:uuid:2ff1139a-ca21-4bec-849c-e4f8746555be"/>
               <display value="Molly Jenkins"/>
            </subject>
            <effectiveDateTime value="2017-06-29T14:42:11Z"/>
            <performer>
               <display value="The Central European Lab"/>
            </performer>
            <specimen>
               <reference value="urn:uuid:75a714bc-09c6-4ddd-8e69-8d86f8630539"/>
            </specimen>
         </Observation>
      </resource>
   </entry>
   <entry>
      <fullUrl value="urn:uuid:e6158c26-4777-4af3-8286-af921ce7c4fa"/>
      <resource>
         <Observation>
            <id value="e6158c26-4777-4af3-8286-af921ce7c4fa"/>
            <meta>
               <profile value="http://hl7.eu/fhir/laboratory/StructureDefinition/Observation-resultslab-eu-lab"/>
            </meta>
            <text>
               <status value="generated"/>
               <div xmlns="http://www.w3.org/1999/xhtml">
                  <table class="hl7__eu__lab__report">
                     <tr>
                        <th>Test</th>
                        <th>29-Jun-2017</th>
                        <th>Reference Range</th>
                        <th>Unit</th>
                     </tr>
                     <tr>
                        <td>Leukocyte esterase [Presence] in Urine by Test strip</td>
                     </tr>
                  </table>
               </div>
            </text>
            <status value="final"/>
            <category>
               <coding>
                  <system value="http://terminology.hl7.org/CodeSystem/observation-category"/>
                  <code value="laboratory"/>
               </coding>
            </category>
            <code>
               <coding>
                  <system value="http://loinc.org"/>
                  <code value="5799-2"/>
                  <display value="Leukocyte esterase [Presence] in Urine by Test strip"/>
               </coding>
               <text value="Leukocyte esterase [Presence] in Urine by Test strip"/>
            </code>
            <subject>
               <reference value="urn:uuid:2ff1139a-ca21-4bec-849c-e4f8746555be"/>
               <display value="Molly Jenkins"/>
            </subject>
            <effectiveDateTime value="2017-06-29T14:42:11Z"/>
            <performer>
               <display value="The Central European Lab"/>
            </performer>
            <specimen>
               <reference value="urn:uuid:75a714bc-09c6-4ddd-8e69-8d86f8630539"/>
            </specimen>
         </Observation>
      </resource>
   </entry>
   <entry>
      <fullUrl value="urn:uuid:955185a1-36a6-4b8d-832e-6a6cb79d8e81"/>
      <resource>
         <Observation>
            <id value="955185a1-36a6-4b8d-832e-6a6cb79d8e81"/>
            <meta>
               <profile value="http://hl7.eu/fhir/laboratory/StructureDefinition/Observation-resultslab-eu-lab"/>
            </meta>
            <text>
               <status value="generated"/>
               <div xmlns="http://www.w3.org/1999/xhtml">
                  <table class="hl7__eu__lab__report">
                     <tr>
                        <th>Test</th>
                        <th>29-Jun-2017</th>
                        <th>Reference Range</th>
                        <th>Unit</th>
                     </tr>
                     <tr>
                        <td>Hemoglobin A1c/Hemoglobin.total in Blood</td>
                        <td>3.3</td>
                        <td>4 - 6</td>
                        <td>L</td>
                        <td>%</td>
                     </tr>
                  </table>
               </div>
            </text>
            <status value="final"/>
            <category>
               <coding>
                  <system value="http://terminology.hl7.org/CodeSystem/observation-category"/>
                  <code value="laboratory"/>
               </coding>
            </category>
            <code>
               <coding>
                  <system value="http://loinc.org"/>
                  <code value="4548-4"/>
                  <display value="Hemoglobin A1c/Hemoglobin.total in Blood"/>
               </coding>
               <text value="Hemoglobin A1c/Hemoglobin.total in Blood"/>
            </code>
            <subject>
               <reference value="urn:uuid:2ff1139a-ca21-4bec-849c-e4f8746555be"/>
               <display value="Molly Jenkins"/>
            </subject>
            <effectiveDateTime value="2017-06-29T14:42:11Z"/>
            <performer>
               <display value="The Central European Lab"/>
            </performer>
            <valueQuantity>
               <value value="3.3"/>
               <unit value="%"/>
               <system value="http://unitsofmeasure.org"/>
               <code value="%"/>
            </valueQuantity>
            <interpretation>
               <coding>
                  <system value="http://terminology.hl7.org/CodeSystem/v3-ObservationInterpretation"/>
                  <code value="L"/>
                  <display value="Low"/>
               </coding>
            </interpretation>
            <specimen>
               <reference value="urn:uuid:f9ab95b9-030d-4e32-bbc0-7a88c73fb510"/>
            </specimen>
            <referenceRange>
               <low>
                  <value value="4"/>
                  <system value="http://unitsofmeasure.org"/>
                  <code value="%"/>
               </low>
            </referenceRange>
            <referenceRange>
               <high>
                  <value value="6"/>
                  <system value="http://unitsofmeasure.org"/>
                  <code value="%"/>
               </high>
            </referenceRange>
         </Observation>
      </resource>
   </entry>
   <entry>
      <fullUrl value="urn:uuid:5432f47d-1cd5-4e0f-84c1-ae796f015842"/>
      <resource>
         <Observation>
            <id value="5432f47d-1cd5-4e0f-84c1-ae796f015842"/>
            <meta>
               <profile value="http://hl7.eu/fhir/laboratory/StructureDefinition/Observation-resultslab-eu-lab"/>
            </meta>
            <text>
               <status value="generated"/>
               <div xmlns="http://www.w3.org/1999/xhtml">
                  <table class="hl7__eu__lab__report">
                     <tr>
                        <th>Test</th>
                        <th>29-Jun-2017</th>
                        <th>Reference Range</th>
                        <th>Unit</th>
                     </tr>
                     <tr>
                        <td>Glucose [Mass/volume] in Blood</td>
                        <td>82.2</td>
                        <td>70 - 100</td>
                        <td/>
                        <td>mg/dL</td>
                     </tr>
                  </table>
               </div>
            </text>
            <status value="final"/>
            <category>
               <coding>
                  <system value="http://terminology.hl7.org/CodeSystem/observation-category"/>
                  <code value="laboratory"/>
               </coding>
            </category>
            <code>
               <coding>
                  <system value="http://loinc.org"/>
                  <code value="2339-0"/>
                  <display value="Glucose [Mass/volume] in Blood"/>
               </coding>
               <text value="Glucose [Mass/volume] in Blood"/>
            </code>
            <subject>
               <reference value="urn:uuid:2ff1139a-ca21-4bec-849c-e4f8746555be"/>
               <display value="Molly Jenkins"/>
            </subject>
            <effectiveDateTime value="2017-06-29T14:42:11Z"/>
            <performer>
               <display value="The Central European Lab"/>
            </performer>
            <valueQuantity>
               <value value="82.2"/>
               <unit value="mg/dL"/>
               <system value="http://unitsofmeasure.org"/>
               <code value="mg/dL"/>
            </valueQuantity>
            <specimen>
               <reference value="urn:uuid:f9ab95b9-030d-4e32-bbc0-7a88c73fb510"/>
            </specimen>
            <referenceRange>
               <low>
                  <value value="70"/>
                  <system value="http://unitsofmeasure.org"/>
                  <code value="mg/dL"/>
               </low>
            </referenceRange>
            <referenceRange>
               <high>
                  <value value="100"/>
                  <system value="http://unitsofmeasure.org"/>
                  <code value="mg/dL"/>
               </high>
            </referenceRange>
         </Observation>
      </resource>
   </entry>
   <entry>
      <fullUrl value="urn:uuid:d3142979-90f3-463c-98a9-e2803f0c1548"/>
      <resource>
         <Observation>
            <id value="d3142979-90f3-463c-98a9-e2803f0c1548"/>
            <meta>
               <profile value="http://hl7.eu/fhir/laboratory/StructureDefinition/Observation-resultslab-eu-lab"/>
            </meta>
            <text>
               <status value="generated"/>
               <div xmlns="http://www.w3.org/1999/xhtml">
                  <table class="hl7__eu__lab__report">
                     <tr>
                        <th>Test</th>
                        <th>29-Jun-2017</th>
                        <th>Reference Range</th>
                        <th>Unit</th>
                     </tr>
                     <tr>
                        <td>Urea nitrogen [Mass/volume] in Blood</td>
                        <td>14.5</td>
                        <td>7 - 20</td>
                        <td/>
                        <td>mg/dL</td>
                     </tr>
                  </table>
               </div>
            </text>
            <status value="final"/>
            <category>
               <coding>
                  <system value="http://terminology.hl7.org/CodeSystem/observation-category"/>
                  <code value="laboratory"/>
               </coding>
            </category>
            <code>
               <coding>
                  <system value="http://loinc.org"/>
                  <code value="6299-2"/>
                  <display value="Urea nitrogen [Mass/volume] in Blood"/>
               </coding>
               <text value="Urea nitrogen [Mass/volume] in Blood"/>
            </code>
            <subject>
               <reference value="urn:uuid:2ff1139a-ca21-4bec-849c-e4f8746555be"/>
               <display value="Molly Jenkins"/>
            </subject>
            <effectiveDateTime value="2017-06-29T14:42:11Z"/>
            <performer>
               <display value="The Central European Lab"/>
            </performer>
            <valueQuantity>
               <value value="14.5"/>
               <unit value="mg/dL"/>
               <system value="http://unitsofmeasure.org"/>
               <code value="mg/dL"/>
            </valueQuantity>
            <specimen>
               <reference value="urn:uuid:f9ab95b9-030d-4e32-bbc0-7a88c73fb510"/>
            </specimen>
            <referenceRange>
               <low>
                  <value value="7"/>
                  <system value="http://unitsofmeasure.org"/>
                  <code value="mg/dL"/>
               </low>
            </referenceRange>
            <referenceRange>
               <high>
                  <value value="20"/>
                  <system value="http://unitsofmeasure.org"/>
                  <code value="mg/dL"/>
               </high>
            </referenceRange>
         </Observation>
      </resource>
   </entry>
   <entry>
      <fullUrl value="urn:uuid:5e972767-4e9f-4bbd-8a2b-b86ccf00fe5a"/>
      <resource>
         <Observation>
            <id value="5e972767-4e9f-4bbd-8a2b-b86ccf00fe5a"/>
            <meta>
               <profile value="http://hl7.eu/fhir/laboratory/StructureDefinition/Observation-resultslab-eu-lab"/>
            </meta>
            <text>
               <status value="generated"/>
               <div xmlns="http://www.w3.org/1999/xhtml">
                  <table class="hl7__eu__lab__report">
                     <tr>
                        <th>Test</th>
                        <th>29-Jun-2017</th>
                        <th>Reference Range</th>
                        <th>Unit</th>
                     </tr>
                     <tr>
                        <td>Creatinine [Mass/volume] in Blood</td>
                        <td>1.3</td>
                        <td>0.6 - 1.3</td>
                        <td/>
                        <td>mg/dL</td>
                     </tr>
                  </table>
               </div>
            </text>
            <status value="final"/>
            <category>
               <coding>
                  <system value="http://terminology.hl7.org/CodeSystem/observation-category"/>
                  <code value="laboratory"/>
               </coding>
            </category>
            <code>
               <coding>
                  <system value="http://loinc.org"/>
                  <code value="38483-4"/>
                  <display value="Creatinine [Mass/volume] in Blood"/>
               </coding>
               <text value="Creatinine [Mass/volume] in Blood"/>
            </code>
            <subject>
               <reference value="urn:uuid:2ff1139a-ca21-4bec-849c-e4f8746555be"/>
               <display value="Molly Jenkins"/>
            </subject>
            <effectiveDateTime value="2017-06-29T14:42:11Z"/>
            <performer>
               <display value="The Central European Lab"/>
            </performer>
            <valueQuantity>
               <value value="1.3"/>
               <unit value="mg/dL"/>
               <system value="http://unitsofmeasure.org"/>
               <code value="mg/dL"/>
            </valueQuantity>
            <specimen>
               <reference value="urn:uuid:f9ab95b9-030d-4e32-bbc0-7a88c73fb510"/>
            </specimen>
            <referenceRange>
               <low>
                  <value value="0.6"/>
                  <system value="http://unitsofmeasure.org"/>
                  <code value="mg/dL"/>
               </low>
            </referenceRange>
            <referenceRange>
               <high>
                  <value value="1.3"/>
                  <system value="http://unitsofmeasure.org"/>
                  <code value="mg/dL"/>
               </high>
            </referenceRange>
         </Observation>
      </resource>
   </entry>
   <entry>
      <fullUrl value="urn:uuid:c7a36048-8a99-4fd0-95f7-f812f62075dd"/>
      <resource>
         <Observation>
            <id value="c7a36048-8a99-4fd0-95f7-f812f62075dd"/>
            <meta>
               <profile value="http://hl7.eu/fhir/laboratory/StructureDefinition/Observation-resultslab-eu-lab"/>
            </meta>
            <text>
               <status value="generated"/>
               <div xmlns="http://www.w3.org/1999/xhtml">
                  <table class="hl7__eu__lab__report">
                     <tr>
                        <th>Test</th>
                        <th>29-Jun-2017</th>
                        <th>Reference Range</th>
                        <th>Unit</th>
                     </tr>
                     <tr>
                        <td>Calcium [Mass/volume] in Blood</td>
                        <td>9.5</td>
                        <td>8.6 - 10.4</td>
                        <td/>
                        <td>mg/dL</td>
                     </tr>
                  </table>
               </div>
            </text>
            <status value="final"/>
            <category>
               <coding>
                  <system value="http://terminology.hl7.org/CodeSystem/observation-category"/>
                  <code value="laboratory"/>
               </coding>
            </category>
            <code>
               <coding>
                  <system value="http://loinc.org"/>
                  <code value="49765-1"/>
                  <display value="Calcium [Mass/volume] in Blood"/>
               </coding>
               <text value="Calcium [Mass/volume] in Blood"/>
            </code>
            <subject>
               <reference value="urn:uuid:2ff1139a-ca21-4bec-849c-e4f8746555be"/>
               <display value="Molly Jenkins"/>
            </subject>
            <effectiveDateTime value="2017-06-29T14:42:11Z"/>
            <performer>
               <display value="The Central European Lab"/>
            </performer>
            <valueQuantity>
               <value value="9.5"/>
               <unit value="mg/dL"/>
               <system value="http://unitsofmeasure.org"/>
               <code value="mg/dL"/>
            </valueQuantity>
            <specimen>
               <reference value="urn:uuid:f9ab95b9-030d-4e32-bbc0-7a88c73fb510"/>
            </specimen>
            <referenceRange>
               <low>
                  <value value="8.6"/>
                  <system value="http://unitsofmeasure.org"/>
                  <code value="mg/dL"/>
               </low>
            </referenceRange>
            <referenceRange>
               <high>
                  <value value="10.4"/>
                  <system value="http://unitsofmeasure.org"/>
                  <code value="mg/dL"/>
               </high>
            </referenceRange>
         </Observation>
      </resource>
   </entry>
   <entry>
      <fullUrl value="urn:uuid:d19e961a-1bc9-4827-867b-1ad80a5a07cf"/>
      <resource>
         <Observation>
            <id value="d19e961a-1bc9-4827-867b-1ad80a5a07cf"/>
            <meta>
               <profile value="http://hl7.eu/fhir/laboratory/StructureDefinition/Observation-resultslab-eu-lab"/>
            </meta>
            <text>
               <status value="generated"/>
               <div xmlns="http://www.w3.org/1999/xhtml">
                  <table class="hl7__eu__lab__report">
                     <tr>
                        <th>Test</th>
                        <th>29-Jun-2017</th>
                        <th>Reference Range</th>
                        <th>Unit</th>
                     </tr>
                     <tr>
                        <td>Sodium [Moles/volume] in Blood</td>
                        <td>137.2</td>
                        <td>135 - 145</td>
                        <td/>
                        <td>mmol/L</td>
                     </tr>
                  </table>
               </div>
            </text>
            <status value="final"/>
            <category>
               <coding>
                  <system value="http://terminology.hl7.org/CodeSystem/observation-category"/>
                  <code value="laboratory"/>
               </coding>
            </category>
            <code>
               <coding>
                  <system value="http://loinc.org"/>
                  <code value="2947-0"/>
                  <display value="Sodium [Moles/volume] in Blood"/>
               </coding>
               <text value="Sodium [Moles/volume] in Blood"/>
            </code>
            <subject>
               <reference value="urn:uuid:2ff1139a-ca21-4bec-849c-e4f8746555be"/>
               <display value="Molly Jenkins"/>
            </subject>
            <effectiveDateTime value="2017-06-29T14:42:11Z"/>
            <performer>
               <display value="The Central European Lab"/>
            </performer>
            <valueQuantity>
               <value value="137.2"/>
               <unit value="mmol/L"/>
               <system value="http://unitsofmeasure.org"/>
               <code value="mmol/L"/>
            </valueQuantity>
            <specimen>
               <reference value="urn:uuid:f9ab95b9-030d-4e32-bbc0-7a88c73fb510"/>
            </specimen>
            <referenceRange>
               <low>
                  <value value="135"/>
                  <system value="http://unitsofmeasure.org"/>
                  <code value="mmol/L"/>
               </low>
            </referenceRange>
            <referenceRange>
               <high>
                  <value value="145"/>
                  <system value="http://unitsofmeasure.org"/>
                  <code value="mmol/L"/>
               </high>
            </referenceRange>
         </Observation>
      </resource>
   </entry>
   <entry>
      <fullUrl value="urn:uuid:28c8aa3c-077e-4f49-bd37-3da714259d2e"/>
      <resource>
         <Observation>
            <id value="28c8aa3c-077e-4f49-bd37-3da714259d2e"/>
            <meta>
               <profile value="http://hl7.eu/fhir/laboratory/StructureDefinition/Observation-resultslab-eu-lab"/>
            </meta>
            <text>
               <status value="generated"/>
               <div xmlns="http://www.w3.org/1999/xhtml">
                  <table class="hl7__eu__lab__report">
                     <tr>
                        <th>Test</th>
                        <th>29-Jun-2017</th>
                        <th>Reference Range</th>
                        <th>Unit</th>
                     </tr>
                     <tr>
                        <td>Potassium [Moles/volume] in Blood</td>
                        <td>4.6</td>
                        <td>3.5 - 5.1</td>
                        <td/>
                        <td>mmol/L</td>
                     </tr>
                  </table>
               </div>
            </text>
            <status value="final"/>
            <category>
               <coding>
                  <system value="http://terminology.hl7.org/CodeSystem/observation-category"/>
                  <code value="laboratory"/>
               </coding>
            </category>
            <code>
               <coding>
                  <system value="http://loinc.org"/>
                  <code value="6298-4"/>
                  <display value="Potassium [Moles/volume] in Blood"/>
               </coding>
               <text value="Potassium [Moles/volume] in Blood"/>
            </code>
            <subject>
               <reference value="urn:uuid:2ff1139a-ca21-4bec-849c-e4f8746555be"/>
               <display value="Molly Jenkins"/>
            </subject>
            <effectiveDateTime value="2017-06-29T14:42:11Z"/>
            <performer>
               <display value="The Central European Lab"/>
            </performer>
            <valueQuantity>
               <value value="4.6"/>
               <unit value="mmol/L"/>
               <system value="http://unitsofmeasure.org"/>
               <code value="mmol/L"/>
            </valueQuantity>
            <specimen>
               <reference value="urn:uuid:f9ab95b9-030d-4e32-bbc0-7a88c73fb510"/>
            </specimen>
            <referenceRange>
               <low>
                  <value value="3.5"/>
                  <system value="http://unitsofmeasure.org"/>
                  <code value="mmol/L"/>
               </low>
            </referenceRange>
            <referenceRange>
               <high>
                  <value value="5.1"/>
                  <system value="http://unitsofmeasure.org"/>
                  <code value="mmol/L"/>
               </high>
            </referenceRange>
         </Observation>
      </resource>
   </entry>
   <entry>
      <fullUrl value="urn:uuid:0ae9dded-fa96-41e9-92dc-8314bf0537a3"/>
      <resource>
         <Observation>
            <id value="0ae9dded-fa96-41e9-92dc-8314bf0537a3"/>
            <meta>
               <profile value="http://hl7.eu/fhir/laboratory/StructureDefinition/Observation-resultslab-eu-lab"/>
            </meta>
            <text>
               <status value="generated"/>
               <div xmlns="http://www.w3.org/1999/xhtml">
                  <table class="hl7__eu__lab__report">
                     <tr>
                        <th>Test</th>
                        <th>29-Jun-2017</th>
                        <th>Reference Range</th>
                        <th>Unit</th>
                     </tr>
                     <tr>
                        <td>Chloride [Moles/volume] in Blood</td>
                        <td>110.3</td>
                        <td>98 - 110</td>
                        <td>H</td>
                        <td>mmol/L</td>
                     </tr>
                  </table>
               </div>
            </text>
            <status value="final"/>
            <category>
               <coding>
                  <system value="http://terminology.hl7.org/CodeSystem/observation-category"/>
                  <code value="laboratory"/>
               </coding>
            </category>
            <code>
               <coding>
                  <system value="http://loinc.org"/>
                  <code value="2069-3"/>
                  <display value="Chloride [Moles/volume] in Blood"/>
               </coding>
               <text value="Chloride [Moles/volume] in Blood"/>
            </code>
            <subject>
               <reference value="urn:uuid:2ff1139a-ca21-4bec-849c-e4f8746555be"/>
               <display value="Molly Jenkins"/>
            </subject>
            <effectiveDateTime value="2017-06-29T14:42:11Z"/>
            <performer>
               <display value="The Central European Lab"/>
            </performer>
            <valueQuantity>
               <value value="110.3"/>
               <unit value="mmol/L"/>
               <system value="http://unitsofmeasure.org"/>
               <code value="mmol/L"/>
            </valueQuantity>
            <interpretation>
               <coding>
                  <system value="http://terminology.hl7.org/CodeSystem/v3-ObservationInterpretation"/>
                  <code value="H"/>
                  <display value="High"/>
               </coding>
            </interpretation>
            <specimen>
               <reference value="urn:uuid:f9ab95b9-030d-4e32-bbc0-7a88c73fb510"/>
            </specimen>
            <referenceRange>
               <low>
                  <value value="98"/>
                  <system value="http://unitsofmeasure.org"/>
                  <code value="mmol/L"/>
               </low>
            </referenceRange>
            <referenceRange>
               <high>
                  <value value="110"/>
                  <system value="http://unitsofmeasure.org"/>
                  <code value="mmol/L"/>
               </high>
            </referenceRange>
         </Observation>
      </resource>
   </entry>
   <entry>
      <fullUrl value="urn:uuid:3a830880-a390-4d62-ac2d-9f8b25832379"/>
      <resource>
         <Observation>
            <id value="3a830880-a390-4d62-ac2d-9f8b25832379"/>
            <meta>
               <profile value="http://hl7.eu/fhir/laboratory/StructureDefinition/Observation-resultslab-eu-lab"/>
            </meta>
            <text>
               <status value="generated"/>
               <div xmlns="http://www.w3.org/1999/xhtml">
                  <table class="hl7__eu__lab__report">
                     <tr>
                        <th>Test</th>
                        <th>29-Jun-2017</th>
                        <th>Reference Range</th>
                        <th>Unit</th>
                     </tr>
                     <tr>
                        <td>Carbon dioxide, total [Moles/volume] in Blood</td>
                        <td>23.8</td>
                        <td>22 - 29</td>
                        <td/>
                        <td>mmol/L</td>
                     </tr>
                  </table>
               </div>
            </text>
            <status value="final"/>
            <category>
               <coding>
                  <system value="http://terminology.hl7.org/CodeSystem/observation-category"/>
                  <code value="laboratory"/>
               </coding>
            </category>
            <code>
               <coding>
                  <system value="http://loinc.org"/>
                  <code value="20565-8"/>
                  <display value="Carbon dioxide, total [Moles/volume] in Blood"/>
               </coding>
               <text value="Carbon dioxide, total [Moles/volume] in Blood"/>
            </code>
            <subject>
               <reference value="urn:uuid:2ff1139a-ca21-4bec-849c-e4f8746555be"/>
               <display value="Molly Jenkins"/>
            </subject>
            <effectiveDateTime value="2017-06-29T14:42:11Z"/>
            <performer>
               <display value="The Central European Lab"/>
            </performer>
            <valueQuantity>
               <value value="23.8"/>
               <unit value="mmol/L"/>
               <system value="http://unitsofmeasure.org"/>
               <code value="mmol/L"/>
            </valueQuantity>
            <specimen>
               <reference value="urn:uuid:f9ab95b9-030d-4e32-bbc0-7a88c73fb510"/>
            </specimen>
            <referenceRange>
               <low>
                  <value value="22"/>
                  <system value="http://unitsofmeasure.org"/>
                  <code value="mmol/L"/>
               </low>
            </referenceRange>
            <referenceRange>
               <high>
                  <value value="29"/>
                  <system value="http://unitsofmeasure.org"/>
                  <code value="mmol/L"/>
               </high>
            </referenceRange>
         </Observation>
      </resource>
   </entry>
   <entry>
      <fullUrl value="urn:uuid:95958d2a-a198-497f-85fe-8b933297fdd8"/>
      <resource>
         <Device>
            <id value="95958d2a-a198-497f-85fe-8b933297fdd8"/>
            <text>
               <status value="generated"/>
               <div xmlns="http://www.w3.org/1999/xhtml">SYNDERAI Synthetic Generator v5.0</div>
            </text>
            <status value="active&#34;"/>
            <distinctIdentifier value="synderai-generator-50"/>
            <manufacturer value="SYNDERAI Project"/>
            <deviceName>
               <name value="SYNDERAI Synthetic Generator"/>
               <type value="manufacturer-name"/>
            </deviceName>
            <version>
               <value value="5.0"/>
            </version>
         </Device>
      </resource>
   </entry>
   <entry>
      <fullUrl value="urn:uuid:4eaf6b9c-3231-4c4b-8ff2-338d4a119792"/>
      <resource>
         <Provenance>
            <id value="4eaf6b9c-3231-4c4b-8ff2-338d4a119792"/>
            <text>
               <status value="generated"/>
               <div xmlns="http://www.w3.org/1999/xhtml">Provenance for SYNDERAI Synthetic Example Data Resource</div>
            </text>
            <target>
               <reference value="Patient/2ff1139a-ca21-4bec-849c-e4f8746555be"/>
            </target>
            <target>
               <reference value="Bundle/938e73a9-3e2b-4e6b-b8cc-d880dd1dcfc1"/>
            </target>
            <target>
               <reference value="Composition/af3ec95b-cdc9-4294-922b-eb380b392b34"/>
            </target>
            <target>
               <reference value="PractitionerRole/08be4cfe-6582-42f1-8907-fe3b7d65196c"/>
            </target>
            <target>
               <reference value="Practitioner/1e5c5003-7471-4caf-84dd-e9fa969c6c62"/>
            </target>
            <target>
               <reference value="PractitionerRole/0af07335-f060-445b-91a9-3b27eb85e9c2"/>
            </target>
            <target>
               <reference value="Organization/f75e156e-f38e-439c-aaa7-d2f879fdf688"/>
            </target>
            <recorded value="2017-06-29T16:42:11Z"/>
            <policy value="https://synderai.net/synderai-synthetic-data-policy"/>
            <reason>
               <text value="Interoperability Testing and Training (non-clinical use)"/>
            </reason>
            <activity>
               <text value="Synthetic Example Data Generation"/>
            </activity>
            <agent>
               <type>
                  <text value="author"/>
               </type>
               <who>
                  <reference value="Device/95958d2a-a198-497f-85fe-8b933297fdd8"/>
               </who>
            </agent>
         </Provenance>
      </resource>
   </entry>
   <entry>
      <fullUrl value="urn:uuid:08be4cfe-6582-42f1-8907-fe3b7d65196c"/>
      <resource>
         <PractitionerRole>
            <id value="08be4cfe-6582-42f1-8907-fe3b7d65196c"/>
            <meta>
               <profile value="http://hl7.eu/fhir/base/StructureDefinition/practitionerRole-eu"/>
            </meta>
            <text>
               <status value="generated"/>
               <div xmlns="http://www.w3.org/1999/xhtml">Laboratory Role Id: 08be4cfe-6582-42f1-8907-fe3b7d65196c</div>
            </text>
            <practitioner>
               <reference value="urn:uuid:1e5c5003-7471-4caf-84dd-e9fa969c6c62"/>
            </practitioner>
         </PractitionerRole>
      </resource>
   </entry>
   <entry>
      <fullUrl value="urn:uuid:1e5c5003-7471-4caf-84dd-e9fa969c6c62"/>
      <resource>
         <Practitioner>
            <id value="1e5c5003-7471-4caf-84dd-e9fa969c6c62"/>
            <meta>
               <profile value="http://hl7.eu/fhir/base/StructureDefinition/practitioner-eu"/>
            </meta>
            <text>
               <status value="generated"/>
               <div xmlns="http://www.w3.org/1999/xhtml">Laboratory: Laboratoire Central Européenne, 1000 Brussels, Belgium</div>
            </text>
            <identifier>
               <system value="urn:oid:2.16.840.1.113883.2.51.999"/>
               <value value="d7c02a89-da90-4efb-b510-3cfe1e4a8e5f"/>
               <assigner>
                  <display value="HL7 Europe"/>
               </assigner>
            </identifier>
            <name>
               <family value="Ample"/>
               <given value="Ex"/>
               <prefix value="dr"/>
            </name>
            <address>
               <line value="Laboratoire Central Européenne"/>
               <line value="Boulevard du Jardin Botanique 32"/>
               <city value="Brussels"/>
               <postalCode value="1000"/>
               <country value="Belgium"/>
            </address>
         </Practitioner>
      </resource>
   </entry>
</Bundle>