{
  "resourceType": "Bundle",
  "id": "21dfd3e3-4fa8-48ea-a12e-3e91566a5301",
  "meta": {
    "profile": [
      "http://hl7.eu/fhir/laboratory/StructureDefinition/Bundle-eu-lab"
    ]
  },
  "identifier": {
    "assigner": {
      "display": "HL7 Europe"
    },
    "system": "urn:oid:2.16.840.1.113883.2.51.999",
    "value": "ee6394b0-d3cc-4f29-9710-e8b701c46f68"
  },
  "entry": [
    {
      "fullUrl": "urn:uuid:9563f8af-b521-42ae-a297-141c1808be4e",
      "resource": {
        "resourceType": "Composition",
        "id": "9563f8af-b521-42ae-a297-141c1808be4e",
        "meta": {
          "profile": [
            "http://hl7.eu/fhir/laboratory/StructureDefinition/Composition-eu-lab"
          ]
        },
        "identifier": {
          "assigner": {
            "display": "HL7 Europe"
          },
          "system": "urn:oid:2.16.840.1.113883.2.51.999",
          "value": "491ddc7b-18cd-4e16-b4b4-a9b7f70cbad2"
        },
        "author": [
          {
            "reference": "urn:uuid:308bde5e-65db-4825-a6ba-e3b87d8c19d0"
          }
        ],
        "category": [
          {
            "coding": [
              {
                "code": "26436-6",
                "system": "http://loinc.org",
                "display": "Laboratory studies (set)"
              }
            ]
          }
        ],
        "type": {
          "coding": [
            {
              "code": "11502-2",
              "system": "http://loinc.org",
              "display": "Laboratory report"
            }
          ],
          "text": "Laboratory Report"
        },
        "section": [
          {
            "code": {
              "coding": [
                {
                  "code": "26436-6",
                  "system": "http://loinc.org",
                  "display": "Laboratory studies (set)"
                }
              ],
              "text": "Laboratory studies"
            },
            "section": [
              {
                "code": {
                  "coding": [
                    {
                      "code": "$18719-5",
                      "system": "http://loinc.org",
                      "display": "Chemistry studies (set)"
                    }
                  ],
                  "text": "Chemistry"
                },
                "entry": [
                  {
                    "reference": "urn:uuid:a72bdfce-3728-4f44-8b07-f64ad0aa5363"
                  },
                  {
                    "reference": "urn:uuid:6ef89b82-62f4-4909-877b-5742d6456dc4"
                  },
                  {
                    "reference": "urn:uuid:a3b32c7c-08f6-46a6-b64f-b8f341640199"
                  },
                  {
                    "reference": "urn:uuid:6ec28ba2-70df-47ba-851e-b88e4c534b3b"
                  },
                  {
                    "reference": "urn:uuid:bb0cb7d5-a21e-4619-98ce-344af5909cb2"
                  },
                  {
                    "reference": "urn:uuid:0c5b0a4e-0ccd-4b0d-bfa2-06b0403f2f5a"
                  },
                  {
                    "reference": "urn:uuid:2705d3d9-565f-42fc-b23b-a677ed9597e7"
                  },
                  {
                    "reference": "urn:uuid:b721db9f-f6ad-4e8d-a86a-59b65362e54c"
                  },
                  {
                    "reference": "urn:uuid:8fce5eed-7c57-4ddf-8860-caa83ddc0d47"
                  },
                  {
                    "reference": "urn:uuid:9d163905-c1bc-4240-8ca1-6988af4e5829"
                  },
                  {
                    "reference": "urn:uuid:c4065f17-fccc-46c7-9244-6b47a9e3038a"
                  },
                  {
                    "reference": "urn:uuid:94a8a6a1-07d5-4d31-8fe8-d767e73ccb26"
                  },
                  {
                    "reference": "urn:uuid:1e6c7c9a-0b00-4573-9dfc-c485ac52b3d4"
                  },
                  {
                    "reference": "urn:uuid:7e15d3b7-888f-4f86-a631-5dff03fe92a1"
                  },
                  {
                    "reference": "urn:uuid:b776ada2-69fd-4ff2-bcf2-eb95c7f99661"
                  },
                  {
                    "reference": "urn:uuid:fa4efe87-93dc-4b2e-8928-47d7529f1336"
                  },
                  {
                    "reference": "urn:uuid:5b366619-2444-4efd-835a-6f853758bcca"
                  },
                  {
                    "reference": "urn:uuid:92a31ec6-5a77-4744-9e44-80b01b831f4f"
                  }
                ],
                "text": {
                  "status": "generated",
                  "div": "<div xmlns=\"http://www.w3.org/1999/xhtml\"><h3>Chemistry</h3><table class=\"hl7__eu__lab__report\"><thead><tr><th>Test</th><th>30-MAY-2023</th><th>Reference&#xA0;Range</th><th>Unit</th></tr></thead><tbody><tr><td>Glucose [Mass/volume] in Serum or Plasma</td><td>75.8</td><td>70 - 99</td><td>mg/dL</td></tr><tr><td>Urea nitrogen [Mass/volume] in Serum or Plasma</td><td>11.6</td><td>7 - 50</td><td>mg/dL</td></tr><tr><td>Creatinine [Mass/volume] in Serum or Plasma</td><td><strong>1.9 H</strong></td><td>0.6 - 1.1</td><td>mg/dL</td></tr><tr><td>Calcium [Mass/volume] in Serum or Plasma</td><td>9.9</td><td>8.6 - 10.4</td><td>mg/dL</td></tr><tr><td>Sodium [Moles/volume] in Serum or Plasma</td><td>143.0</td><td>135 - 145</td><td>mmol/L</td></tr><tr><td>Potassium [Moles/volume] in Serum or Plasma</td><td>3.8</td><td>3.5 - 5.1</td><td>mmol/L</td></tr><tr><td>Chloride [Moles/volume] in Serum or Plasma</td><td><strong>108.7 H</strong></td><td>98 - 108</td><td>mmol/L</td></tr><tr><td>Carbon dioxide, total [Moles/volume] in Serum or Plasma</td><td>25.0</td><td>22 - 32</td><td>mmol/L</td></tr><tr><td>Ketones [Presence] in Urine by Test strip</td><td>Urine ketone test = ++</td><td></td><td></td></tr><tr><td>Hemoglobin A1c/Hemoglobin.total in Blood</td><td><strong>3.1 L</strong></td><td>4 - 6.4</td><td>%</td></tr><tr><td>Glucose [Mass/volume] in Blood</td><td>75.8</td><td>70 - 100</td><td>mg/dL</td></tr><tr><td>Urea nitrogen [Mass/volume] in Blood</td><td>11.6</td><td>7 - 43</td><td>mg/dL</td></tr><tr><td>Creatinine [Mass/volume] in Blood</td><td><strong>4.3 H</strong></td><td>0.6 - 1.1</td><td>mg/dL</td></tr><tr><td>Calcium [Mass/volume] in Blood</td><td>9.9</td><td>8.5 - 10.5</td><td>mg/dL</td></tr><tr><td>Sodium [Moles/volume] in Blood</td><td>143.0</td><td>135 - 145</td><td>mmol/L</td></tr><tr><td>Potassium [Moles/volume] in Blood</td><td>3.8</td><td>3.5 - 5.1</td><td>mmol/L</td></tr><tr><td>Chloride [Moles/volume] in Blood</td><td><strong>108.7 H</strong></td><td>98 - 108</td><td>mmol/L</td></tr><tr><td>Carbon dioxide, total [Moles/volume] in Blood</td><td>25.0</td><td>22 - 29</td><td>mmol/L</td></tr></tbody></table></div>"
                },
                "title": "Chemistry"
              },
              {
                "code": {
                  "coding": [
                    {
                      "code": "$18729-4",
                      "system": "http://loinc.org",
                      "display": "Urinalysis studies (set)"
                    }
                  ],
                  "text": "Urinalysis"
                },
                "entry": [
                  {
                    "reference": "urn:uuid:8fa6d098-ae7a-4a23-9b27-e19ea834876f"
                  },
                  {
                    "reference": "urn:uuid:a5204787-0b78-4cc8-b547-f404b49cee5f"
                  },
                  {
                    "reference": "urn:uuid:6fd4ebb0-8908-42b1-b9d0-dceb6631a448"
                  },
                  {
                    "reference": "urn:uuid:0437c9b1-9d79-450a-8023-3f6735ac0c9d"
                  },
                  {
                    "reference": "urn:uuid:599c1352-9f2d-4153-8c6f-5cc0cf88a5b6"
                  },
                  {
                    "reference": "urn:uuid:6d95c835-f346-422f-9e65-6e5955309fb6"
                  },
                  {
                    "reference": "urn:uuid:a6c4f069-b465-472f-a3f3-2c0e6e98bc84"
                  },
                  {
                    "reference": "urn:uuid:12ee2190-4a89-4cae-9666-71a351ee366d"
                  },
                  {
                    "reference": "urn:uuid:70642aaf-4d9d-42c6-ae58-adb112bf716d"
                  },
                  {
                    "reference": "urn:uuid:5d6b588b-068f-409d-aa9b-9f4bdfc40d4f"
                  },
                  {
                    "reference": "urn:uuid:c3cfdb3b-eda5-4b52-8662-708293635df9"
                  },
                  {
                    "reference": "urn:uuid:3d9f6327-aafb-4ff3-b268-6190907a27ee"
                  }
                ],
                "text": {
                  "status": "generated",
                  "div": "<div xmlns=\"http://www.w3.org/1999/xhtml\"><h3>Urinalysis</h3><table class=\"hl7__eu__lab__report\"><thead><tr><th>Test</th><th>30-MAY-2023</th><th>Reference&#xA0;Range</th><th>Unit</th></tr></thead><tbody><tr><td>Glucose [Mass/volume] in Urine by Test strip</td><td><strong>0.7 L</strong></td><td>0.8 - 0</td><td>mg/dL</td></tr><tr><td>Glucose [Presence] in Urine by Test strip</td><td>++</td><td></td><td></td></tr><tr><td>Bilirubin.total [Mass/volume] in Urine by Test strip</td><td><strong>1.4 H</strong></td><td>0 - 1</td><td>mg/dL</td></tr><tr><td>Bilirubin.total [Presence] in Urine by Test strip</td><td>Finding of bilirubin in urine</td><td></td><td></td></tr><tr><td>Ketones [Mass/volume] in Urine by Test strip</td><td><strong>5.8 H</strong></td><td>0 - 4</td><td>mg/dL</td></tr><tr><td>Specific gravity of Urine by Test strip</td><td><strong>1.0 L</strong></td><td>1.005 - 1.03</td><td>{nominal}</td></tr><tr><td>pH of Urine by Test strip</td><td>5.7</td><td>4.6 - 7</td><td>pH</td></tr><tr><td>Protein [Mass/volume] in Urine by Test strip</td><td><strong>283.9 H</strong></td><td>0 - 14</td><td>mg/dL</td></tr><tr><td>Protein [Presence] in Urine by Test strip</td><td>Urine protein test = ++</td><td></td><td></td></tr><tr><td>Nitrite [Presence] in Urine by Test strip</td><td>Urine nitrite negative</td><td></td><td></td></tr><tr><td>Hemoglobin [Presence] in Urine by Test strip</td><td>Urine blood test = negative</td><td></td><td></td></tr><tr><td>Leukocyte esterase [Presence] in Urine by Test strip</td><td>Urine leukocyte test negative</td><td></td><td></td></tr></tbody></table></div>"
                },
                "title": "Urinalysis"
              },
              {
                "code": {
                  "coding": [
                    {
                      "code": "$LP7846-1",
                      "system": "http://loinc.org",
                      "display": "Specimen information"
                    }
                  ],
                  "text": "Specimen information"
                },
                "entry": [
                  {
                    "reference": "urn:uuid:790c4ef7-de71-4eea-b246-d6a800deb85b"
                  },
                  {
                    "reference": "urn:uuid:20667d21-4dd0-4f87-870d-a3ac00119874"
                  },
                  {
                    "reference": "urn:uuid:f511926e-6881-4f34-aa7d-c92ba04858d4"
                  },
                  {
                    "reference": "urn:uuid:dcf61466-0093-4876-bdf3-e91250dfa14c"
                  }
                ],
                "text": {
                  "status": "generated",
                  "div": "<div xmlns=\"http://www.w3.org/1999/xhtml\"><h3>Specimen information</h3><table class=\"hl7__eu__lab__report\"><thead><tr><th>Test</th><th>30-MAY-2023</th><th>Specimen</th><th></th></tr></thead><tbody><tr><td>Appearance of Urine</td><td>Cloudy urine</td><td>Urine</td><td></td></tr><tr><td>Odor of Urine</td><td>Urine smell ammoniacal</td><td>Urine</td><td></td></tr><tr><td>Clarity of Urine</td><td>Translucent</td><td>Urine</td><td></td></tr><tr><td>Color of Urine</td><td>Brown color</td><td>Urine</td><td></td></tr></tbody></table></div>"
                },
                "title": "Specimen information"
              }
            ],
            "title": "Laboratory Report"
          },
          {
            "text": {
              "status": "generated",
              "div": "<div xmlns=\"http://www.w3.org/1999/xhtml\"><h3>Annotation</h3><table class=\"hl7__eu__lab__report\"><tr><th>Conclusion and Recommendations based on this report and previous findings known to us</th></tr><tr><td>The patient shows markedly elevated creatinine, proteinuria, hematuria, bilirubinuria, and ketonuria, with low urine specific gravity and abnormal urine appearance, suggesting significant renal dysfunction, possibly acute or chronic kidney disease with nephrotic features. Low HbA1c and normal blood glucose do not indicate diabetes. Urine findings (cloudy, brown, ammoniacal) may also suggest possible urinary tract pathology. Prompt nephrology evaluation is recommended.</td></tr></table></div>"
            },
            "code": {
              "coding": [
                {
                  "system": "http://loinc.org",
                  "code": "48767-8",
                  "display": "Annotation comment"
                }
              ]
            },
            "title": "Annotation comment"
          }
        ],
        "status": "final",
        "subject": {
          "reference": "urn:uuid:90a3532f-6fa7-4c3a-a0dc-a39deb18dc16",
          "display": "Meaghan Neary"
        },
        "date": "2023-05-30T00:11:04Z",
        "title": "Laboratory Report",
        "confidentiality": "N"
      }
    },
    {
      "fullUrl": "urn:uuid:68c65e99-12cc-4408-9e73-f224f219a96c",
      "resource": {
        "resourceType": "DiagnosticReport",
        "id": "68c65e99-12cc-4408-9e73-f224f219a96c",
        "meta": {
          "profile": [
            "http://hl7.eu/fhir/laboratory/StructureDefinition/DiagnosticReport-eu-lab"
          ]
        },
        "identifier": [
          {
            "assigner": {
              "display": "HL7 Europe"
            },
            "system": "urn:oid:2.16.840.1.113883.2.51.999",
            "value": "fc1a13df-afdc-4816-a879-8e2aa64c6c4b"
          }
        ],
        "extension": [
          {
            "url": "http://hl7.org/fhir/5.0/StructureDefinition/extension-DiagnosticReport.composition",
            "valueReference": {
              "reference": "urn:uuid:491ddc7b-18cd-4e16-b4b4-a9b7f70cbad2"
            }
          }
        ],
        "category": [
          {
            "coding": [
              {
                "code": "26436-6",
                "system": "http://loinc.org",
                "display": "Laboratory studies (set)"
              }
            ]
          }
        ],
        "specimen": [
          {
            "reference": "urn:uuid:4ebb73ec-0ec4-488e-832d-9f6b6a16a731"
          },
          {
            "reference": "urn:uuid:e12186a0-fc8a-46fa-95d5-bd4957735f56"
          },
          {
            "reference": "urn:uuid:5c412267-6866-4609-b21e-be18ad0b9c82"
          }
        ],
        "result": [
          {
            "reference": "urn:uuid:a72bdfce-3728-4f44-8b07-f64ad0aa5363"
          },
          {
            "reference": "urn:uuid:6ef89b82-62f4-4909-877b-5742d6456dc4"
          },
          {
            "reference": "urn:uuid:a3b32c7c-08f6-46a6-b64f-b8f341640199"
          },
          {
            "reference": "urn:uuid:6ec28ba2-70df-47ba-851e-b88e4c534b3b"
          },
          {
            "reference": "urn:uuid:bb0cb7d5-a21e-4619-98ce-344af5909cb2"
          },
          {
            "reference": "urn:uuid:0c5b0a4e-0ccd-4b0d-bfa2-06b0403f2f5a"
          },
          {
            "reference": "urn:uuid:2705d3d9-565f-42fc-b23b-a677ed9597e7"
          },
          {
            "reference": "urn:uuid:b721db9f-f6ad-4e8d-a86a-59b65362e54c"
          },
          {
            "reference": "urn:uuid:790c4ef7-de71-4eea-b246-d6a800deb85b"
          },
          {
            "reference": "urn:uuid:20667d21-4dd0-4f87-870d-a3ac00119874"
          },
          {
            "reference": "urn:uuid:f511926e-6881-4f34-aa7d-c92ba04858d4"
          },
          {
            "reference": "urn:uuid:dcf61466-0093-4876-bdf3-e91250dfa14c"
          },
          {
            "reference": "urn:uuid:8fa6d098-ae7a-4a23-9b27-e19ea834876f"
          },
          {
            "reference": "urn:uuid:a5204787-0b78-4cc8-b547-f404b49cee5f"
          },
          {
            "reference": "urn:uuid:6fd4ebb0-8908-42b1-b9d0-dceb6631a448"
          },
          {
            "reference": "urn:uuid:0437c9b1-9d79-450a-8023-3f6735ac0c9d"
          },
          {
            "reference": "urn:uuid:599c1352-9f2d-4153-8c6f-5cc0cf88a5b6"
          },
          {
            "reference": "urn:uuid:8fce5eed-7c57-4ddf-8860-caa83ddc0d47"
          },
          {
            "reference": "urn:uuid:6d95c835-f346-422f-9e65-6e5955309fb6"
          },
          {
            "reference": "urn:uuid:a6c4f069-b465-472f-a3f3-2c0e6e98bc84"
          },
          {
            "reference": "urn:uuid:12ee2190-4a89-4cae-9666-71a351ee366d"
          },
          {
            "reference": "urn:uuid:70642aaf-4d9d-42c6-ae58-adb112bf716d"
          },
          {
            "reference": "urn:uuid:5d6b588b-068f-409d-aa9b-9f4bdfc40d4f"
          },
          {
            "reference": "urn:uuid:c3cfdb3b-eda5-4b52-8662-708293635df9"
          },
          {
            "reference": "urn:uuid:3d9f6327-aafb-4ff3-b268-6190907a27ee"
          },
          {
            "reference": "urn:uuid:9d163905-c1bc-4240-8ca1-6988af4e5829"
          },
          {
            "reference": "urn:uuid:c4065f17-fccc-46c7-9244-6b47a9e3038a"
          },
          {
            "reference": "urn:uuid:94a8a6a1-07d5-4d31-8fe8-d767e73ccb26"
          },
          {
            "reference": "urn:uuid:1e6c7c9a-0b00-4573-9dfc-c485ac52b3d4"
          },
          {
            "reference": "urn:uuid:7e15d3b7-888f-4f86-a631-5dff03fe92a1"
          },
          {
            "reference": "urn:uuid:b776ada2-69fd-4ff2-bcf2-eb95c7f99661"
          },
          {
            "reference": "urn:uuid:fa4efe87-93dc-4b2e-8928-47d7529f1336"
          },
          {
            "reference": "urn:uuid:5b366619-2444-4efd-835a-6f853758bcca"
          },
          {
            "reference": "urn:uuid:92a31ec6-5a77-4744-9e44-80b01b831f4f"
          }
        ],
        "status": "registered",
        "code": {
          "coding": [
            {
              "code": "11502-2",
              "system": "http://loinc.org",
              "display": "Laboratory report"
            }
          ]
        },
        "subject": {
          "reference": "urn:uuid:90a3532f-6fa7-4c3a-a0dc-a39deb18dc16",
          "display": "Meaghan Neary"
        }
      }
    },
    {
      "fullUrl": "urn:uuid:90a3532f-6fa7-4c3a-a0dc-a39deb18dc16",
      "resource": {
        "resourceType": "Patient",
        "id": "90a3532f-6fa7-4c3a-a0dc-a39deb18dc16",
        "meta": {
          "security": [
            {
              "system": "http://terminology.hl7.org/CodeSystem/v3-ActReason",
              "code": "HTEST"
            },
            {
              "system": "http://terminology.hl7.org/CodeSystem/v3-ActReason",
              "code": "TRAIN"
            }
          ],
          "tag": [
            {
              "system": "https://synderai.net/fhir/CodeSystem/tags",
              "code": "synthetic",
              "display": "SYNDERAI Synthetic data"
            }
          ],
          "profile": [
            "http://hl7.eu/fhir/base/StructureDefinition/patient-eu-core"
          ]
        },
        "identifier": [
          {
            "type": {
              "coding": [
                {
                  "code": "PT",
                  "system": "http://terminology.hl7.org/CodeSystem/v2-0203"
                }
              ]
            },
            "system": "http://ec.europa.eu/identifier/eci",
            "value": "1586-567257-8"
          },
          {
            "type": {
              "coding": [
                {
                  "code": "MR",
                  "system": "http://terminology.hl7.org/CodeSystem/v2-0203"
                }
              ]
            },
            "system": "http://local.setting.eu/identifier",
            "value": "443e6379-f231-b364-3ccb-644740a1aa2a"
          }
        ],
        "name": [
          {
            "family": "Neary"
          },
          {
            "given": [
              "Meaghan"
            ]
          },
          {
            "text": "Meaghan Neary"
          }
        ],
        "address": [
          {
            "line": [
              "64 Linskey Street"
            ],
            "use": "home",
            "type": "physical",
            "postalCode": "D02",
            "city": "Dublin",
            "country": "Ireland"
          }
        ],
        "telecom": [
          {
            "system": "phone",
            "value": "001-967-573-0911x465"
          }
        ],
        "extension": [
          {
            "url": "http://hl7.org/fhir/StructureDefinition/patient-nationality",
            "valueCodeableConcept": {
              "coding": [
                {
                  "code": "IE",
                  "system": "http://hl7.org/fhir/ValueSet/country"
                }
              ]
            }
          }
        ],
        "text": {
          "status": "generated",
          "div": "<div xmlns=\"http://www.w3.org/1999/xhtml\"><table class=\"hl7__ips\"><tr><td>Meaghan Neary</td><td>female</td><td>19-Dec-1960</td></tr></table></div>"
        },
        "gender": "female",
        "birthDate": "1960-12-19"
      }
    },
    {
      "fullUrl": "urn:uuid:2bae3349-e74c-4055-b4e8-3b21e4578286",
      "resource": {
        "resourceType": "ServiceRequest",
        "id": "2bae3349-e74c-4055-b4e8-3b21e4578286",
        "meta": {
          "profile": [
            "http://hl7.eu/fhir/laboratory/StructureDefinition/ServiceRequest-eu-lab"
          ]
        },
        "identifier": [
          {
            "system": "http://example.org",
            "value": "a3ea788a-0979-407a-8f02-0a3f830b8ff0"
          }
        ],
        "specimen": [
          {
            "reference": "urn:uuid:4ebb73ec-0ec4-488e-832d-9f6b6a16a731"
          },
          {
            "reference": "urn:uuid:e12186a0-fc8a-46fa-95d5-bd4957735f56"
          },
          {
            "reference": "urn:uuid:5c412267-6866-4609-b21e-be18ad0b9c82"
          }
        ],
        "reasonCode": [
          {
            "coding": [
              {
                "code": "55822004",
                "system": "http://snomed.info/sct",
                "display": "Hyperlipidemia"
              }
            ]
          },
          {
            "coding": [
              {
                "code": "433144002",
                "system": "http://snomed.info/sct",
                "display": "Chronic kidney disease stage 3"
              }
            ]
          },
          {
            "coding": [
              {
                "code": "157141000119108",
                "system": "http://snomed.info/sct",
                "display": "Proteinuria due to type 2 diabetes mellitus"
              }
            ]
          },
          {
            "coding": [
              {
                "code": "431856006",
                "system": "http://snomed.info/sct",
                "display": "Chronic kidney disease stage 2"
              }
            ]
          },
          {
            "coding": [
              {
                "code": "90781000119102",
                "system": "http://snomed.info/sct",
                "display": "Microalbuminuria due to type 2 diabetes mellitus"
              }
            ]
          },
          {
            "coding": [
              {
                "code": "127013003",
                "system": "http://snomed.info/sct",
                "display": "Disorder of kidney due to diabetes mellitus"
              }
            ]
          },
          {
            "coding": [
              {
                "code": "431855005",
                "system": "http://snomed.info/sct",
                "display": "Chronic kidney disease stage 1"
              }
            ]
          },
          {
            "coding": [
              {
                "code": "237602007",
                "system": "http://snomed.info/sct",
                "display": "Metabolic syndrome X"
              }
            ]
          },
          {
            "coding": [
              {
                "code": "271737000",
                "system": "http://snomed.info/sct",
                "display": "Anemia"
              }
            ]
          },
          {
            "coding": [
              {
                "code": "15777000",
                "system": "http://snomed.info/sct",
                "display": "Prediabetes"
              }
            ]
          },
          {
            "coding": [
              {
                "code": "59621000",
                "system": "http://snomed.info/sct",
                "display": "Essential hypertension"
              }
            ]
          }
        ],
        "status": "active",
        "intent": "order",
        "code": {
          "coding": [
            {
              "code": "108252007",
              "system": "http://snomed.info/sct",
              "display": "Laboratory procedure"
            }
          ]
        },
        "subject": {
          "reference": "urn:uuid:90a3532f-6fa7-4c3a-a0dc-a39deb18dc16",
          "display": "Meaghan Neary"
        },
        "requester": {
          "reference": "urn:uuid:0cbbaa1c-99ec-41c2-9198-6aa734db02e4"
        }
      }
    },
    {
      "fullUrl": "urn:uuid:0cbbaa1c-99ec-41c2-9198-6aa734db02e4",
      "resource": {
        "resourceType": "PractitionerRole",
        "id": "0cbbaa1c-99ec-41c2-9198-6aa734db02e4",
        "meta": {
          "profile": [
            "http://hl7.eu/fhir/base/StructureDefinition/practitionerRole-eu"
          ]
        },
        "text": {
          "status": "generated",
          "div": "<div xmlns=\"http://www.w3.org/1999/xhtml\">Provider Role Id: 0cbbaa1c-99ec-41c2-9198-6aa734db02e4</div>"
        },
        "organization": {
          "reference": "urn:uuid:a68c18f5-5bb0-42b9-a663-5da552811fce"
        }
      }
    },
    {
      "fullUrl": "urn:uuid:a68c18f5-5bb0-42b9-a663-5da552811fce",
      "resource": {
        "resourceType": "Organization",
        "id": "a68c18f5-5bb0-42b9-a663-5da552811fce",
        "meta": {
          "profile": [
            "http://hl7.eu/fhir/base/StructureDefinition/organization-eu"
          ]
        },
        "identifier": [
          {
            "assigner": {
              "display": "HL7 Europe"
            },
            "system": "urn:oid:2.16.840.1.113883.2.51.999",
            "value": "2464f312-ccc5-4b78-9617-3be94470bb8a"
          }
        ],
        "address": [
          {
            "line": [
              "Parnell Square West nan"
            ],
            "city": "Dublin",
            "postalCode": "D01",
            "country": "Ireland"
          }
        ],
        "text": {
          "status": "generated",
          "div": "<div xmlns=\"http://www.w3.org/1999/xhtml\">Provider Organization: Rotunda Hospital</div>"
        },
        "name": "Rotunda Hospital"
      }
    },
    {
      "fullUrl": "urn:uuid:4ebb73ec-0ec4-488e-832d-9f6b6a16a731",
      "resource": {
        "resourceType": "Specimen",
        "id": "4ebb73ec-0ec4-488e-832d-9f6b6a16a731",
        "meta": {
          "profile": [
            "http://hl7.eu/fhir/laboratory/StructureDefinition/Specimen-eu-lab"
          ]
        },
        "collection": {
          "collectedDateTime": "2023-05-29"
        },
        "text": {
          "status": "generated",
          "div": "<div xmlns=\"http://www.w3.org/1999/xhtml\"><table class=\"hl7__eu__lab__report\"><tr><th>Specimen</th><th>Collection Date</th></tr><tr><td>Acellular blood (serum or plasma) specimen</td><td><span class=\"nb\">29-May-2023</span></td></tr></table></div>"
        },
        "type": {
          "coding": [
            {
              "code": "122592007",
              "system": "http://snomed.info/sct",
              "display": "Acellular blood (serum or plasma) specimen"
            }
          ]
        }
      }
    },
    {
      "fullUrl": "urn:uuid:e12186a0-fc8a-46fa-95d5-bd4957735f56",
      "resource": {
        "resourceType": "Specimen",
        "id": "e12186a0-fc8a-46fa-95d5-bd4957735f56",
        "meta": {
          "profile": [
            "http://hl7.eu/fhir/laboratory/StructureDefinition/Specimen-eu-lab"
          ]
        },
        "collection": {
          "collectedDateTime": "2023-05-29"
        },
        "text": {
          "status": "generated",
          "div": "<div xmlns=\"http://www.w3.org/1999/xhtml\"><table class=\"hl7__eu__lab__report\"><tr><th>Specimen</th><th>Collection Date</th></tr><tr><td>Urine specimen</td><td><span class=\"nb\">29-May-2023</span></td></tr></table></div>"
        },
        "type": {
          "coding": [
            {
              "code": "122575003",
              "system": "http://snomed.info/sct",
              "display": "Urine specimen"
            }
          ]
        }
      }
    },
    {
      "fullUrl": "urn:uuid:5c412267-6866-4609-b21e-be18ad0b9c82",
      "resource": {
        "resourceType": "Specimen",
        "id": "5c412267-6866-4609-b21e-be18ad0b9c82",
        "meta": {
          "profile": [
            "http://hl7.eu/fhir/laboratory/StructureDefinition/Specimen-eu-lab"
          ]
        },
        "collection": {
          "collectedDateTime": "2023-05-29"
        },
        "text": {
          "status": "generated",
          "div": "<div xmlns=\"http://www.w3.org/1999/xhtml\"><table class=\"hl7__eu__lab__report\"><tr><th>Specimen</th><th>Collection Date</th></tr><tr><td>Whole blood specimen (specimen)</td><td><span class=\"nb\">29-May-2023</span></td></tr></table></div>"
        },
        "type": {
          "coding": [
            {
              "code": "258580003",
              "system": "http://snomed.info/sct",
              "display": "Whole blood specimen (specimen)"
            }
          ]
        }
      }
    },
    {
      "fullUrl": "urn:uuid:a72bdfce-3728-4f44-8b07-f64ad0aa5363",
      "resource": {
        "resourceType": "Observation",
        "id": "a72bdfce-3728-4f44-8b07-f64ad0aa5363",
        "meta": {
          "profile": [
            "http://hl7.eu/fhir/laboratory/StructureDefinition/Observation-resultslab-eu-lab"
          ]
        },
        "performer": [
          {
            "display": "The Central European Lab"
          }
        ],
        "category": [
          {
            "coding": [
              {
                "system": "http://terminology.hl7.org/CodeSystem/observation-category",
                "code": "laboratory"
              }
            ]
          }
        ],
        "code": {
          "coding": [
            {
              "code": "2345-7",
              "system": "http://loinc.org",
              "display": "Glucose [Mass/volume] in Serum or Plasma"
            }
          ],
          "text": "Glucose [Mass/volume] in Serum or Plasma"
        },
        "valueQuantity": {
          "system": "http://unitsofmeasure.org",
          "value": 75.8,
          "unit": "mg/dL",
          "code": "mg/dL"
        },
        "referenceRange": [
          {
            "low": {
              "value": 70,
              "code": "mg/dL",
              "system": "http://unitsofmeasure.org"
            }
          },
          {
            "high": {
              "value": 99,
              "code": "mg/dL",
              "system": "http://unitsofmeasure.org"
            }
          }
        ],
        "text": {
          "status": "generated",
          "div": "<div xmlns=\"http://www.w3.org/1999/xhtml\"><table class=\"hl7__eu__lab__report\"><tr><th>Test</th><th>30-May-2023</th><th>Reference&#xA0;Range</th><th>Unit</th></tr><tr><td>Glucose [Mass/volume] in Serum or Plasma</td><td>75.8</td><td>70 - 99</td><td></td><td>mg/dL</td></tr></table></div>"
        },
        "status": "final",
        "subject": {
          "reference": "urn:uuid:90a3532f-6fa7-4c3a-a0dc-a39deb18dc16",
          "display": "Meaghan Neary"
        },
        "effectiveDateTime": "2023-05-29T22:11:04Z",
        "specimen": {
          "reference": "urn:uuid:4ebb73ec-0ec4-488e-832d-9f6b6a16a731"
        }
      }
    },
    {
      "fullUrl": "urn:uuid:6ef89b82-62f4-4909-877b-5742d6456dc4",
      "resource": {
        "resourceType": "Observation",
        "id": "6ef89b82-62f4-4909-877b-5742d6456dc4",
        "meta": {
          "profile": [
            "http://hl7.eu/fhir/laboratory/StructureDefinition/Observation-resultslab-eu-lab"
          ]
        },
        "performer": [
          {
            "display": "The Central European Lab"
          }
        ],
        "category": [
          {
            "coding": [
              {
                "system": "http://terminology.hl7.org/CodeSystem/observation-category",
                "code": "laboratory"
              }
            ]
          }
        ],
        "code": {
          "coding": [
            {
              "code": "3094-0",
              "system": "http://loinc.org",
              "display": "Urea nitrogen [Mass/volume] in Serum or Plasma"
            }
          ],
          "text": "Urea nitrogen [Mass/volume] in Serum or Plasma"
        },
        "valueQuantity": {
          "system": "http://unitsofmeasure.org",
          "value": 11.6,
          "unit": "mg/dL",
          "code": "mg/dL"
        },
        "referenceRange": [
          {
            "low": {
              "value": 7,
              "code": "mg/dL",
              "system": "http://unitsofmeasure.org"
            }
          },
          {
            "high": {
              "value": 50,
              "code": "mg/dL",
              "system": "http://unitsofmeasure.org"
            }
          }
        ],
        "text": {
          "status": "generated",
          "div": "<div xmlns=\"http://www.w3.org/1999/xhtml\"><table class=\"hl7__eu__lab__report\"><tr><th>Test</th><th>30-May-2023</th><th>Reference&#xA0;Range</th><th>Unit</th></tr><tr><td>Urea nitrogen [Mass/volume] in Serum or Plasma</td><td>11.6</td><td>7 - 50</td><td></td><td>mg/dL</td></tr></table></div>"
        },
        "status": "final",
        "subject": {
          "reference": "urn:uuid:90a3532f-6fa7-4c3a-a0dc-a39deb18dc16",
          "display": "Meaghan Neary"
        },
        "effectiveDateTime": "2023-05-29T22:11:04Z",
        "specimen": {
          "reference": "urn:uuid:4ebb73ec-0ec4-488e-832d-9f6b6a16a731"
        }
      }
    },
    {
      "fullUrl": "urn:uuid:a3b32c7c-08f6-46a6-b64f-b8f341640199",
      "resource": {
        "resourceType": "Observation",
        "id": "a3b32c7c-08f6-46a6-b64f-b8f341640199",
        "meta": {
          "profile": [
            "http://hl7.eu/fhir/laboratory/StructureDefinition/Observation-resultslab-eu-lab"
          ]
        },
        "performer": [
          {
            "display": "The Central European Lab"
          }
        ],
        "category": [
          {
            "coding": [
              {
                "system": "http://terminology.hl7.org/CodeSystem/observation-category",
                "code": "laboratory"
              }
            ]
          }
        ],
        "code": {
          "coding": [
            {
              "code": "2160-0",
              "system": "http://loinc.org",
              "display": "Creatinine [Mass/volume] in Serum or Plasma"
            }
          ],
          "text": "Creatinine [Mass/volume] in Serum or Plasma"
        },
        "valueQuantity": {
          "system": "http://unitsofmeasure.org",
          "value": 1.9,
          "unit": "mg/dL",
          "code": "mg/dL"
        },
        "referenceRange": [
          {
            "low": {
              "value": 0.6,
              "code": "mg/dL",
              "system": "http://unitsofmeasure.org"
            }
          },
          {
            "high": {
              "value": 1.1,
              "code": "mg/dL",
              "system": "http://unitsofmeasure.org"
            }
          }
        ],
        "interpretation": [
          {
            "coding": [
              {
                "code": "H",
                "system": "http://terminology.hl7.org/CodeSystem/v3-ObservationInterpretation",
                "display": "High"
              }
            ]
          }
        ],
        "text": {
          "status": "generated",
          "div": "<div xmlns=\"http://www.w3.org/1999/xhtml\"><table class=\"hl7__eu__lab__report\"><tr><th>Test</th><th>30-May-2023</th><th>Reference&#xA0;Range</th><th>Unit</th></tr><tr><td>Creatinine [Mass/volume] in Serum or Plasma</td><td>1.9</td><td>0.6 - 1.1</td><td>H</td><td>mg/dL</td></tr></table></div>"
        },
        "status": "final",
        "subject": {
          "reference": "urn:uuid:90a3532f-6fa7-4c3a-a0dc-a39deb18dc16",
          "display": "Meaghan Neary"
        },
        "effectiveDateTime": "2023-05-29T22:11:04Z",
        "specimen": {
          "reference": "urn:uuid:4ebb73ec-0ec4-488e-832d-9f6b6a16a731"
        }
      }
    },
    {
      "fullUrl": "urn:uuid:6ec28ba2-70df-47ba-851e-b88e4c534b3b",
      "resource": {
        "resourceType": "Observation",
        "id": "6ec28ba2-70df-47ba-851e-b88e4c534b3b",
        "meta": {
          "profile": [
            "http://hl7.eu/fhir/laboratory/StructureDefinition/Observation-resultslab-eu-lab"
          ]
        },
        "performer": [
          {
            "display": "The Central European Lab"
          }
        ],
        "category": [
          {
            "coding": [
              {
                "system": "http://terminology.hl7.org/CodeSystem/observation-category",
                "code": "laboratory"
              }
            ]
          }
        ],
        "code": {
          "coding": [
            {
              "code": "17861-6",
              "system": "http://loinc.org",
              "display": "Calcium [Mass/volume] in Serum or Plasma"
            }
          ],
          "text": "Calcium [Mass/volume] in Serum or Plasma"
        },
        "valueQuantity": {
          "system": "http://unitsofmeasure.org",
          "value": 9.9,
          "unit": "mg/dL",
          "code": "mg/dL"
        },
        "referenceRange": [
          {
            "low": {
              "value": 8.6,
              "code": "mg/dL",
              "system": "http://unitsofmeasure.org"
            }
          },
          {
            "high": {
              "value": 10.4,
              "code": "mg/dL",
              "system": "http://unitsofmeasure.org"
            }
          }
        ],
        "text": {
          "status": "generated",
          "div": "<div xmlns=\"http://www.w3.org/1999/xhtml\"><table class=\"hl7__eu__lab__report\"><tr><th>Test</th><th>30-May-2023</th><th>Reference&#xA0;Range</th><th>Unit</th></tr><tr><td>Calcium [Mass/volume] in Serum or Plasma</td><td>9.9</td><td>8.6 - 10.4</td><td></td><td>mg/dL</td></tr></table></div>"
        },
        "status": "final",
        "subject": {
          "reference": "urn:uuid:90a3532f-6fa7-4c3a-a0dc-a39deb18dc16",
          "display": "Meaghan Neary"
        },
        "effectiveDateTime": "2023-05-29T22:11:04Z",
        "specimen": {
          "reference": "urn:uuid:4ebb73ec-0ec4-488e-832d-9f6b6a16a731"
        }
      }
    },
    {
      "fullUrl": "urn:uuid:bb0cb7d5-a21e-4619-98ce-344af5909cb2",
      "resource": {
        "resourceType": "Observation",
        "id": "bb0cb7d5-a21e-4619-98ce-344af5909cb2",
        "meta": {
          "profile": [
            "http://hl7.eu/fhir/laboratory/StructureDefinition/Observation-resultslab-eu-lab"
          ]
        },
        "performer": [
          {
            "display": "The Central European Lab"
          }
        ],
        "category": [
          {
            "coding": [
              {
                "system": "http://terminology.hl7.org/CodeSystem/observation-category",
                "code": "laboratory"
              }
            ]
          }
        ],
        "code": {
          "coding": [
            {
              "code": "2951-2",
              "system": "http://loinc.org",
              "display": "Sodium [Moles/volume] in Serum or Plasma"
            }
          ],
          "text": "Sodium [Moles/volume] in Serum or Plasma"
        },
        "valueQuantity": {
          "system": "http://unitsofmeasure.org",
          "value": 143,
          "unit": "mmol/L",
          "code": "mmol/L"
        },
        "referenceRange": [
          {
            "low": {
              "value": 135,
              "code": "mmol/L",
              "system": "http://unitsofmeasure.org"
            }
          },
          {
            "high": {
              "value": 145,
              "code": "mmol/L",
              "system": "http://unitsofmeasure.org"
            }
          }
        ],
        "text": {
          "status": "generated",
          "div": "<div xmlns=\"http://www.w3.org/1999/xhtml\"><table class=\"hl7__eu__lab__report\"><tr><th>Test</th><th>30-May-2023</th><th>Reference&#xA0;Range</th><th>Unit</th></tr><tr><td>Sodium [Moles/volume] in Serum or Plasma</td><td>143.0</td><td>135 - 145</td><td></td><td>mmol/L</td></tr></table></div>"
        },
        "status": "final",
        "subject": {
          "reference": "urn:uuid:90a3532f-6fa7-4c3a-a0dc-a39deb18dc16",
          "display": "Meaghan Neary"
        },
        "effectiveDateTime": "2023-05-29T22:11:04Z",
        "specimen": {
          "reference": "urn:uuid:4ebb73ec-0ec4-488e-832d-9f6b6a16a731"
        }
      }
    },
    {
      "fullUrl": "urn:uuid:0c5b0a4e-0ccd-4b0d-bfa2-06b0403f2f5a",
      "resource": {
        "resourceType": "Observation",
        "id": "0c5b0a4e-0ccd-4b0d-bfa2-06b0403f2f5a",
        "meta": {
          "profile": [
            "http://hl7.eu/fhir/laboratory/StructureDefinition/Observation-resultslab-eu-lab"
          ]
        },
        "performer": [
          {
            "display": "The Central European Lab"
          }
        ],
        "category": [
          {
            "coding": [
              {
                "system": "http://terminology.hl7.org/CodeSystem/observation-category",
                "code": "laboratory"
              }
            ]
          }
        ],
        "code": {
          "coding": [
            {
              "code": "2823-3",
              "system": "http://loinc.org",
              "display": "Potassium [Moles/volume] in Serum or Plasma"
            }
          ],
          "text": "Potassium [Moles/volume] in Serum or Plasma"
        },
        "valueQuantity": {
          "system": "http://unitsofmeasure.org",
          "value": 3.8,
          "unit": "mmol/L",
          "code": "mmol/L"
        },
        "referenceRange": [
          {
            "low": {
              "value": 3.5,
              "code": "mmol/L",
              "system": "http://unitsofmeasure.org"
            }
          },
          {
            "high": {
              "value": 5.1,
              "code": "mmol/L",
              "system": "http://unitsofmeasure.org"
            }
          }
        ],
        "text": {
          "status": "generated",
          "div": "<div xmlns=\"http://www.w3.org/1999/xhtml\"><table class=\"hl7__eu__lab__report\"><tr><th>Test</th><th>30-May-2023</th><th>Reference&#xA0;Range</th><th>Unit</th></tr><tr><td>Potassium [Moles/volume] in Serum or Plasma</td><td>3.8</td><td>3.5 - 5.1</td><td></td><td>mmol/L</td></tr></table></div>"
        },
        "status": "final",
        "subject": {
          "reference": "urn:uuid:90a3532f-6fa7-4c3a-a0dc-a39deb18dc16",
          "display": "Meaghan Neary"
        },
        "effectiveDateTime": "2023-05-29T22:11:04Z",
        "specimen": {
          "reference": "urn:uuid:4ebb73ec-0ec4-488e-832d-9f6b6a16a731"
        }
      }
    },
    {
      "fullUrl": "urn:uuid:2705d3d9-565f-42fc-b23b-a677ed9597e7",
      "resource": {
        "resourceType": "Observation",
        "id": "2705d3d9-565f-42fc-b23b-a677ed9597e7",
        "meta": {
          "profile": [
            "http://hl7.eu/fhir/laboratory/StructureDefinition/Observation-resultslab-eu-lab"
          ]
        },
        "performer": [
          {
            "display": "The Central European Lab"
          }
        ],
        "category": [
          {
            "coding": [
              {
                "system": "http://terminology.hl7.org/CodeSystem/observation-category",
                "code": "laboratory"
              }
            ]
          }
        ],
        "code": {
          "coding": [
            {
              "code": "2075-0",
              "system": "http://loinc.org",
              "display": "Chloride [Moles/volume] in Serum or Plasma"
            }
          ],
          "text": "Chloride [Moles/volume] in Serum or Plasma"
        },
        "valueQuantity": {
          "system": "http://unitsofmeasure.org",
          "value": 108.7,
          "unit": "mmol/L",
          "code": "mmol/L"
        },
        "referenceRange": [
          {
            "low": {
              "value": 98,
              "code": "mmol/L",
              "system": "http://unitsofmeasure.org"
            }
          },
          {
            "high": {
              "value": 108,
              "code": "mmol/L",
              "system": "http://unitsofmeasure.org"
            }
          }
        ],
        "interpretation": [
          {
            "coding": [
              {
                "code": "H",
                "system": "http://terminology.hl7.org/CodeSystem/v3-ObservationInterpretation",
                "display": "High"
              }
            ]
          }
        ],
        "text": {
          "status": "generated",
          "div": "<div xmlns=\"http://www.w3.org/1999/xhtml\"><table class=\"hl7__eu__lab__report\"><tr><th>Test</th><th>30-May-2023</th><th>Reference&#xA0;Range</th><th>Unit</th></tr><tr><td>Chloride [Moles/volume] in Serum or Plasma</td><td>108.7</td><td>98 - 108</td><td>H</td><td>mmol/L</td></tr></table></div>"
        },
        "status": "final",
        "subject": {
          "reference": "urn:uuid:90a3532f-6fa7-4c3a-a0dc-a39deb18dc16",
          "display": "Meaghan Neary"
        },
        "effectiveDateTime": "2023-05-29T22:11:04Z",
        "specimen": {
          "reference": "urn:uuid:4ebb73ec-0ec4-488e-832d-9f6b6a16a731"
        }
      }
    },
    {
      "fullUrl": "urn:uuid:b721db9f-f6ad-4e8d-a86a-59b65362e54c",
      "resource": {
        "resourceType": "Observation",
        "id": "b721db9f-f6ad-4e8d-a86a-59b65362e54c",
        "meta": {
          "profile": [
            "http://hl7.eu/fhir/laboratory/StructureDefinition/Observation-resultslab-eu-lab"
          ]
        },
        "performer": [
          {
            "display": "The Central European Lab"
          }
        ],
        "category": [
          {
            "coding": [
              {
                "system": "http://terminology.hl7.org/CodeSystem/observation-category",
                "code": "laboratory"
              }
            ]
          }
        ],
        "code": {
          "coding": [
            {
              "code": "2028-9",
              "system": "http://loinc.org",
              "display": "Carbon dioxide, total [Moles/volume] in Serum or Plasma"
            }
          ],
          "text": "Carbon dioxide, total [Moles/volume] in Serum or Plasma"
        },
        "valueQuantity": {
          "system": "http://unitsofmeasure.org",
          "value": 25,
          "unit": "mmol/L",
          "code": "mmol/L"
        },
        "referenceRange": [
          {
            "low": {
              "value": 22,
              "code": "mmol/L",
              "system": "http://unitsofmeasure.org"
            }
          },
          {
            "high": {
              "value": 32,
              "code": "mmol/L",
              "system": "http://unitsofmeasure.org"
            }
          }
        ],
        "text": {
          "status": "generated",
          "div": "<div xmlns=\"http://www.w3.org/1999/xhtml\"><table class=\"hl7__eu__lab__report\"><tr><th>Test</th><th>30-May-2023</th><th>Reference&#xA0;Range</th><th>Unit</th></tr><tr><td>Carbon dioxide, total [Moles/volume] in Serum or Plasma</td><td>25.0</td><td>22 - 32</td><td></td><td>mmol/L</td></tr></table></div>"
        },
        "status": "final",
        "subject": {
          "reference": "urn:uuid:90a3532f-6fa7-4c3a-a0dc-a39deb18dc16",
          "display": "Meaghan Neary"
        },
        "effectiveDateTime": "2023-05-29T22:11:04Z",
        "specimen": {
          "reference": "urn:uuid:4ebb73ec-0ec4-488e-832d-9f6b6a16a731"
        }
      }
    },
    {
      "fullUrl": "urn:uuid:790c4ef7-de71-4eea-b246-d6a800deb85b",
      "resource": {
        "resourceType": "Observation",
        "id": "790c4ef7-de71-4eea-b246-d6a800deb85b",
        "meta": {
          "profile": [
            "http://hl7.eu/fhir/laboratory/StructureDefinition/Observation-resultslab-eu-lab"
          ]
        },
        "performer": [
          {
            "display": "The Central European Lab"
          }
        ],
        "category": [
          {
            "coding": [
              {
                "system": "http://terminology.hl7.org/CodeSystem/observation-category",
                "code": "laboratory"
              }
            ]
          }
        ],
        "code": {
          "coding": [
            {
              "code": "5767-9",
              "system": "http://loinc.org",
              "display": "Appearance of Urine"
            }
          ],
          "text": "Appearance of Urine"
        },
        "text": {
          "status": "generated",
          "div": "<div xmlns=\"http://www.w3.org/1999/xhtml\"><table class=\"hl7__eu__lab__report\"><tr><th>Test</th><th>30-May-2023</th><th>Reference&#xA0;Range</th><th>Unit</th></tr><tr><td>Appearance of Urine</td></tr></table></div>"
        },
        "status": "final",
        "subject": {
          "reference": "urn:uuid:90a3532f-6fa7-4c3a-a0dc-a39deb18dc16",
          "display": "Meaghan Neary"
        },
        "effectiveDateTime": "2023-05-29T22:11:04Z",
        "specimen": {
          "reference": "urn:uuid:e12186a0-fc8a-46fa-95d5-bd4957735f56"
        }
      }
    },
    {
      "fullUrl": "urn:uuid:20667d21-4dd0-4f87-870d-a3ac00119874",
      "resource": {
        "resourceType": "Observation",
        "id": "20667d21-4dd0-4f87-870d-a3ac00119874",
        "meta": {
          "profile": [
            "http://hl7.eu/fhir/laboratory/StructureDefinition/Observation-resultslab-eu-lab"
          ]
        },
        "performer": [
          {
            "display": "The Central European Lab"
          }
        ],
        "category": [
          {
            "coding": [
              {
                "system": "http://terminology.hl7.org/CodeSystem/observation-category",
                "code": "laboratory"
              }
            ]
          }
        ],
        "code": {
          "coding": [
            {
              "code": "34533-0",
              "system": "http://loinc.org",
              "display": "Odor of Urine"
            }
          ],
          "text": "Odor of Urine"
        },
        "text": {
          "status": "generated",
          "div": "<div xmlns=\"http://www.w3.org/1999/xhtml\"><table class=\"hl7__eu__lab__report\"><tr><th>Test</th><th>30-May-2023</th><th>Reference&#xA0;Range</th><th>Unit</th></tr><tr><td>Odor of Urine</td></tr></table></div>"
        },
        "status": "final",
        "subject": {
          "reference": "urn:uuid:90a3532f-6fa7-4c3a-a0dc-a39deb18dc16",
          "display": "Meaghan Neary"
        },
        "effectiveDateTime": "2023-05-29T22:11:04Z",
        "specimen": {
          "reference": "urn:uuid:e12186a0-fc8a-46fa-95d5-bd4957735f56"
        }
      }
    },
    {
      "fullUrl": "urn:uuid:f511926e-6881-4f34-aa7d-c92ba04858d4",
      "resource": {
        "resourceType": "Observation",
        "id": "f511926e-6881-4f34-aa7d-c92ba04858d4",
        "meta": {
          "profile": [
            "http://hl7.eu/fhir/laboratory/StructureDefinition/Observation-resultslab-eu-lab"
          ]
        },
        "performer": [
          {
            "display": "The Central European Lab"
          }
        ],
        "category": [
          {
            "coding": [
              {
                "system": "http://terminology.hl7.org/CodeSystem/observation-category",
                "code": "laboratory"
              }
            ]
          }
        ],
        "code": {
          "coding": [
            {
              "code": "32167-9",
              "system": "http://loinc.org",
              "display": "Clarity of Urine"
            }
          ],
          "text": "Clarity of Urine"
        },
        "text": {
          "status": "generated",
          "div": "<div xmlns=\"http://www.w3.org/1999/xhtml\"><table class=\"hl7__eu__lab__report\"><tr><th>Test</th><th>30-May-2023</th><th>Reference&#xA0;Range</th><th>Unit</th></tr><tr><td>Clarity of Urine</td></tr></table></div>"
        },
        "status": "final",
        "subject": {
          "reference": "urn:uuid:90a3532f-6fa7-4c3a-a0dc-a39deb18dc16",
          "display": "Meaghan Neary"
        },
        "effectiveDateTime": "2023-05-29T22:11:04Z",
        "specimen": {
          "reference": "urn:uuid:e12186a0-fc8a-46fa-95d5-bd4957735f56"
        }
      }
    },
    {
      "fullUrl": "urn:uuid:dcf61466-0093-4876-bdf3-e91250dfa14c",
      "resource": {
        "resourceType": "Observation",
        "id": "dcf61466-0093-4876-bdf3-e91250dfa14c",
        "meta": {
          "profile": [
            "http://hl7.eu/fhir/laboratory/StructureDefinition/Observation-resultslab-eu-lab"
          ]
        },
        "performer": [
          {
            "display": "The Central European Lab"
          }
        ],
        "category": [
          {
            "coding": [
              {
                "system": "http://terminology.hl7.org/CodeSystem/observation-category",
                "code": "laboratory"
              }
            ]
          }
        ],
        "code": {
          "coding": [
            {
              "code": "5778-6",
              "system": "http://loinc.org",
              "display": "Color of Urine"
            }
          ],
          "text": "Color of Urine"
        },
        "text": {
          "status": "generated",
          "div": "<div xmlns=\"http://www.w3.org/1999/xhtml\"><table class=\"hl7__eu__lab__report\"><tr><th>Test</th><th>30-May-2023</th><th>Reference&#xA0;Range</th><th>Unit</th></tr><tr><td>Color of Urine</td></tr></table></div>"
        },
        "status": "final",
        "subject": {
          "reference": "urn:uuid:90a3532f-6fa7-4c3a-a0dc-a39deb18dc16",
          "display": "Meaghan Neary"
        },
        "effectiveDateTime": "2023-05-29T22:11:04Z",
        "specimen": {
          "reference": "urn:uuid:e12186a0-fc8a-46fa-95d5-bd4957735f56"
        }
      }
    },
    {
      "fullUrl": "urn:uuid:8fa6d098-ae7a-4a23-9b27-e19ea834876f",
      "resource": {
        "resourceType": "Observation",
        "id": "8fa6d098-ae7a-4a23-9b27-e19ea834876f",
        "meta": {
          "profile": [
            "http://hl7.eu/fhir/laboratory/StructureDefinition/Observation-resultslab-eu-lab"
          ]
        },
        "performer": [
          {
            "display": "The Central European Lab"
          }
        ],
        "category": [
          {
            "coding": [
              {
                "system": "http://terminology.hl7.org/CodeSystem/observation-category",
                "code": "laboratory"
              }
            ]
          }
        ],
        "code": {
          "coding": [
            {
              "code": "5792-7",
              "system": "http://loinc.org",
              "display": "Glucose [Mass/volume] in Urine by Test strip"
            }
          ],
          "text": "Glucose [Mass/volume] in Urine by Test strip"
        },
        "valueQuantity": {
          "system": "http://unitsofmeasure.org",
          "value": 0.7,
          "unit": "mg/dL",
          "code": "mg/dL"
        },
        "referenceRange": [
          {
            "low": {
              "value": 0.8,
              "code": "mg/dL",
              "system": "http://unitsofmeasure.org"
            }
          },
          {
            "high": {
              "value": 0,
              "code": "mg/dL",
              "system": "http://unitsofmeasure.org"
            }
          }
        ],
        "interpretation": [
          {
            "coding": [
              {
                "code": "L",
                "system": "http://terminology.hl7.org/CodeSystem/v3-ObservationInterpretation",
                "display": "Low"
              }
            ]
          }
        ],
        "text": {
          "status": "generated",
          "div": "<div xmlns=\"http://www.w3.org/1999/xhtml\"><table class=\"hl7__eu__lab__report\"><tr><th>Test</th><th>30-May-2023</th><th>Reference&#xA0;Range</th><th>Unit</th></tr><tr><td>Glucose [Mass/volume] in Urine by Test strip</td><td>0.7</td><td>0.8 - 0</td><td>L</td><td>mg/dL</td></tr></table></div>"
        },
        "status": "final",
        "subject": {
          "reference": "urn:uuid:90a3532f-6fa7-4c3a-a0dc-a39deb18dc16",
          "display": "Meaghan Neary"
        },
        "effectiveDateTime": "2023-05-29T22:11:04Z",
        "specimen": {
          "reference": "urn:uuid:e12186a0-fc8a-46fa-95d5-bd4957735f56"
        }
      }
    },
    {
      "fullUrl": "urn:uuid:a5204787-0b78-4cc8-b547-f404b49cee5f",
      "resource": {
        "resourceType": "Observation",
        "id": "a5204787-0b78-4cc8-b547-f404b49cee5f",
        "meta": {
          "profile": [
            "http://hl7.eu/fhir/laboratory/StructureDefinition/Observation-resultslab-eu-lab"
          ]
        },
        "performer": [
          {
            "display": "The Central European Lab"
          }
        ],
        "category": [
          {
            "coding": [
              {
                "system": "http://terminology.hl7.org/CodeSystem/observation-category",
                "code": "laboratory"
              }
            ]
          }
        ],
        "code": {
          "coding": [
            {
              "code": "25428-4",
              "system": "http://loinc.org",
              "display": "Glucose [Presence] in Urine by Test strip"
            }
          ],
          "text": "Glucose [Presence] in Urine by Test strip"
        },
        "text": {
          "status": "generated",
          "div": "<div xmlns=\"http://www.w3.org/1999/xhtml\"><table class=\"hl7__eu__lab__report\"><tr><th>Test</th><th>30-May-2023</th><th>Reference&#xA0;Range</th><th>Unit</th></tr><tr><td>Glucose [Presence] in Urine by Test strip</td></tr></table></div>"
        },
        "status": "final",
        "subject": {
          "reference": "urn:uuid:90a3532f-6fa7-4c3a-a0dc-a39deb18dc16",
          "display": "Meaghan Neary"
        },
        "effectiveDateTime": "2023-05-29T22:11:04Z",
        "specimen": {
          "reference": "urn:uuid:e12186a0-fc8a-46fa-95d5-bd4957735f56"
        }
      }
    },
    {
      "fullUrl": "urn:uuid:6fd4ebb0-8908-42b1-b9d0-dceb6631a448",
      "resource": {
        "resourceType": "Observation",
        "id": "6fd4ebb0-8908-42b1-b9d0-dceb6631a448",
        "meta": {
          "profile": [
            "http://hl7.eu/fhir/laboratory/StructureDefinition/Observation-resultslab-eu-lab"
          ]
        },
        "performer": [
          {
            "display": "The Central European Lab"
          }
        ],
        "category": [
          {
            "coding": [
              {
                "system": "http://terminology.hl7.org/CodeSystem/observation-category",
                "code": "laboratory"
              }
            ]
          }
        ],
        "code": {
          "coding": [
            {
              "code": "20505-4",
              "system": "http://loinc.org",
              "display": "Bilirubin.total [Mass/volume] in Urine by Test strip"
            }
          ],
          "text": "Bilirubin.total [Mass/volume] in Urine by Test strip"
        },
        "valueQuantity": {
          "system": "http://unitsofmeasure.org",
          "value": 1.4,
          "unit": "mg/dL",
          "code": "mg/dL"
        },
        "referenceRange": [
          {
            "low": {
              "value": 0,
              "code": "mg/dL",
              "system": "http://unitsofmeasure.org"
            }
          },
          {
            "high": {
              "value": 1,
              "code": "mg/dL",
              "system": "http://unitsofmeasure.org"
            }
          }
        ],
        "interpretation": [
          {
            "coding": [
              {
                "code": "H",
                "system": "http://terminology.hl7.org/CodeSystem/v3-ObservationInterpretation",
                "display": "High"
              }
            ]
          }
        ],
        "text": {
          "status": "generated",
          "div": "<div xmlns=\"http://www.w3.org/1999/xhtml\"><table class=\"hl7__eu__lab__report\"><tr><th>Test</th><th>30-May-2023</th><th>Reference&#xA0;Range</th><th>Unit</th></tr><tr><td>Bilirubin.total [Mass/volume] in Urine by Test strip</td><td>1.4</td><td>0 - 1</td><td>H</td><td>mg/dL</td></tr></table></div>"
        },
        "status": "final",
        "subject": {
          "reference": "urn:uuid:90a3532f-6fa7-4c3a-a0dc-a39deb18dc16",
          "display": "Meaghan Neary"
        },
        "effectiveDateTime": "2023-05-29T22:11:04Z",
        "specimen": {
          "reference": "urn:uuid:e12186a0-fc8a-46fa-95d5-bd4957735f56"
        }
      }
    },
    {
      "fullUrl": "urn:uuid:0437c9b1-9d79-450a-8023-3f6735ac0c9d",
      "resource": {
        "resourceType": "Observation",
        "id": "0437c9b1-9d79-450a-8023-3f6735ac0c9d",
        "meta": {
          "profile": [
            "http://hl7.eu/fhir/laboratory/StructureDefinition/Observation-resultslab-eu-lab"
          ]
        },
        "performer": [
          {
            "display": "The Central European Lab"
          }
        ],
        "category": [
          {
            "coding": [
              {
                "system": "http://terminology.hl7.org/CodeSystem/observation-category",
                "code": "laboratory"
              }
            ]
          }
        ],
        "code": {
          "coding": [
            {
              "code": "5770-3",
              "system": "http://loinc.org",
              "display": "Bilirubin.total [Presence] in Urine by Test strip"
            }
          ],
          "text": "Bilirubin.total [Presence] in Urine by Test strip"
        },
        "text": {
          "status": "generated",
          "div": "<div xmlns=\"http://www.w3.org/1999/xhtml\"><table class=\"hl7__eu__lab__report\"><tr><th>Test</th><th>30-May-2023</th><th>Reference&#xA0;Range</th><th>Unit</th></tr><tr><td>Bilirubin.total [Presence] in Urine by Test strip</td></tr></table></div>"
        },
        "status": "final",
        "subject": {
          "reference": "urn:uuid:90a3532f-6fa7-4c3a-a0dc-a39deb18dc16",
          "display": "Meaghan Neary"
        },
        "effectiveDateTime": "2023-05-29T22:11:04Z",
        "specimen": {
          "reference": "urn:uuid:e12186a0-fc8a-46fa-95d5-bd4957735f56"
        }
      }
    },
    {
      "fullUrl": "urn:uuid:599c1352-9f2d-4153-8c6f-5cc0cf88a5b6",
      "resource": {
        "resourceType": "Observation",
        "id": "599c1352-9f2d-4153-8c6f-5cc0cf88a5b6",
        "meta": {
          "profile": [
            "http://hl7.eu/fhir/laboratory/StructureDefinition/Observation-resultslab-eu-lab"
          ]
        },
        "performer": [
          {
            "display": "The Central European Lab"
          }
        ],
        "category": [
          {
            "coding": [
              {
                "system": "http://terminology.hl7.org/CodeSystem/observation-category",
                "code": "laboratory"
              }
            ]
          }
        ],
        "code": {
          "coding": [
            {
              "code": "5797-6",
              "system": "http://loinc.org",
              "display": "Ketones [Mass/volume] in Urine by Test strip"
            }
          ],
          "text": "Ketones [Mass/volume] in Urine by Test strip"
        },
        "valueQuantity": {
          "system": "http://unitsofmeasure.org",
          "value": 5.8,
          "unit": "mg/dL",
          "code": "mg/dL"
        },
        "referenceRange": [
          {
            "low": {
              "value": 0,
              "code": "mg/dL",
              "system": "http://unitsofmeasure.org"
            }
          },
          {
            "high": {
              "value": 4,
              "code": "mg/dL",
              "system": "http://unitsofmeasure.org"
            }
          }
        ],
        "interpretation": [
          {
            "coding": [
              {
                "code": "H",
                "system": "http://terminology.hl7.org/CodeSystem/v3-ObservationInterpretation",
                "display": "High"
              }
            ]
          }
        ],
        "text": {
          "status": "generated",
          "div": "<div xmlns=\"http://www.w3.org/1999/xhtml\"><table class=\"hl7__eu__lab__report\"><tr><th>Test</th><th>30-May-2023</th><th>Reference&#xA0;Range</th><th>Unit</th></tr><tr><td>Ketones [Mass/volume] in Urine by Test strip</td><td>5.8</td><td>0 - 4</td><td>H</td><td>mg/dL</td></tr></table></div>"
        },
        "status": "final",
        "subject": {
          "reference": "urn:uuid:90a3532f-6fa7-4c3a-a0dc-a39deb18dc16",
          "display": "Meaghan Neary"
        },
        "effectiveDateTime": "2023-05-29T22:11:04Z",
        "specimen": {
          "reference": "urn:uuid:e12186a0-fc8a-46fa-95d5-bd4957735f56"
        }
      }
    },
    {
      "fullUrl": "urn:uuid:8fce5eed-7c57-4ddf-8860-caa83ddc0d47",
      "resource": {
        "resourceType": "Observation",
        "id": "8fce5eed-7c57-4ddf-8860-caa83ddc0d47",
        "meta": {
          "profile": [
            "http://hl7.eu/fhir/laboratory/StructureDefinition/Observation-resultslab-eu-lab"
          ]
        },
        "performer": [
          {
            "display": "The Central European Lab"
          }
        ],
        "category": [
          {
            "coding": [
              {
                "system": "http://terminology.hl7.org/CodeSystem/observation-category",
                "code": "laboratory"
              }
            ]
          }
        ],
        "code": {
          "coding": [
            {
              "code": "2514-8",
              "system": "http://loinc.org",
              "display": "Ketones [Presence] in Urine by Test strip"
            }
          ],
          "text": "Ketones [Presence] in Urine by Test strip"
        },
        "text": {
          "status": "generated",
          "div": "<div xmlns=\"http://www.w3.org/1999/xhtml\"><table class=\"hl7__eu__lab__report\"><tr><th>Test</th><th>30-May-2023</th><th>Reference&#xA0;Range</th><th>Unit</th></tr><tr><td>Ketones [Presence] in Urine by Test strip</td></tr></table></div>"
        },
        "status": "final",
        "subject": {
          "reference": "urn:uuid:90a3532f-6fa7-4c3a-a0dc-a39deb18dc16",
          "display": "Meaghan Neary"
        },
        "effectiveDateTime": "2023-05-29T22:11:04Z",
        "specimen": {
          "reference": "urn:uuid:e12186a0-fc8a-46fa-95d5-bd4957735f56"
        }
      }
    },
    {
      "fullUrl": "urn:uuid:6d95c835-f346-422f-9e65-6e5955309fb6",
      "resource": {
        "resourceType": "Observation",
        "id": "6d95c835-f346-422f-9e65-6e5955309fb6",
        "meta": {
          "profile": [
            "http://hl7.eu/fhir/laboratory/StructureDefinition/Observation-resultslab-eu-lab"
          ]
        },
        "performer": [
          {
            "display": "The Central European Lab"
          }
        ],
        "category": [
          {
            "coding": [
              {
                "system": "http://terminology.hl7.org/CodeSystem/observation-category",
                "code": "laboratory"
              }
            ]
          }
        ],
        "code": {
          "coding": [
            {
              "code": "5811-5",
              "system": "http://loinc.org",
              "display": "Specific gravity of Urine by Test strip"
            }
          ],
          "text": "Specific gravity of Urine by Test strip"
        },
        "valueQuantity": {
          "system": "http://unitsofmeasure.org",
          "value": 1,
          "unit": "{nominal}",
          "code": "{nominal}"
        },
        "referenceRange": [
          {
            "low": {
              "value": 1.005,
              "code": "g/mL",
              "system": "http://unitsofmeasure.org"
            }
          },
          {
            "high": {
              "value": 1.03,
              "code": "g/mL",
              "system": "http://unitsofmeasure.org"
            }
          }
        ],
        "interpretation": [
          {
            "coding": [
              {
                "code": "L",
                "system": "http://terminology.hl7.org/CodeSystem/v3-ObservationInterpretation",
                "display": "Low"
              }
            ]
          }
        ],
        "text": {
          "status": "generated",
          "div": "<div xmlns=\"http://www.w3.org/1999/xhtml\"><table class=\"hl7__eu__lab__report\"><tr><th>Test</th><th>30-May-2023</th><th>Reference&#xA0;Range</th><th>Unit</th></tr><tr><td>Specific gravity of Urine by Test strip</td><td>1.0</td><td>1.005 - 1.03</td><td>L</td><td>{nominal}</td></tr></table></div>"
        },
        "status": "final",
        "subject": {
          "reference": "urn:uuid:90a3532f-6fa7-4c3a-a0dc-a39deb18dc16",
          "display": "Meaghan Neary"
        },
        "effectiveDateTime": "2023-05-29T22:11:04Z",
        "specimen": {
          "reference": "urn:uuid:e12186a0-fc8a-46fa-95d5-bd4957735f56"
        }
      }
    },
    {
      "fullUrl": "urn:uuid:a6c4f069-b465-472f-a3f3-2c0e6e98bc84",
      "resource": {
        "resourceType": "Observation",
        "id": "a6c4f069-b465-472f-a3f3-2c0e6e98bc84",
        "meta": {
          "profile": [
            "http://hl7.eu/fhir/laboratory/StructureDefinition/Observation-resultslab-eu-lab"
          ]
        },
        "performer": [
          {
            "display": "The Central European Lab"
          }
        ],
        "category": [
          {
            "coding": [
              {
                "system": "http://terminology.hl7.org/CodeSystem/observation-category",
                "code": "laboratory"
              }
            ]
          }
        ],
        "code": {
          "coding": [
            {
              "code": "5803-2",
              "system": "http://loinc.org",
              "display": "pH of Urine by Test strip"
            }
          ],
          "text": "pH of Urine by Test strip"
        },
        "valueQuantity": {
          "system": "http://unitsofmeasure.org",
          "value": 5.7,
          "unit": "pH",
          "code": "pH"
        },
        "referenceRange": [
          {
            "low": {
              "value": 4.6,
              "code": "pH",
              "system": "http://unitsofmeasure.org"
            }
          },
          {
            "high": {
              "value": 7,
              "code": "pH",
              "system": "http://unitsofmeasure.org"
            }
          }
        ],
        "text": {
          "status": "generated",
          "div": "<div xmlns=\"http://www.w3.org/1999/xhtml\"><table class=\"hl7__eu__lab__report\"><tr><th>Test</th><th>30-May-2023</th><th>Reference&#xA0;Range</th><th>Unit</th></tr><tr><td>pH of Urine by Test strip</td><td>5.7</td><td>4.6 - 7</td><td></td><td>pH</td></tr></table></div>"
        },
        "status": "final",
        "subject": {
          "reference": "urn:uuid:90a3532f-6fa7-4c3a-a0dc-a39deb18dc16",
          "display": "Meaghan Neary"
        },
        "effectiveDateTime": "2023-05-29T22:11:04Z",
        "specimen": {
          "reference": "urn:uuid:e12186a0-fc8a-46fa-95d5-bd4957735f56"
        }
      }
    },
    {
      "fullUrl": "urn:uuid:12ee2190-4a89-4cae-9666-71a351ee366d",
      "resource": {
        "resourceType": "Observation",
        "id": "12ee2190-4a89-4cae-9666-71a351ee366d",
        "meta": {
          "profile": [
            "http://hl7.eu/fhir/laboratory/StructureDefinition/Observation-resultslab-eu-lab"
          ]
        },
        "performer": [
          {
            "display": "The Central European Lab"
          }
        ],
        "category": [
          {
            "coding": [
              {
                "system": "http://terminology.hl7.org/CodeSystem/observation-category",
                "code": "laboratory"
              }
            ]
          }
        ],
        "code": {
          "coding": [
            {
              "code": "5804-0",
              "system": "http://loinc.org",
              "display": "Protein [Mass/volume] in Urine by Test strip"
            }
          ],
          "text": "Protein [Mass/volume] in Urine by Test strip"
        },
        "valueQuantity": {
          "system": "http://unitsofmeasure.org",
          "value": 283.9,
          "unit": "mg/dL",
          "code": "mg/dL"
        },
        "referenceRange": [
          {
            "low": {
              "value": 0,
              "code": "mg/dL",
              "system": "http://unitsofmeasure.org"
            }
          },
          {
            "high": {
              "value": 14,
              "code": "mg/dL",
              "system": "http://unitsofmeasure.org"
            }
          }
        ],
        "interpretation": [
          {
            "coding": [
              {
                "code": "H",
                "system": "http://terminology.hl7.org/CodeSystem/v3-ObservationInterpretation",
                "display": "High"
              }
            ]
          }
        ],
        "text": {
          "status": "generated",
          "div": "<div xmlns=\"http://www.w3.org/1999/xhtml\"><table class=\"hl7__eu__lab__report\"><tr><th>Test</th><th>30-May-2023</th><th>Reference&#xA0;Range</th><th>Unit</th></tr><tr><td>Protein [Mass/volume] in Urine by Test strip</td><td>283.9</td><td>0 - 14</td><td>H</td><td>mg/dL</td></tr></table></div>"
        },
        "status": "final",
        "subject": {
          "reference": "urn:uuid:90a3532f-6fa7-4c3a-a0dc-a39deb18dc16",
          "display": "Meaghan Neary"
        },
        "effectiveDateTime": "2023-05-29T22:11:04Z",
        "specimen": {
          "reference": "urn:uuid:e12186a0-fc8a-46fa-95d5-bd4957735f56"
        }
      }
    },
    {
      "fullUrl": "urn:uuid:70642aaf-4d9d-42c6-ae58-adb112bf716d",
      "resource": {
        "resourceType": "Observation",
        "id": "70642aaf-4d9d-42c6-ae58-adb112bf716d",
        "meta": {
          "profile": [
            "http://hl7.eu/fhir/laboratory/StructureDefinition/Observation-resultslab-eu-lab"
          ]
        },
        "performer": [
          {
            "display": "The Central European Lab"
          }
        ],
        "category": [
          {
            "coding": [
              {
                "system": "http://terminology.hl7.org/CodeSystem/observation-category",
                "code": "laboratory"
              }
            ]
          }
        ],
        "code": {
          "coding": [
            {
              "code": "20454-5",
              "system": "http://loinc.org",
              "display": "Protein [Presence] in Urine by Test strip"
            }
          ],
          "text": "Protein [Presence] in Urine by Test strip"
        },
        "text": {
          "status": "generated",
          "div": "<div xmlns=\"http://www.w3.org/1999/xhtml\"><table class=\"hl7__eu__lab__report\"><tr><th>Test</th><th>30-May-2023</th><th>Reference&#xA0;Range</th><th>Unit</th></tr><tr><td>Protein [Presence] in Urine by Test strip</td></tr></table></div>"
        },
        "status": "final",
        "subject": {
          "reference": "urn:uuid:90a3532f-6fa7-4c3a-a0dc-a39deb18dc16",
          "display": "Meaghan Neary"
        },
        "effectiveDateTime": "2023-05-29T22:11:04Z",
        "specimen": {
          "reference": "urn:uuid:e12186a0-fc8a-46fa-95d5-bd4957735f56"
        }
      }
    },
    {
      "fullUrl": "urn:uuid:5d6b588b-068f-409d-aa9b-9f4bdfc40d4f",
      "resource": {
        "resourceType": "Observation",
        "id": "5d6b588b-068f-409d-aa9b-9f4bdfc40d4f",
        "meta": {
          "profile": [
            "http://hl7.eu/fhir/laboratory/StructureDefinition/Observation-resultslab-eu-lab"
          ]
        },
        "performer": [
          {
            "display": "The Central European Lab"
          }
        ],
        "category": [
          {
            "coding": [
              {
                "system": "http://terminology.hl7.org/CodeSystem/observation-category",
                "code": "laboratory"
              }
            ]
          }
        ],
        "code": {
          "coding": [
            {
              "code": "5802-4",
              "system": "http://loinc.org",
              "display": "Nitrite [Presence] in Urine by Test strip"
            }
          ],
          "text": "Nitrite [Presence] in Urine by Test strip"
        },
        "text": {
          "status": "generated",
          "div": "<div xmlns=\"http://www.w3.org/1999/xhtml\"><table class=\"hl7__eu__lab__report\"><tr><th>Test</th><th>30-May-2023</th><th>Reference&#xA0;Range</th><th>Unit</th></tr><tr><td>Nitrite [Presence] in Urine by Test strip</td></tr></table></div>"
        },
        "status": "final",
        "subject": {
          "reference": "urn:uuid:90a3532f-6fa7-4c3a-a0dc-a39deb18dc16",
          "display": "Meaghan Neary"
        },
        "effectiveDateTime": "2023-05-29T22:11:04Z",
        "specimen": {
          "reference": "urn:uuid:e12186a0-fc8a-46fa-95d5-bd4957735f56"
        }
      }
    },
    {
      "fullUrl": "urn:uuid:c3cfdb3b-eda5-4b52-8662-708293635df9",
      "resource": {
        "resourceType": "Observation",
        "id": "c3cfdb3b-eda5-4b52-8662-708293635df9",
        "meta": {
          "profile": [
            "http://hl7.eu/fhir/laboratory/StructureDefinition/Observation-resultslab-eu-lab"
          ]
        },
        "performer": [
          {
            "display": "The Central European Lab"
          }
        ],
        "category": [
          {
            "coding": [
              {
                "system": "http://terminology.hl7.org/CodeSystem/observation-category",
                "code": "laboratory"
              }
            ]
          }
        ],
        "code": {
          "coding": [
            {
              "code": "5794-3",
              "system": "http://loinc.org",
              "display": "Hemoglobin [Presence] in Urine by Test strip"
            }
          ],
          "text": "Hemoglobin [Presence] in Urine by Test strip"
        },
        "text": {
          "status": "generated",
          "div": "<div xmlns=\"http://www.w3.org/1999/xhtml\"><table class=\"hl7__eu__lab__report\"><tr><th>Test</th><th>30-May-2023</th><th>Reference&#xA0;Range</th><th>Unit</th></tr><tr><td>Hemoglobin [Presence] in Urine by Test strip</td></tr></table></div>"
        },
        "status": "final",
        "subject": {
          "reference": "urn:uuid:90a3532f-6fa7-4c3a-a0dc-a39deb18dc16",
          "display": "Meaghan Neary"
        },
        "effectiveDateTime": "2023-05-29T22:11:04Z",
        "specimen": {
          "reference": "urn:uuid:e12186a0-fc8a-46fa-95d5-bd4957735f56"
        }
      }
    },
    {
      "fullUrl": "urn:uuid:3d9f6327-aafb-4ff3-b268-6190907a27ee",
      "resource": {
        "resourceType": "Observation",
        "id": "3d9f6327-aafb-4ff3-b268-6190907a27ee",
        "meta": {
          "profile": [
            "http://hl7.eu/fhir/laboratory/StructureDefinition/Observation-resultslab-eu-lab"
          ]
        },
        "performer": [
          {
            "display": "The Central European Lab"
          }
        ],
        "category": [
          {
            "coding": [
              {
                "system": "http://terminology.hl7.org/CodeSystem/observation-category",
                "code": "laboratory"
              }
            ]
          }
        ],
        "code": {
          "coding": [
            {
              "code": "5799-2",
              "system": "http://loinc.org",
              "display": "Leukocyte esterase [Presence] in Urine by Test strip"
            }
          ],
          "text": "Leukocyte esterase [Presence] in Urine by Test strip"
        },
        "text": {
          "status": "generated",
          "div": "<div xmlns=\"http://www.w3.org/1999/xhtml\"><table class=\"hl7__eu__lab__report\"><tr><th>Test</th><th>30-May-2023</th><th>Reference&#xA0;Range</th><th>Unit</th></tr><tr><td>Leukocyte esterase [Presence] in Urine by Test strip</td></tr></table></div>"
        },
        "status": "final",
        "subject": {
          "reference": "urn:uuid:90a3532f-6fa7-4c3a-a0dc-a39deb18dc16",
          "display": "Meaghan Neary"
        },
        "effectiveDateTime": "2023-05-29T22:11:04Z",
        "specimen": {
          "reference": "urn:uuid:e12186a0-fc8a-46fa-95d5-bd4957735f56"
        }
      }
    },
    {
      "fullUrl": "urn:uuid:9d163905-c1bc-4240-8ca1-6988af4e5829",
      "resource": {
        "resourceType": "Observation",
        "id": "9d163905-c1bc-4240-8ca1-6988af4e5829",
        "meta": {
          "profile": [
            "http://hl7.eu/fhir/laboratory/StructureDefinition/Observation-resultslab-eu-lab"
          ]
        },
        "performer": [
          {
            "display": "The Central European Lab"
          }
        ],
        "category": [
          {
            "coding": [
              {
                "system": "http://terminology.hl7.org/CodeSystem/observation-category",
                "code": "laboratory"
              }
            ]
          }
        ],
        "code": {
          "coding": [
            {
              "code": "4548-4",
              "system": "http://loinc.org",
              "display": "Hemoglobin A1c/Hemoglobin.total in Blood"
            }
          ],
          "text": "Hemoglobin A1c/Hemoglobin.total in Blood"
        },
        "valueQuantity": {
          "system": "http://unitsofmeasure.org",
          "value": 3.1,
          "unit": "%",
          "code": "%"
        },
        "referenceRange": [
          {
            "low": {
              "value": 4,
              "code": "%",
              "system": "http://unitsofmeasure.org"
            }
          },
          {
            "high": {
              "value": 6.4,
              "code": "%",
              "system": "http://unitsofmeasure.org"
            }
          }
        ],
        "interpretation": [
          {
            "coding": [
              {
                "code": "L",
                "system": "http://terminology.hl7.org/CodeSystem/v3-ObservationInterpretation",
                "display": "Low"
              }
            ]
          }
        ],
        "text": {
          "status": "generated",
          "div": "<div xmlns=\"http://www.w3.org/1999/xhtml\"><table class=\"hl7__eu__lab__report\"><tr><th>Test</th><th>30-May-2023</th><th>Reference&#xA0;Range</th><th>Unit</th></tr><tr><td>Hemoglobin A1c/Hemoglobin.total in Blood</td><td>3.1</td><td>4 - 6.4</td><td>L</td><td>%</td></tr></table></div>"
        },
        "status": "final",
        "subject": {
          "reference": "urn:uuid:90a3532f-6fa7-4c3a-a0dc-a39deb18dc16",
          "display": "Meaghan Neary"
        },
        "effectiveDateTime": "2023-05-29T22:11:04Z",
        "specimen": {
          "reference": "urn:uuid:5c412267-6866-4609-b21e-be18ad0b9c82"
        }
      }
    },
    {
      "fullUrl": "urn:uuid:c4065f17-fccc-46c7-9244-6b47a9e3038a",
      "resource": {
        "resourceType": "Observation",
        "id": "c4065f17-fccc-46c7-9244-6b47a9e3038a",
        "meta": {
          "profile": [
            "http://hl7.eu/fhir/laboratory/StructureDefinition/Observation-resultslab-eu-lab"
          ]
        },
        "performer": [
          {
            "display": "The Central European Lab"
          }
        ],
        "category": [
          {
            "coding": [
              {
                "system": "http://terminology.hl7.org/CodeSystem/observation-category",
                "code": "laboratory"
              }
            ]
          }
        ],
        "code": {
          "coding": [
            {
              "code": "2339-0",
              "system": "http://loinc.org",
              "display": "Glucose [Mass/volume] in Blood"
            }
          ],
          "text": "Glucose [Mass/volume] in Blood"
        },
        "valueQuantity": {
          "system": "http://unitsofmeasure.org",
          "value": 75.8,
          "unit": "mg/dL",
          "code": "mg/dL"
        },
        "referenceRange": [
          {
            "low": {
              "value": 70,
              "code": "mg/dL",
              "system": "http://unitsofmeasure.org"
            }
          },
          {
            "high": {
              "value": 100,
              "code": "mg/dL",
              "system": "http://unitsofmeasure.org"
            }
          }
        ],
        "text": {
          "status": "generated",
          "div": "<div xmlns=\"http://www.w3.org/1999/xhtml\"><table class=\"hl7__eu__lab__report\"><tr><th>Test</th><th>30-May-2023</th><th>Reference&#xA0;Range</th><th>Unit</th></tr><tr><td>Glucose [Mass/volume] in Blood</td><td>75.8</td><td>70 - 100</td><td></td><td>mg/dL</td></tr></table></div>"
        },
        "status": "final",
        "subject": {
          "reference": "urn:uuid:90a3532f-6fa7-4c3a-a0dc-a39deb18dc16",
          "display": "Meaghan Neary"
        },
        "effectiveDateTime": "2023-05-29T22:11:04Z",
        "specimen": {
          "reference": "urn:uuid:5c412267-6866-4609-b21e-be18ad0b9c82"
        }
      }
    },
    {
      "fullUrl": "urn:uuid:94a8a6a1-07d5-4d31-8fe8-d767e73ccb26",
      "resource": {
        "resourceType": "Observation",
        "id": "94a8a6a1-07d5-4d31-8fe8-d767e73ccb26",
        "meta": {
          "profile": [
            "http://hl7.eu/fhir/laboratory/StructureDefinition/Observation-resultslab-eu-lab"
          ]
        },
        "performer": [
          {
            "display": "The Central European Lab"
          }
        ],
        "category": [
          {
            "coding": [
              {
                "system": "http://terminology.hl7.org/CodeSystem/observation-category",
                "code": "laboratory"
              }
            ]
          }
        ],
        "code": {
          "coding": [
            {
              "code": "6299-2",
              "system": "http://loinc.org",
              "display": "Urea nitrogen [Mass/volume] in Blood"
            }
          ],
          "text": "Urea nitrogen [Mass/volume] in Blood"
        },
        "valueQuantity": {
          "system": "http://unitsofmeasure.org",
          "value": 11.6,
          "unit": "mg/dL",
          "code": "mg/dL"
        },
        "referenceRange": [
          {
            "low": {
              "value": 7,
              "code": "mg/dL",
              "system": "http://unitsofmeasure.org"
            }
          },
          {
            "high": {
              "value": 43,
              "code": "mg/dL",
              "system": "http://unitsofmeasure.org"
            }
          }
        ],
        "text": {
          "status": "generated",
          "div": "<div xmlns=\"http://www.w3.org/1999/xhtml\"><table class=\"hl7__eu__lab__report\"><tr><th>Test</th><th>30-May-2023</th><th>Reference&#xA0;Range</th><th>Unit</th></tr><tr><td>Urea nitrogen [Mass/volume] in Blood</td><td>11.6</td><td>7 - 43</td><td></td><td>mg/dL</td></tr></table></div>"
        },
        "status": "final",
        "subject": {
          "reference": "urn:uuid:90a3532f-6fa7-4c3a-a0dc-a39deb18dc16",
          "display": "Meaghan Neary"
        },
        "effectiveDateTime": "2023-05-29T22:11:04Z",
        "specimen": {
          "reference": "urn:uuid:5c412267-6866-4609-b21e-be18ad0b9c82"
        }
      }
    },
    {
      "fullUrl": "urn:uuid:1e6c7c9a-0b00-4573-9dfc-c485ac52b3d4",
      "resource": {
        "resourceType": "Observation",
        "id": "1e6c7c9a-0b00-4573-9dfc-c485ac52b3d4",
        "meta": {
          "profile": [
            "http://hl7.eu/fhir/laboratory/StructureDefinition/Observation-resultslab-eu-lab"
          ]
        },
        "performer": [
          {
            "display": "The Central European Lab"
          }
        ],
        "category": [
          {
            "coding": [
              {
                "system": "http://terminology.hl7.org/CodeSystem/observation-category",
                "code": "laboratory"
              }
            ]
          }
        ],
        "code": {
          "coding": [
            {
              "code": "38483-4",
              "system": "http://loinc.org",
              "display": "Creatinine [Mass/volume] in Blood"
            }
          ],
          "text": "Creatinine [Mass/volume] in Blood"
        },
        "valueQuantity": {
          "system": "http://unitsofmeasure.org",
          "value": 4.3,
          "unit": "mg/dL",
          "code": "mg/dL"
        },
        "referenceRange": [
          {
            "low": {
              "value": 0.6,
              "code": "mg/dL",
              "system": "http://unitsofmeasure.org"
            }
          },
          {
            "high": {
              "value": 1.1,
              "code": "mg/dL",
              "system": "http://unitsofmeasure.org"
            }
          }
        ],
        "interpretation": [
          {
            "coding": [
              {
                "code": "H",
                "system": "http://terminology.hl7.org/CodeSystem/v3-ObservationInterpretation",
                "display": "High"
              }
            ]
          }
        ],
        "text": {
          "status": "generated",
          "div": "<div xmlns=\"http://www.w3.org/1999/xhtml\"><table class=\"hl7__eu__lab__report\"><tr><th>Test</th><th>30-May-2023</th><th>Reference&#xA0;Range</th><th>Unit</th></tr><tr><td>Creatinine [Mass/volume] in Blood</td><td>4.3</td><td>0.6 - 1.1</td><td>H</td><td>mg/dL</td></tr></table></div>"
        },
        "status": "final",
        "subject": {
          "reference": "urn:uuid:90a3532f-6fa7-4c3a-a0dc-a39deb18dc16",
          "display": "Meaghan Neary"
        },
        "effectiveDateTime": "2023-05-29T22:11:04Z",
        "specimen": {
          "reference": "urn:uuid:5c412267-6866-4609-b21e-be18ad0b9c82"
        }
      }
    },
    {
      "fullUrl": "urn:uuid:7e15d3b7-888f-4f86-a631-5dff03fe92a1",
      "resource": {
        "resourceType": "Observation",
        "id": "7e15d3b7-888f-4f86-a631-5dff03fe92a1",
        "meta": {
          "profile": [
            "http://hl7.eu/fhir/laboratory/StructureDefinition/Observation-resultslab-eu-lab"
          ]
        },
        "performer": [
          {
            "display": "The Central European Lab"
          }
        ],
        "category": [
          {
            "coding": [
              {
                "system": "http://terminology.hl7.org/CodeSystem/observation-category",
                "code": "laboratory"
              }
            ]
          }
        ],
        "code": {
          "coding": [
            {
              "code": "49765-1",
              "system": "http://loinc.org",
              "display": "Calcium [Mass/volume] in Blood"
            }
          ],
          "text": "Calcium [Mass/volume] in Blood"
        },
        "valueQuantity": {
          "system": "http://unitsofmeasure.org",
          "value": 9.9,
          "unit": "mg/dL",
          "code": "mg/dL"
        },
        "referenceRange": [
          {
            "low": {
              "value": 8.5,
              "code": "mg/dL",
              "system": "http://unitsofmeasure.org"
            }
          },
          {
            "high": {
              "value": 10.5,
              "code": "mg/dL",
              "system": "http://unitsofmeasure.org"
            }
          }
        ],
        "text": {
          "status": "generated",
          "div": "<div xmlns=\"http://www.w3.org/1999/xhtml\"><table class=\"hl7__eu__lab__report\"><tr><th>Test</th><th>30-May-2023</th><th>Reference&#xA0;Range</th><th>Unit</th></tr><tr><td>Calcium [Mass/volume] in Blood</td><td>9.9</td><td>8.5 - 10.5</td><td></td><td>mg/dL</td></tr></table></div>"
        },
        "status": "final",
        "subject": {
          "reference": "urn:uuid:90a3532f-6fa7-4c3a-a0dc-a39deb18dc16",
          "display": "Meaghan Neary"
        },
        "effectiveDateTime": "2023-05-29T22:11:04Z",
        "specimen": {
          "reference": "urn:uuid:5c412267-6866-4609-b21e-be18ad0b9c82"
        }
      }
    },
    {
      "fullUrl": "urn:uuid:b776ada2-69fd-4ff2-bcf2-eb95c7f99661",
      "resource": {
        "resourceType": "Observation",
        "id": "b776ada2-69fd-4ff2-bcf2-eb95c7f99661",
        "meta": {
          "profile": [
            "http://hl7.eu/fhir/laboratory/StructureDefinition/Observation-resultslab-eu-lab"
          ]
        },
        "performer": [
          {
            "display": "The Central European Lab"
          }
        ],
        "category": [
          {
            "coding": [
              {
                "system": "http://terminology.hl7.org/CodeSystem/observation-category",
                "code": "laboratory"
              }
            ]
          }
        ],
        "code": {
          "coding": [
            {
              "code": "2947-0",
              "system": "http://loinc.org",
              "display": "Sodium [Moles/volume] in Blood"
            }
          ],
          "text": "Sodium [Moles/volume] in Blood"
        },
        "valueQuantity": {
          "system": "http://unitsofmeasure.org",
          "value": 143,
          "unit": "mmol/L",
          "code": "mmol/L"
        },
        "referenceRange": [
          {
            "low": {
              "value": 135,
              "code": "mmol/L",
              "system": "http://unitsofmeasure.org"
            }
          },
          {
            "high": {
              "value": 145,
              "code": "mmol/L",
              "system": "http://unitsofmeasure.org"
            }
          }
        ],
        "text": {
          "status": "generated",
          "div": "<div xmlns=\"http://www.w3.org/1999/xhtml\"><table class=\"hl7__eu__lab__report\"><tr><th>Test</th><th>30-May-2023</th><th>Reference&#xA0;Range</th><th>Unit</th></tr><tr><td>Sodium [Moles/volume] in Blood</td><td>143.0</td><td>135 - 145</td><td></td><td>mmol/L</td></tr></table></div>"
        },
        "status": "final",
        "subject": {
          "reference": "urn:uuid:90a3532f-6fa7-4c3a-a0dc-a39deb18dc16",
          "display": "Meaghan Neary"
        },
        "effectiveDateTime": "2023-05-29T22:11:04Z",
        "specimen": {
          "reference": "urn:uuid:5c412267-6866-4609-b21e-be18ad0b9c82"
        }
      }
    },
    {
      "fullUrl": "urn:uuid:fa4efe87-93dc-4b2e-8928-47d7529f1336",
      "resource": {
        "resourceType": "Observation",
        "id": "fa4efe87-93dc-4b2e-8928-47d7529f1336",
        "meta": {
          "profile": [
            "http://hl7.eu/fhir/laboratory/StructureDefinition/Observation-resultslab-eu-lab"
          ]
        },
        "performer": [
          {
            "display": "The Central European Lab"
          }
        ],
        "category": [
          {
            "coding": [
              {
                "system": "http://terminology.hl7.org/CodeSystem/observation-category",
                "code": "laboratory"
              }
            ]
          }
        ],
        "code": {
          "coding": [
            {
              "code": "6298-4",
              "system": "http://loinc.org",
              "display": "Potassium [Moles/volume] in Blood"
            }
          ],
          "text": "Potassium [Moles/volume] in Blood"
        },
        "valueQuantity": {
          "system": "http://unitsofmeasure.org",
          "value": 3.8,
          "unit": "mmol/L",
          "code": "mmol/L"
        },
        "referenceRange": [
          {
            "low": {
              "value": 3.5,
              "code": "mmol/L",
              "system": "http://unitsofmeasure.org"
            }
          },
          {
            "high": {
              "value": 5.1,
              "code": "mmol/L",
              "system": "http://unitsofmeasure.org"
            }
          }
        ],
        "text": {
          "status": "generated",
          "div": "<div xmlns=\"http://www.w3.org/1999/xhtml\"><table class=\"hl7__eu__lab__report\"><tr><th>Test</th><th>30-May-2023</th><th>Reference&#xA0;Range</th><th>Unit</th></tr><tr><td>Potassium [Moles/volume] in Blood</td><td>3.8</td><td>3.5 - 5.1</td><td></td><td>mmol/L</td></tr></table></div>"
        },
        "status": "final",
        "subject": {
          "reference": "urn:uuid:90a3532f-6fa7-4c3a-a0dc-a39deb18dc16",
          "display": "Meaghan Neary"
        },
        "effectiveDateTime": "2023-05-29T22:11:04Z",
        "specimen": {
          "reference": "urn:uuid:5c412267-6866-4609-b21e-be18ad0b9c82"
        }
      }
    },
    {
      "fullUrl": "urn:uuid:5b366619-2444-4efd-835a-6f853758bcca",
      "resource": {
        "resourceType": "Observation",
        "id": "5b366619-2444-4efd-835a-6f853758bcca",
        "meta": {
          "profile": [
            "http://hl7.eu/fhir/laboratory/StructureDefinition/Observation-resultslab-eu-lab"
          ]
        },
        "performer": [
          {
            "display": "The Central European Lab"
          }
        ],
        "category": [
          {
            "coding": [
              {
                "system": "http://terminology.hl7.org/CodeSystem/observation-category",
                "code": "laboratory"
              }
            ]
          }
        ],
        "code": {
          "coding": [
            {
              "code": "2069-3",
              "system": "http://loinc.org",
              "display": "Chloride [Moles/volume] in Blood"
            }
          ],
          "text": "Chloride [Moles/volume] in Blood"
        },
        "valueQuantity": {
          "system": "http://unitsofmeasure.org",
          "value": 108.7,
          "unit": "mmol/L",
          "code": "mmol/L"
        },
        "referenceRange": [
          {
            "low": {
              "value": 98,
              "code": "mmol/L",
              "system": "http://unitsofmeasure.org"
            }
          },
          {
            "high": {
              "value": 108,
              "code": "mmol/L",
              "system": "http://unitsofmeasure.org"
            }
          }
        ],
        "interpretation": [
          {
            "coding": [
              {
                "code": "H",
                "system": "http://terminology.hl7.org/CodeSystem/v3-ObservationInterpretation",
                "display": "High"
              }
            ]
          }
        ],
        "text": {
          "status": "generated",
          "div": "<div xmlns=\"http://www.w3.org/1999/xhtml\"><table class=\"hl7__eu__lab__report\"><tr><th>Test</th><th>30-May-2023</th><th>Reference&#xA0;Range</th><th>Unit</th></tr><tr><td>Chloride [Moles/volume] in Blood</td><td>108.7</td><td>98 - 108</td><td>H</td><td>mmol/L</td></tr></table></div>"
        },
        "status": "final",
        "subject": {
          "reference": "urn:uuid:90a3532f-6fa7-4c3a-a0dc-a39deb18dc16",
          "display": "Meaghan Neary"
        },
        "effectiveDateTime": "2023-05-29T22:11:04Z",
        "specimen": {
          "reference": "urn:uuid:5c412267-6866-4609-b21e-be18ad0b9c82"
        }
      }
    },
    {
      "fullUrl": "urn:uuid:92a31ec6-5a77-4744-9e44-80b01b831f4f",
      "resource": {
        "resourceType": "Observation",
        "id": "92a31ec6-5a77-4744-9e44-80b01b831f4f",
        "meta": {
          "profile": [
            "http://hl7.eu/fhir/laboratory/StructureDefinition/Observation-resultslab-eu-lab"
          ]
        },
        "performer": [
          {
            "display": "The Central European Lab"
          }
        ],
        "category": [
          {
            "coding": [
              {
                "system": "http://terminology.hl7.org/CodeSystem/observation-category",
                "code": "laboratory"
              }
            ]
          }
        ],
        "code": {
          "coding": [
            {
              "code": "20565-8",
              "system": "http://loinc.org",
              "display": "Carbon dioxide, total [Moles/volume] in Blood"
            }
          ],
          "text": "Carbon dioxide, total [Moles/volume] in Blood"
        },
        "valueQuantity": {
          "system": "http://unitsofmeasure.org",
          "value": 25,
          "unit": "mmol/L",
          "code": "mmol/L"
        },
        "referenceRange": [
          {
            "low": {
              "value": 22,
              "code": "mmol/L",
              "system": "http://unitsofmeasure.org"
            }
          },
          {
            "high": {
              "value": 29,
              "code": "mmol/L",
              "system": "http://unitsofmeasure.org"
            }
          }
        ],
        "text": {
          "status": "generated",
          "div": "<div xmlns=\"http://www.w3.org/1999/xhtml\"><table class=\"hl7__eu__lab__report\"><tr><th>Test</th><th>30-May-2023</th><th>Reference&#xA0;Range</th><th>Unit</th></tr><tr><td>Carbon dioxide, total [Moles/volume] in Blood</td><td>25.0</td><td>22 - 29</td><td></td><td>mmol/L</td></tr></table></div>"
        },
        "status": "final",
        "subject": {
          "reference": "urn:uuid:90a3532f-6fa7-4c3a-a0dc-a39deb18dc16",
          "display": "Meaghan Neary"
        },
        "effectiveDateTime": "2023-05-29T22:11:04Z",
        "specimen": {
          "reference": "urn:uuid:5c412267-6866-4609-b21e-be18ad0b9c82"
        }
      }
    },
    {
      "fullUrl": "urn:uuid:d5f28739-085b-4685-90c1-0112791c4fb0",
      "resource": {
        "resourceType": "Device",
        "id": "d5f28739-085b-4685-90c1-0112791c4fb0",
        "deviceName": [
          {
            "name": "SYNDERAI Synthetic Generator",
            "type": "manufacturer-name"
          }
        ],
        "version": [
          {
            "value": "5.0"
          }
        ],
        "text": {
          "status": "generated",
          "div": "<div xmlns=\"http://www.w3.org/1999/xhtml\">SYNDERAI Synthetic Generator v5.0</div>"
        },
        "status": "active\"",
        "distinctIdentifier": "synderai-generator-50",
        "manufacturer": "SYNDERAI Project"
      }
    },
    {
      "fullUrl": "urn:uuid:6ab817cb-d092-40f7-9203-e5d6f70cf869",
      "resource": {
        "resourceType": "Provenance",
        "id": "6ab817cb-d092-40f7-9203-e5d6f70cf869",
        "target": [
          {
            "reference": "Patient/90a3532f-6fa7-4c3a-a0dc-a39deb18dc16"
          },
          {
            "reference": "Bundle/21dfd3e3-4fa8-48ea-a12e-3e91566a5301"
          },
          {
            "reference": "Composition/9563f8af-b521-42ae-a297-141c1808be4e"
          },
          {
            "reference": "PractitionerRole/308bde5e-65db-4825-a6ba-e3b87d8c19d0"
          },
          {
            "reference": "Practitioner/7066079f-64da-47ba-a525-61e12f66fcc5"
          },
          {
            "reference": "PractitionerRole/0cbbaa1c-99ec-41c2-9198-6aa734db02e4"
          },
          {
            "reference": "Organization/a68c18f5-5bb0-42b9-a663-5da552811fce"
          }
        ],
        "activity": {
          "text": "Synthetic Example Data Generation"
        },
        "policy": [
          "https://synderai.net/synderai-synthetic-data-policy"
        ],
        "agent": [
          {
            "type": {
              "text": "author"
            },
            "who": {
              "reference": "Device/d5f28739-085b-4685-90c1-0112791c4fb0"
            }
          }
        ],
        "reason": [
          {
            "text": "Interoperability Testing and Training (non-clinical use)"
          }
        ],
        "text": {
          "status": "generated",
          "div": "<div xmlns=\"http://www.w3.org/1999/xhtml\">Provenance for SYNDERAI Synthetic Example Data Resource</div>"
        },
        "recorded": "2023-05-30T00:11:04Z"
      }
    },
    {
      "fullUrl": "urn:uuid:308bde5e-65db-4825-a6ba-e3b87d8c19d0",
      "resource": {
        "resourceType": "PractitionerRole",
        "id": "308bde5e-65db-4825-a6ba-e3b87d8c19d0",
        "meta": {
          "profile": [
            "http://hl7.eu/fhir/base/StructureDefinition/practitionerRole-eu"
          ]
        },
        "text": {
          "status": "generated",
          "div": "<div xmlns=\"http://www.w3.org/1999/xhtml\">Laboratory Role Id: 308bde5e-65db-4825-a6ba-e3b87d8c19d0</div>"
        },
        "practitioner": {
          "reference": "urn:uuid:7066079f-64da-47ba-a525-61e12f66fcc5"
        }
      }
    },
    {
      "fullUrl": "urn:uuid:7066079f-64da-47ba-a525-61e12f66fcc5",
      "resource": {
        "resourceType": "Practitioner",
        "id": "7066079f-64da-47ba-a525-61e12f66fcc5",
        "meta": {
          "profile": [
            "http://hl7.eu/fhir/base/StructureDefinition/practitioner-eu"
          ]
        },
        "identifier": [
          {
            "assigner": {
              "display": "HL7 Europe"
            },
            "system": "urn:oid:2.16.840.1.113883.2.51.999",
            "value": "79ace15a-da16-47a1-b51f-6b43680c8f1d"
          }
        ],
        "name": [
          {
            "prefix": [
              "dr"
            ],
            "given": [
              "Ex"
            ],
            "family": "Ample"
          }
        ],
        "address": [
          {
            "line": [
              "Laboratoire Central Européenne",
              "Boulevard du Jardin Botanique 32"
            ],
            "postalCode": "1000",
            "city": "Brussels",
            "country": "Belgium"
          }
        ],
        "text": {
          "status": "generated",
          "div": "<div xmlns=\"http://www.w3.org/1999/xhtml\">Laboratory: Laboratoire Central Européenne, 1000 Brussels, Belgium</div>"
        }
      }
    }
  ],
  "type": "document",
  "timestamp": "2023-05-30T00:11:04Z"
}
