{
  "resourceType": "Bundle",
  "id": "6e5d11a5-2561-46ee-a130-cd53e10f015b",
  "meta": {
    "profile": [
      "http://hl7.eu/fhir/laboratory/StructureDefinition/Bundle-eu-lab"
    ]
  },
  "identifier": {
    "assigner": {
      "display": "HL7 Europe"
    },
    "system": "urn:oid:2.16.840.1.113883.2.51.999",
    "value": "197ed12b-9b48-41cd-be71-1b6a402a2995"
  },
  "entry": [
    {
      "fullUrl": "urn:uuid:23ebc97a-aa8e-4217-9902-ee268b4e30f9",
      "resource": {
        "resourceType": "Composition",
        "id": "23ebc97a-aa8e-4217-9902-ee268b4e30f9",
        "meta": {
          "profile": [
            "http://hl7.eu/fhir/laboratory/StructureDefinition/Composition-eu-lab"
          ]
        },
        "identifier": {
          "assigner": {
            "display": "HL7 Europe"
          },
          "system": "urn:oid:2.16.840.1.113883.2.51.999",
          "value": "9591870f-ae2c-46ec-8a45-8ddb33095615"
        },
        "author": [
          {
            "reference": "urn:uuid:37d97991-dd30-40a4-a580-177d4dae19f2"
          }
        ],
        "category": [
          {
            "coding": [
              {
                "code": "26436-6",
                "system": "http://loinc.org",
                "display": "Laboratory studies (set)"
              }
            ]
          }
        ],
        "type": {
          "coding": [
            {
              "code": "11502-2",
              "system": "http://loinc.org",
              "display": "Laboratory report"
            }
          ],
          "text": "Laboratory Report"
        },
        "section": [
          {
            "code": {
              "coding": [
                {
                  "code": "26436-6",
                  "system": "http://loinc.org",
                  "display": "Laboratory studies (set)"
                }
              ],
              "text": "Laboratory studies"
            },
            "section": [
              {
                "code": {
                  "coding": [
                    {
                      "code": "$18723-7",
                      "system": "http://loinc.org",
                      "display": "Hematology studies (set)"
                    }
                  ],
                  "text": "Hematology"
                },
                "entry": [
                  {
                    "reference": "urn:uuid:c313160c-46fa-45f3-aa2f-e6631f77e14e"
                  },
                  {
                    "reference": "urn:uuid:c7d285b2-0598-419f-8adf-72841b61de50"
                  },
                  {
                    "reference": "urn:uuid:8047cc18-d41a-49e4-99f3-bb355afb3353"
                  },
                  {
                    "reference": "urn:uuid:bb0ddb11-8676-4293-8520-e8dd8b893286"
                  },
                  {
                    "reference": "urn:uuid:77b51d4d-35ac-4e80-aec0-38eace60ee60"
                  },
                  {
                    "reference": "urn:uuid:654a8559-994f-4fa3-a423-670750c6095d"
                  },
                  {
                    "reference": "urn:uuid:691196c0-992a-4fd7-b9b8-b4781b9f70af"
                  },
                  {
                    "reference": "urn:uuid:e8af19bb-402e-4ed2-8525-91a692af3f6f"
                  },
                  {
                    "reference": "urn:uuid:e8431232-71bd-4ab8-8ebd-287c8566bcc5"
                  },
                  {
                    "reference": "urn:uuid:542ff354-2048-4ee4-a445-17ba0206bd1b"
                  },
                  {
                    "reference": "urn:uuid:fdf7f6a5-45c7-42f1-a8b7-388a45f04163"
                  }
                ],
                "text": {
                  "status": "generated",
                  "div": "<div xmlns=\"http://www.w3.org/1999/xhtml\"><h3>Hematology</h3><table class=\"hl7__eu__lab__report\"><thead><tr><th>Test</th><th>29-NOV-2015</th><th>Reference&#xA0;Range</th><th>Unit</th></tr></thead><tbody><tr><td>Leukocytes [#/volume] in Blood by Automated count</td><td>7.2</td><td>3.5 - 10.5</td><td>10*3/uL</td></tr><tr><td>Erythrocytes [#/volume] in Blood by Automated count</td><td><strong>4.0 L</strong></td><td>4.5 - 6.2</td><td>10*6/uL</td></tr><tr><td>Hemoglobin [Mass/volume] in Blood</td><td><strong>12.5 L</strong></td><td>13.5 - 17.5</td><td>g/dL</td></tr><tr><td>Hematocrit [Volume Fraction] of Blood by Automated count</td><td><strong>36.7 L</strong></td><td>38 - 50</td><td>%</td></tr><tr><td>MCV [Entitic volume] by Automated count</td><td>93.7</td><td>82 - 98</td><td>fL</td></tr><tr><td>MCH [Entitic mass] by Automated count</td><td>29.8</td><td>27 - 33</td><td>pg</td></tr><tr><td>MCHC [Mass/volume] by Automated count</td><td>34.8</td><td>31 - 35</td><td>g/dL</td></tr><tr><td>Erythrocyte distribution width [Entitic volume] by Automated count</td><td>43.0</td><td>39 - 55</td><td>fL</td></tr><tr><td>Platelets [#/volume] in Blood by Automated count</td><td>155.7</td><td>150 - 379</td><td>10*3/uL</td></tr><tr><td>Platelet distribution width [Entitic volume] in Blood by Automated count</td><td>305.3</td><td>286 - 366</td><td>fL</td></tr><tr><td>Platelet mean volume [Entitic volume] in Blood by Automated count</td><td>10.7</td><td>7.2 - 13.8</td><td>fL</td></tr></tbody></table></div>"
                },
                "title": "Hematology"
              },
              {
                "code": {
                  "coding": [
                    {
                      "code": "$18719-5",
                      "system": "http://loinc.org",
                      "display": "Chemistry studies (set)"
                    }
                  ],
                  "text": "Chemistry"
                },
                "entry": [
                  {
                    "reference": "urn:uuid:973d6568-dff9-41f3-bab2-bfbb59ecc987"
                  },
                  {
                    "reference": "urn:uuid:e0d411a8-8427-4494-b35a-411de3222934"
                  },
                  {
                    "reference": "urn:uuid:6eafa05b-2f51-4b7a-bcd6-fbfeb0aef1b3"
                  },
                  {
                    "reference": "urn:uuid:581ca8f9-8610-411b-8b70-df8c851e5b4b"
                  }
                ],
                "text": {
                  "status": "generated",
                  "div": "<div xmlns=\"http://www.w3.org/1999/xhtml\"><h3>Chemistry</h3><table class=\"hl7__eu__lab__report\"><thead><tr><th>Test</th><th>29-NOV-2015</th><th>Reference&#xA0;Range</th><th>Unit</th></tr></thead><tbody><tr><td>Cholesterol [Mass/volume] in Serum or Plasma</td><td><strong>209.9 H</strong></td><td>0 - 200</td><td>mg/dL</td></tr><tr><td>Triglyceride [Mass/volume] in Serum or Plasma</td><td>133.5</td><td>0 - 150</td><td>mg/dL</td></tr><tr><td>Cholesterol in LDL [Mass/volume] in Serum or Plasma by Direct assay</td><td><strong>134.0 H</strong></td><td>0 - 130</td><td>mg/dL</td></tr><tr><td>Cholesterol in HDL [Mass/volume] in Serum or Plasma</td><td>49.2</td><td>40 - 60</td><td>mg/dL</td></tr></tbody></table></div>"
                },
                "title": "Chemistry"
              }
            ],
            "title": "Laboratory Report"
          },
          {
            "text": {
              "status": "generated",
              "div": "<div xmlns=\"http://www.w3.org/1999/xhtml\"><h3>Annotation</h3><table class=\"hl7__eu__lab__report\"><tr><th>Conclusion and Recommendations based on this report and previous findings known to us</th></tr><tr><td>The patient shows mildly elevated total and LDL cholesterol, suggesting increased cardiovascular risk. There is evidence of mild normocytic, normochromic anemia (low RBC, hemoglobin, and hematocrit) with normal indices, which may warrant further evaluation. Other parameters, including leukocytes and platelets, are within normal limits. Clinical correlation and follow-up are recommended.</td></tr></table></div>"
            },
            "code": {
              "coding": [
                {
                  "system": "http://loinc.org",
                  "code": "48767-8",
                  "display": "Annotation comment"
                }
              ]
            },
            "title": "Annotation comment"
          }
        ],
        "status": "final",
        "subject": {
          "reference": "urn:uuid:3f56fb1f-e2e2-455d-9571-52792b16402f",
          "display": "Russell Khan"
        },
        "date": "2015-11-29T14:31:07Z",
        "title": "Laboratory Report",
        "confidentiality": "N"
      }
    },
    {
      "fullUrl": "urn:uuid:1b922508-0166-4326-9851-d7c4b12d3bb1",
      "resource": {
        "resourceType": "DiagnosticReport",
        "id": "1b922508-0166-4326-9851-d7c4b12d3bb1",
        "meta": {
          "profile": [
            "http://hl7.eu/fhir/laboratory/StructureDefinition/DiagnosticReport-eu-lab"
          ]
        },
        "identifier": [
          {
            "assigner": {
              "display": "HL7 Europe"
            },
            "system": "urn:oid:2.16.840.1.113883.2.51.999",
            "value": "f959ea72-8fe4-487e-897b-48954d1aebe0"
          }
        ],
        "extension": [
          {
            "url": "http://hl7.org/fhir/5.0/StructureDefinition/extension-DiagnosticReport.composition",
            "valueReference": {
              "reference": "urn:uuid:9591870f-ae2c-46ec-8a45-8ddb33095615"
            }
          }
        ],
        "category": [
          {
            "coding": [
              {
                "code": "26436-6",
                "system": "http://loinc.org",
                "display": "Laboratory studies (set)"
              }
            ]
          }
        ],
        "specimen": [
          {
            "reference": "urn:uuid:5a8aae1a-3e26-4835-b851-926db41d053c"
          },
          {
            "reference": "urn:uuid:e5cc8762-b09e-4130-bc37-e339a0a343c1"
          },
          {
            "reference": "urn:uuid:e5cc8762-b09e-4130-bc37-e339a0a343c1"
          }
        ],
        "result": [
          {
            "reference": "urn:uuid:973d6568-dff9-41f3-bab2-bfbb59ecc987"
          },
          {
            "reference": "urn:uuid:e0d411a8-8427-4494-b35a-411de3222934"
          },
          {
            "reference": "urn:uuid:6eafa05b-2f51-4b7a-bcd6-fbfeb0aef1b3"
          },
          {
            "reference": "urn:uuid:581ca8f9-8610-411b-8b70-df8c851e5b4b"
          },
          {
            "reference": "urn:uuid:c313160c-46fa-45f3-aa2f-e6631f77e14e"
          },
          {
            "reference": "urn:uuid:c7d285b2-0598-419f-8adf-72841b61de50"
          },
          {
            "reference": "urn:uuid:8047cc18-d41a-49e4-99f3-bb355afb3353"
          },
          {
            "reference": "urn:uuid:bb0ddb11-8676-4293-8520-e8dd8b893286"
          },
          {
            "reference": "urn:uuid:77b51d4d-35ac-4e80-aec0-38eace60ee60"
          },
          {
            "reference": "urn:uuid:654a8559-994f-4fa3-a423-670750c6095d"
          },
          {
            "reference": "urn:uuid:691196c0-992a-4fd7-b9b8-b4781b9f70af"
          },
          {
            "reference": "urn:uuid:e8af19bb-402e-4ed2-8525-91a692af3f6f"
          },
          {
            "reference": "urn:uuid:e8431232-71bd-4ab8-8ebd-287c8566bcc5"
          },
          {
            "reference": "urn:uuid:542ff354-2048-4ee4-a445-17ba0206bd1b"
          },
          {
            "reference": "urn:uuid:fdf7f6a5-45c7-42f1-a8b7-388a45f04163"
          }
        ],
        "status": "registered",
        "code": {
          "coding": [
            {
              "code": "11502-2",
              "system": "http://loinc.org",
              "display": "Laboratory report"
            }
          ]
        },
        "subject": {
          "reference": "urn:uuid:3f56fb1f-e2e2-455d-9571-52792b16402f",
          "display": "Russell Khan"
        }
      }
    },
    {
      "fullUrl": "urn:uuid:3f56fb1f-e2e2-455d-9571-52792b16402f",
      "resource": {
        "resourceType": "Patient",
        "id": "3f56fb1f-e2e2-455d-9571-52792b16402f",
        "meta": {
          "security": [
            {
              "system": "http://terminology.hl7.org/CodeSystem/v3-ActReason",
              "code": "HTEST"
            },
            {
              "system": "http://terminology.hl7.org/CodeSystem/v3-ActReason",
              "code": "TRAIN"
            }
          ],
          "tag": [
            {
              "system": "https://synderai.net/fhir/CodeSystem/tags",
              "code": "synthetic",
              "display": "SYNDERAI Synthetic data"
            }
          ],
          "profile": [
            "http://hl7.eu/fhir/base/StructureDefinition/patient-eu-core"
          ]
        },
        "identifier": [
          {
            "type": {
              "coding": [
                {
                  "code": "PT",
                  "system": "http://terminology.hl7.org/CodeSystem/v2-0203"
                }
              ]
            },
            "system": "http://ec.europa.eu/identifier/eci",
            "value": "7982-255119-2"
          },
          {
            "type": {
              "coding": [
                {
                  "code": "MR",
                  "system": "http://terminology.hl7.org/CodeSystem/v2-0203"
                }
              ]
            },
            "system": "http://local.setting.eu/identifier",
            "value": "7070b0e2-4aa2-c981-d552-92289a13285c"
          }
        ],
        "name": [
          {
            "family": "Khan"
          },
          {
            "given": [
              "Russell"
            ]
          },
          {
            "text": "Russell Khan"
          }
        ],
        "address": [
          {
            "line": [
              "1 Holly well"
            ],
            "use": "home",
            "type": "physical",
            "postalCode": "B9",
            "city": "Allantown",
            "country": "United Kingdom"
          }
        ],
        "telecom": [
          {
            "system": "phone",
            "value": "0115 4960345"
          }
        ],
        "extension": [
          {
            "url": "http://hl7.org/fhir/StructureDefinition/patient-nationality",
            "valueCodeableConcept": {
              "coding": [
                {
                  "code": "GB",
                  "system": "http://hl7.org/fhir/ValueSet/country"
                }
              ]
            }
          }
        ],
        "text": {
          "status": "generated",
          "div": "<div xmlns=\"http://www.w3.org/1999/xhtml\"><table class=\"hl7__ips\"><tr><td>Russell Khan</td><td>male</td><td>29-Aug-1980</td></tr></table></div>"
        },
        "gender": "male",
        "birthDate": "1980-08-29"
      }
    },
    {
      "fullUrl": "urn:uuid:284e87dd-ffc8-420f-a9db-d48faa27b371",
      "resource": {
        "resourceType": "ServiceRequest",
        "id": "284e87dd-ffc8-420f-a9db-d48faa27b371",
        "meta": {
          "profile": [
            "http://hl7.eu/fhir/laboratory/StructureDefinition/ServiceRequest-eu-lab"
          ]
        },
        "identifier": [
          {
            "system": "http://example.org",
            "value": "55406922-5937-4a19-810c-82e44b7f1013"
          }
        ],
        "specimen": [
          {
            "reference": "urn:uuid:5a8aae1a-3e26-4835-b851-926db41d053c"
          },
          {
            "reference": "urn:uuid:e5cc8762-b09e-4130-bc37-e339a0a343c1"
          }
        ],
        "reasonCode": [
          {
            "coding": [
              {
                "code": "59621000",
                "system": "http://snomed.info/sct",
                "display": "Essential hypertension"
              }
            ]
          }
        ],
        "status": "active",
        "intent": "order",
        "code": {
          "coding": [
            {
              "code": "108252007",
              "system": "http://snomed.info/sct",
              "display": "Laboratory procedure"
            }
          ]
        },
        "subject": {
          "reference": "urn:uuid:3f56fb1f-e2e2-455d-9571-52792b16402f",
          "display": "Russell Khan"
        },
        "requester": {
          "reference": "urn:uuid:9408f6bc-32e0-44d3-819f-fd28225330c1"
        }
      }
    },
    {
      "fullUrl": "urn:uuid:9408f6bc-32e0-44d3-819f-fd28225330c1",
      "resource": {
        "resourceType": "PractitionerRole",
        "id": "9408f6bc-32e0-44d3-819f-fd28225330c1",
        "meta": {
          "profile": [
            "http://hl7.eu/fhir/base/StructureDefinition/practitionerRole-eu"
          ]
        },
        "text": {
          "status": "generated",
          "div": "<div xmlns=\"http://www.w3.org/1999/xhtml\">Provider Role Id: 9408f6bc-32e0-44d3-819f-fd28225330c1</div>"
        },
        "organization": {
          "reference": "urn:uuid:5e353807-6e04-427f-aa00-980374a99949"
        }
      }
    },
    {
      "fullUrl": "urn:uuid:5e353807-6e04-427f-aa00-980374a99949",
      "resource": {
        "resourceType": "Organization",
        "id": "5e353807-6e04-427f-aa00-980374a99949",
        "meta": {
          "profile": [
            "http://hl7.eu/fhir/base/StructureDefinition/organization-eu"
          ]
        },
        "identifier": [
          {
            "assigner": {
              "display": "HL7 Europe"
            },
            "system": "urn:oid:2.16.840.1.113883.2.51.999",
            "value": "11b4b479-b527-47fe-8661-24676d4dc0ee"
          }
        ],
        "address": [
          {
            "city": "Birmingham",
            "postalCode": "B4 6",
            "country": "United Kingdom"
          }
        ],
        "text": {
          "status": "generated",
          "div": "<div xmlns=\"http://www.w3.org/1999/xhtml\">Provider Organization: Birmingham Children&#039;s Hospital</div>"
        },
        "name": "Birmingham Children&#039;s Hospital"
      }
    },
    {
      "fullUrl": "urn:uuid:5a8aae1a-3e26-4835-b851-926db41d053c",
      "resource": {
        "resourceType": "Specimen",
        "id": "5a8aae1a-3e26-4835-b851-926db41d053c",
        "meta": {
          "profile": [
            "http://hl7.eu/fhir/laboratory/StructureDefinition/Specimen-eu-lab"
          ]
        },
        "collection": {
          "collectedDateTime": "2015-11-29"
        },
        "text": {
          "status": "generated",
          "div": "<div xmlns=\"http://www.w3.org/1999/xhtml\"><table class=\"hl7__eu__lab__report\"><tr><th>Specimen</th><th>Collection Date</th></tr><tr><td>Acellular blood (serum or plasma) specimen</td><td><span class=\"nb\">29-Nov-2015</span></td></tr></table></div>"
        },
        "type": {
          "coding": [
            {
              "code": "122592007",
              "system": "http://snomed.info/sct",
              "display": "Acellular blood (serum or plasma) specimen"
            }
          ]
        }
      }
    },
    {
      "fullUrl": "urn:uuid:e5cc8762-b09e-4130-bc37-e339a0a343c1",
      "resource": {
        "resourceType": "Specimen",
        "id": "e5cc8762-b09e-4130-bc37-e339a0a343c1",
        "meta": {
          "profile": [
            "http://hl7.eu/fhir/laboratory/StructureDefinition/Specimen-eu-lab"
          ]
        },
        "collection": {
          "collectedDateTime": "2015-11-29"
        },
        "text": {
          "status": "generated",
          "div": "<div xmlns=\"http://www.w3.org/1999/xhtml\"><table class=\"hl7__eu__lab__report\"><tr><th>Specimen</th><th>Collection Date</th></tr><tr><td>Whole blood specimen (specimen)</td><td><span class=\"nb\">29-Nov-2015</span></td></tr></table></div>"
        },
        "type": {
          "coding": [
            {
              "code": "258580003",
              "system": "http://snomed.info/sct",
              "display": "Whole blood specimen (specimen)"
            }
          ]
        }
      }
    },
    {
      "fullUrl": "urn:uuid:e5cc8762-b09e-4130-bc37-e339a0a343c1",
      "resource": {
        "resourceType": "Specimen",
        "id": "e5cc8762-b09e-4130-bc37-e339a0a343c1",
        "meta": {
          "profile": [
            "http://hl7.eu/fhir/laboratory/StructureDefinition/Specimen-eu-lab"
          ]
        },
        "collection": {
          "collectedDateTime": "2015-11-29"
        },
        "text": {
          "status": "generated",
          "div": "<div xmlns=\"http://www.w3.org/1999/xhtml\"><table class=\"hl7__eu__lab__report\"><tr><th>Specimen</th><th>Collection Date</th></tr><tr><td>Whole blood specimen (specimen)</td><td><span class=\"nb\">29-Nov-2015</span></td></tr></table></div>"
        },
        "type": {
          "coding": [
            {
              "code": "258580003",
              "system": "http://snomed.info/sct",
              "display": "Whole blood specimen (specimen)"
            }
          ]
        }
      }
    },
    {
      "fullUrl": "urn:uuid:973d6568-dff9-41f3-bab2-bfbb59ecc987",
      "resource": {
        "resourceType": "Observation",
        "id": "973d6568-dff9-41f3-bab2-bfbb59ecc987",
        "meta": {
          "profile": [
            "http://hl7.eu/fhir/laboratory/StructureDefinition/Observation-resultslab-eu-lab"
          ]
        },
        "performer": [
          {
            "display": "The Central European Lab"
          }
        ],
        "category": [
          {
            "coding": [
              {
                "system": "http://terminology.hl7.org/CodeSystem/observation-category",
                "code": "laboratory"
              }
            ]
          }
        ],
        "code": {
          "coding": [
            {
              "code": "2093-3",
              "system": "http://loinc.org",
              "display": "Cholesterol [Mass/volume] in Serum or Plasma"
            }
          ],
          "text": "Cholesterol [Mass/volume] in Serum or Plasma"
        },
        "valueQuantity": {
          "system": "http://unitsofmeasure.org",
          "value": 209.9,
          "unit": "mg/dL",
          "code": "mg/dL"
        },
        "referenceRange": [
          {
            "low": {
              "value": 0,
              "code": "mg/dL",
              "system": "http://unitsofmeasure.org"
            }
          },
          {
            "high": {
              "value": 200,
              "code": "mg/dL",
              "system": "http://unitsofmeasure.org"
            }
          }
        ],
        "interpretation": [
          {
            "coding": [
              {
                "code": "H",
                "system": "http://terminology.hl7.org/CodeSystem/v3-ObservationInterpretation",
                "display": "High"
              }
            ]
          }
        ],
        "text": {
          "status": "generated",
          "div": "<div xmlns=\"http://www.w3.org/1999/xhtml\"><table class=\"hl7__eu__lab__report\"><tr><th>Test</th><th>29-Nov-2015</th><th>Reference&#xA0;Range</th><th>Unit</th></tr><tr><td>Cholesterol [Mass/volume] in Serum or Plasma</td><td>209.9</td><td>0 - 200</td><td>H</td><td>mg/dL</td></tr></table></div>"
        },
        "status": "final",
        "subject": {
          "reference": "urn:uuid:3f56fb1f-e2e2-455d-9571-52792b16402f",
          "display": "Russell Khan"
        },
        "effectiveDateTime": "2015-11-29T13:31:07Z",
        "specimen": {
          "reference": "urn:uuid:5a8aae1a-3e26-4835-b851-926db41d053c"
        }
      }
    },
    {
      "fullUrl": "urn:uuid:e0d411a8-8427-4494-b35a-411de3222934",
      "resource": {
        "resourceType": "Observation",
        "id": "e0d411a8-8427-4494-b35a-411de3222934",
        "meta": {
          "profile": [
            "http://hl7.eu/fhir/laboratory/StructureDefinition/Observation-resultslab-eu-lab"
          ]
        },
        "performer": [
          {
            "display": "The Central European Lab"
          }
        ],
        "category": [
          {
            "coding": [
              {
                "system": "http://terminology.hl7.org/CodeSystem/observation-category",
                "code": "laboratory"
              }
            ]
          }
        ],
        "code": {
          "coding": [
            {
              "code": "2571-8",
              "system": "http://loinc.org",
              "display": "Triglyceride [Mass/volume] in Serum or Plasma"
            }
          ],
          "text": "Triglyceride [Mass/volume] in Serum or Plasma"
        },
        "valueQuantity": {
          "system": "http://unitsofmeasure.org",
          "value": 133.5,
          "unit": "mg/dL",
          "code": "mg/dL"
        },
        "referenceRange": [
          {
            "low": {
              "value": 0,
              "code": "mg/dL",
              "system": "http://unitsofmeasure.org"
            }
          },
          {
            "high": {
              "value": 150,
              "code": "mg/dL",
              "system": "http://unitsofmeasure.org"
            }
          }
        ],
        "text": {
          "status": "generated",
          "div": "<div xmlns=\"http://www.w3.org/1999/xhtml\"><table class=\"hl7__eu__lab__report\"><tr><th>Test</th><th>29-Nov-2015</th><th>Reference&#xA0;Range</th><th>Unit</th></tr><tr><td>Triglyceride [Mass/volume] in Serum or Plasma</td><td>133.5</td><td>0 - 150</td><td></td><td>mg/dL</td></tr></table></div>"
        },
        "status": "final",
        "subject": {
          "reference": "urn:uuid:3f56fb1f-e2e2-455d-9571-52792b16402f",
          "display": "Russell Khan"
        },
        "effectiveDateTime": "2015-11-29T13:31:07Z",
        "specimen": {
          "reference": "urn:uuid:5a8aae1a-3e26-4835-b851-926db41d053c"
        }
      }
    },
    {
      "fullUrl": "urn:uuid:6eafa05b-2f51-4b7a-bcd6-fbfeb0aef1b3",
      "resource": {
        "resourceType": "Observation",
        "id": "6eafa05b-2f51-4b7a-bcd6-fbfeb0aef1b3",
        "meta": {
          "profile": [
            "http://hl7.eu/fhir/laboratory/StructureDefinition/Observation-resultslab-eu-lab"
          ]
        },
        "performer": [
          {
            "display": "The Central European Lab"
          }
        ],
        "category": [
          {
            "coding": [
              {
                "system": "http://terminology.hl7.org/CodeSystem/observation-category",
                "code": "laboratory"
              }
            ]
          }
        ],
        "code": {
          "coding": [
            {
              "code": "18262-6",
              "system": "http://loinc.org",
              "display": "Cholesterol in LDL [Mass/volume] in Serum or Plasma by Direct assay"
            }
          ],
          "text": "Cholesterol in LDL [Mass/volume] in Serum or Plasma by Direct assay"
        },
        "valueQuantity": {
          "system": "http://unitsofmeasure.org",
          "value": 134,
          "unit": "mg/dL",
          "code": "mg/dL"
        },
        "referenceRange": [
          {
            "low": {
              "value": 0,
              "code": "mg/dL",
              "system": "http://unitsofmeasure.org"
            }
          },
          {
            "high": {
              "value": 130,
              "code": "mg/dL",
              "system": "http://unitsofmeasure.org"
            }
          }
        ],
        "interpretation": [
          {
            "coding": [
              {
                "code": "H",
                "system": "http://terminology.hl7.org/CodeSystem/v3-ObservationInterpretation",
                "display": "High"
              }
            ]
          }
        ],
        "text": {
          "status": "generated",
          "div": "<div xmlns=\"http://www.w3.org/1999/xhtml\"><table class=\"hl7__eu__lab__report\"><tr><th>Test</th><th>29-Nov-2015</th><th>Reference&#xA0;Range</th><th>Unit</th></tr><tr><td>Cholesterol in LDL [Mass/volume] in Serum or Plasma by Direct assay</td><td>134.0</td><td>0 - 130</td><td>H</td><td>mg/dL</td></tr></table></div>"
        },
        "status": "final",
        "subject": {
          "reference": "urn:uuid:3f56fb1f-e2e2-455d-9571-52792b16402f",
          "display": "Russell Khan"
        },
        "effectiveDateTime": "2015-11-29T13:31:07Z",
        "specimen": {
          "reference": "urn:uuid:5a8aae1a-3e26-4835-b851-926db41d053c"
        }
      }
    },
    {
      "fullUrl": "urn:uuid:581ca8f9-8610-411b-8b70-df8c851e5b4b",
      "resource": {
        "resourceType": "Observation",
        "id": "581ca8f9-8610-411b-8b70-df8c851e5b4b",
        "meta": {
          "profile": [
            "http://hl7.eu/fhir/laboratory/StructureDefinition/Observation-resultslab-eu-lab"
          ]
        },
        "performer": [
          {
            "display": "The Central European Lab"
          }
        ],
        "category": [
          {
            "coding": [
              {
                "system": "http://terminology.hl7.org/CodeSystem/observation-category",
                "code": "laboratory"
              }
            ]
          }
        ],
        "code": {
          "coding": [
            {
              "code": "2085-9",
              "system": "http://loinc.org",
              "display": "Cholesterol in HDL [Mass/volume] in Serum or Plasma"
            }
          ],
          "text": "Cholesterol in HDL [Mass/volume] in Serum or Plasma"
        },
        "valueQuantity": {
          "system": "http://unitsofmeasure.org",
          "value": 49.2,
          "unit": "mg/dL",
          "code": "mg/dL"
        },
        "referenceRange": [
          {
            "low": {
              "value": 40,
              "code": "mg/dL",
              "system": "http://unitsofmeasure.org"
            }
          },
          {
            "high": {
              "value": 60,
              "code": "mg/dL",
              "system": "http://unitsofmeasure.org"
            }
          }
        ],
        "text": {
          "status": "generated",
          "div": "<div xmlns=\"http://www.w3.org/1999/xhtml\"><table class=\"hl7__eu__lab__report\"><tr><th>Test</th><th>29-Nov-2015</th><th>Reference&#xA0;Range</th><th>Unit</th></tr><tr><td>Cholesterol in HDL [Mass/volume] in Serum or Plasma</td><td>49.2</td><td>40 - 60</td><td></td><td>mg/dL</td></tr></table></div>"
        },
        "status": "final",
        "subject": {
          "reference": "urn:uuid:3f56fb1f-e2e2-455d-9571-52792b16402f",
          "display": "Russell Khan"
        },
        "effectiveDateTime": "2015-11-29T13:31:07Z",
        "specimen": {
          "reference": "urn:uuid:5a8aae1a-3e26-4835-b851-926db41d053c"
        }
      }
    },
    {
      "fullUrl": "urn:uuid:c313160c-46fa-45f3-aa2f-e6631f77e14e",
      "resource": {
        "resourceType": "Observation",
        "id": "c313160c-46fa-45f3-aa2f-e6631f77e14e",
        "meta": {
          "profile": [
            "http://hl7.eu/fhir/laboratory/StructureDefinition/Observation-resultslab-eu-lab"
          ]
        },
        "performer": [
          {
            "display": "The Central European Lab"
          }
        ],
        "category": [
          {
            "coding": [
              {
                "system": "http://terminology.hl7.org/CodeSystem/observation-category",
                "code": "laboratory"
              }
            ]
          }
        ],
        "code": {
          "coding": [
            {
              "code": "6690-2",
              "system": "http://loinc.org",
              "display": "Leukocytes [#/volume] in Blood by Automated count"
            }
          ],
          "text": "Leukocytes [#/volume] in Blood by Automated count"
        },
        "valueQuantity": {
          "system": "http://unitsofmeasure.org",
          "value": 7.2,
          "unit": "10*3/uL",
          "code": "10*3/uL"
        },
        "referenceRange": [
          {
            "low": {
              "value": 3.5,
              "code": "10*3/uL",
              "system": "http://unitsofmeasure.org"
            }
          },
          {
            "high": {
              "value": 10.5,
              "code": "10*3/uL",
              "system": "http://unitsofmeasure.org"
            }
          }
        ],
        "text": {
          "status": "generated",
          "div": "<div xmlns=\"http://www.w3.org/1999/xhtml\"><table class=\"hl7__eu__lab__report\"><tr><th>Test</th><th>29-Nov-2015</th><th>Reference&#xA0;Range</th><th>Unit</th></tr><tr><td>Leukocytes [#/volume] in Blood by Automated count</td><td>7.2</td><td>3.5 - 10.5</td><td></td><td>10*3/uL</td></tr></table></div>"
        },
        "status": "final",
        "subject": {
          "reference": "urn:uuid:3f56fb1f-e2e2-455d-9571-52792b16402f",
          "display": "Russell Khan"
        },
        "effectiveDateTime": "2015-11-29T13:31:07Z",
        "specimen": {
          "reference": "urn:uuid:e5cc8762-b09e-4130-bc37-e339a0a343c1"
        }
      }
    },
    {
      "fullUrl": "urn:uuid:c7d285b2-0598-419f-8adf-72841b61de50",
      "resource": {
        "resourceType": "Observation",
        "id": "c7d285b2-0598-419f-8adf-72841b61de50",
        "meta": {
          "profile": [
            "http://hl7.eu/fhir/laboratory/StructureDefinition/Observation-resultslab-eu-lab"
          ]
        },
        "performer": [
          {
            "display": "The Central European Lab"
          }
        ],
        "category": [
          {
            "coding": [
              {
                "system": "http://terminology.hl7.org/CodeSystem/observation-category",
                "code": "laboratory"
              }
            ]
          }
        ],
        "code": {
          "coding": [
            {
              "code": "789-8",
              "system": "http://loinc.org",
              "display": "Erythrocytes [#/volume] in Blood by Automated count"
            }
          ],
          "text": "Erythrocytes [#/volume] in Blood by Automated count"
        },
        "valueQuantity": {
          "system": "http://unitsofmeasure.org",
          "value": 4,
          "unit": "10*6/uL",
          "code": "10*6/uL"
        },
        "referenceRange": [
          {
            "low": {
              "value": 4.5,
              "code": "10*6/uL",
              "system": "http://unitsofmeasure.org"
            }
          },
          {
            "high": {
              "value": 6.2,
              "code": "10*6/uL",
              "system": "http://unitsofmeasure.org"
            }
          }
        ],
        "interpretation": [
          {
            "coding": [
              {
                "code": "L",
                "system": "http://terminology.hl7.org/CodeSystem/v3-ObservationInterpretation",
                "display": "Low"
              }
            ]
          }
        ],
        "text": {
          "status": "generated",
          "div": "<div xmlns=\"http://www.w3.org/1999/xhtml\"><table class=\"hl7__eu__lab__report\"><tr><th>Test</th><th>29-Nov-2015</th><th>Reference&#xA0;Range</th><th>Unit</th></tr><tr><td>Erythrocytes [#/volume] in Blood by Automated count</td><td>4.0</td><td>4.5 - 6.2</td><td>L</td><td>10*6/uL</td></tr></table></div>"
        },
        "status": "final",
        "subject": {
          "reference": "urn:uuid:3f56fb1f-e2e2-455d-9571-52792b16402f",
          "display": "Russell Khan"
        },
        "effectiveDateTime": "2015-11-29T13:31:07Z",
        "specimen": {
          "reference": "urn:uuid:e5cc8762-b09e-4130-bc37-e339a0a343c1"
        }
      }
    },
    {
      "fullUrl": "urn:uuid:8047cc18-d41a-49e4-99f3-bb355afb3353",
      "resource": {
        "resourceType": "Observation",
        "id": "8047cc18-d41a-49e4-99f3-bb355afb3353",
        "meta": {
          "profile": [
            "http://hl7.eu/fhir/laboratory/StructureDefinition/Observation-resultslab-eu-lab"
          ]
        },
        "performer": [
          {
            "display": "The Central European Lab"
          }
        ],
        "category": [
          {
            "coding": [
              {
                "system": "http://terminology.hl7.org/CodeSystem/observation-category",
                "code": "laboratory"
              }
            ]
          }
        ],
        "code": {
          "coding": [
            {
              "code": "718-7",
              "system": "http://loinc.org",
              "display": "Hemoglobin [Mass/volume] in Blood"
            }
          ],
          "text": "Hemoglobin [Mass/volume] in Blood"
        },
        "valueQuantity": {
          "system": "http://unitsofmeasure.org",
          "value": 12.5,
          "unit": "g/dL",
          "code": "g/dL"
        },
        "referenceRange": [
          {
            "low": {
              "value": 13.5,
              "code": "g/dL",
              "system": "http://unitsofmeasure.org"
            }
          },
          {
            "high": {
              "value": 17.5,
              "code": "g/dL",
              "system": "http://unitsofmeasure.org"
            }
          }
        ],
        "interpretation": [
          {
            "coding": [
              {
                "code": "L",
                "system": "http://terminology.hl7.org/CodeSystem/v3-ObservationInterpretation",
                "display": "Low"
              }
            ]
          }
        ],
        "text": {
          "status": "generated",
          "div": "<div xmlns=\"http://www.w3.org/1999/xhtml\"><table class=\"hl7__eu__lab__report\"><tr><th>Test</th><th>29-Nov-2015</th><th>Reference&#xA0;Range</th><th>Unit</th></tr><tr><td>Hemoglobin [Mass/volume] in Blood</td><td>12.5</td><td>13.5 - 17.5</td><td>L</td><td>g/dL</td></tr></table></div>"
        },
        "status": "final",
        "subject": {
          "reference": "urn:uuid:3f56fb1f-e2e2-455d-9571-52792b16402f",
          "display": "Russell Khan"
        },
        "effectiveDateTime": "2015-11-29T13:31:07Z",
        "specimen": {
          "reference": "urn:uuid:e5cc8762-b09e-4130-bc37-e339a0a343c1"
        }
      }
    },
    {
      "fullUrl": "urn:uuid:bb0ddb11-8676-4293-8520-e8dd8b893286",
      "resource": {
        "resourceType": "Observation",
        "id": "bb0ddb11-8676-4293-8520-e8dd8b893286",
        "meta": {
          "profile": [
            "http://hl7.eu/fhir/laboratory/StructureDefinition/Observation-resultslab-eu-lab"
          ]
        },
        "performer": [
          {
            "display": "The Central European Lab"
          }
        ],
        "category": [
          {
            "coding": [
              {
                "system": "http://terminology.hl7.org/CodeSystem/observation-category",
                "code": "laboratory"
              }
            ]
          }
        ],
        "code": {
          "coding": [
            {
              "code": "4544-3",
              "system": "http://loinc.org",
              "display": "Hematocrit [Volume Fraction] of Blood by Automated count"
            }
          ],
          "text": "Hematocrit [Volume Fraction] of Blood by Automated count"
        },
        "valueQuantity": {
          "system": "http://unitsofmeasure.org",
          "value": 36.7,
          "unit": "%",
          "code": "%"
        },
        "referenceRange": [
          {
            "low": {
              "value": 38,
              "code": "%",
              "system": "http://unitsofmeasure.org"
            }
          },
          {
            "high": {
              "value": 50,
              "code": "%",
              "system": "http://unitsofmeasure.org"
            }
          }
        ],
        "interpretation": [
          {
            "coding": [
              {
                "code": "L",
                "system": "http://terminology.hl7.org/CodeSystem/v3-ObservationInterpretation",
                "display": "Low"
              }
            ]
          }
        ],
        "text": {
          "status": "generated",
          "div": "<div xmlns=\"http://www.w3.org/1999/xhtml\"><table class=\"hl7__eu__lab__report\"><tr><th>Test</th><th>29-Nov-2015</th><th>Reference&#xA0;Range</th><th>Unit</th></tr><tr><td>Hematocrit [Volume Fraction] of Blood by Automated count</td><td>36.7</td><td>38 - 50</td><td>L</td><td>%</td></tr></table></div>"
        },
        "status": "final",
        "subject": {
          "reference": "urn:uuid:3f56fb1f-e2e2-455d-9571-52792b16402f",
          "display": "Russell Khan"
        },
        "effectiveDateTime": "2015-11-29T13:31:07Z",
        "specimen": {
          "reference": "urn:uuid:e5cc8762-b09e-4130-bc37-e339a0a343c1"
        }
      }
    },
    {
      "fullUrl": "urn:uuid:77b51d4d-35ac-4e80-aec0-38eace60ee60",
      "resource": {
        "resourceType": "Observation",
        "id": "77b51d4d-35ac-4e80-aec0-38eace60ee60",
        "meta": {
          "profile": [
            "http://hl7.eu/fhir/laboratory/StructureDefinition/Observation-resultslab-eu-lab"
          ]
        },
        "performer": [
          {
            "display": "The Central European Lab"
          }
        ],
        "category": [
          {
            "coding": [
              {
                "system": "http://terminology.hl7.org/CodeSystem/observation-category",
                "code": "laboratory"
              }
            ]
          }
        ],
        "code": {
          "coding": [
            {
              "code": "787-2",
              "system": "http://loinc.org",
              "display": "MCV [Entitic volume] by Automated count"
            }
          ],
          "text": "MCV [Entitic volume] by Automated count"
        },
        "valueQuantity": {
          "system": "http://unitsofmeasure.org",
          "value": 93.7,
          "unit": "fL",
          "code": "fL"
        },
        "referenceRange": [
          {
            "low": {
              "value": 82,
              "code": "fL",
              "system": "http://unitsofmeasure.org"
            }
          },
          {
            "high": {
              "value": 98,
              "code": "fL",
              "system": "http://unitsofmeasure.org"
            }
          }
        ],
        "text": {
          "status": "generated",
          "div": "<div xmlns=\"http://www.w3.org/1999/xhtml\"><table class=\"hl7__eu__lab__report\"><tr><th>Test</th><th>29-Nov-2015</th><th>Reference&#xA0;Range</th><th>Unit</th></tr><tr><td>MCV [Entitic volume] by Automated count</td><td>93.7</td><td>82 - 98</td><td></td><td>fL</td></tr></table></div>"
        },
        "status": "final",
        "subject": {
          "reference": "urn:uuid:3f56fb1f-e2e2-455d-9571-52792b16402f",
          "display": "Russell Khan"
        },
        "effectiveDateTime": "2015-11-29T13:31:07Z",
        "specimen": {
          "reference": "urn:uuid:e5cc8762-b09e-4130-bc37-e339a0a343c1"
        }
      }
    },
    {
      "fullUrl": "urn:uuid:654a8559-994f-4fa3-a423-670750c6095d",
      "resource": {
        "resourceType": "Observation",
        "id": "654a8559-994f-4fa3-a423-670750c6095d",
        "meta": {
          "profile": [
            "http://hl7.eu/fhir/laboratory/StructureDefinition/Observation-resultslab-eu-lab"
          ]
        },
        "performer": [
          {
            "display": "The Central European Lab"
          }
        ],
        "category": [
          {
            "coding": [
              {
                "system": "http://terminology.hl7.org/CodeSystem/observation-category",
                "code": "laboratory"
              }
            ]
          }
        ],
        "code": {
          "coding": [
            {
              "code": "785-6",
              "system": "http://loinc.org",
              "display": "MCH [Entitic mass] by Automated count"
            }
          ],
          "text": "MCH [Entitic mass] by Automated count"
        },
        "valueQuantity": {
          "system": "http://unitsofmeasure.org",
          "value": 29.8,
          "unit": "pg",
          "code": "pg"
        },
        "referenceRange": [
          {
            "low": {
              "value": 27,
              "code": "pg",
              "system": "http://unitsofmeasure.org"
            }
          },
          {
            "high": {
              "value": 33,
              "code": "pg",
              "system": "http://unitsofmeasure.org"
            }
          }
        ],
        "text": {
          "status": "generated",
          "div": "<div xmlns=\"http://www.w3.org/1999/xhtml\"><table class=\"hl7__eu__lab__report\"><tr><th>Test</th><th>29-Nov-2015</th><th>Reference&#xA0;Range</th><th>Unit</th></tr><tr><td>MCH [Entitic mass] by Automated count</td><td>29.8</td><td>27 - 33</td><td></td><td>pg</td></tr></table></div>"
        },
        "status": "final",
        "subject": {
          "reference": "urn:uuid:3f56fb1f-e2e2-455d-9571-52792b16402f",
          "display": "Russell Khan"
        },
        "effectiveDateTime": "2015-11-29T13:31:07Z",
        "specimen": {
          "reference": "urn:uuid:e5cc8762-b09e-4130-bc37-e339a0a343c1"
        }
      }
    },
    {
      "fullUrl": "urn:uuid:691196c0-992a-4fd7-b9b8-b4781b9f70af",
      "resource": {
        "resourceType": "Observation",
        "id": "691196c0-992a-4fd7-b9b8-b4781b9f70af",
        "meta": {
          "profile": [
            "http://hl7.eu/fhir/laboratory/StructureDefinition/Observation-resultslab-eu-lab"
          ]
        },
        "performer": [
          {
            "display": "The Central European Lab"
          }
        ],
        "category": [
          {
            "coding": [
              {
                "system": "http://terminology.hl7.org/CodeSystem/observation-category",
                "code": "laboratory"
              }
            ]
          }
        ],
        "code": {
          "coding": [
            {
              "code": "786-4",
              "system": "http://loinc.org",
              "display": "MCHC [Mass/volume] by Automated count"
            }
          ],
          "text": "MCHC [Mass/volume] by Automated count"
        },
        "valueQuantity": {
          "system": "http://unitsofmeasure.org",
          "value": 34.8,
          "unit": "g/dL",
          "code": "g/dL"
        },
        "referenceRange": [
          {
            "low": {
              "value": 31,
              "code": "g/dL",
              "system": "http://unitsofmeasure.org"
            }
          },
          {
            "high": {
              "value": 35,
              "code": "g/dL",
              "system": "http://unitsofmeasure.org"
            }
          }
        ],
        "text": {
          "status": "generated",
          "div": "<div xmlns=\"http://www.w3.org/1999/xhtml\"><table class=\"hl7__eu__lab__report\"><tr><th>Test</th><th>29-Nov-2015</th><th>Reference&#xA0;Range</th><th>Unit</th></tr><tr><td>MCHC [Mass/volume] by Automated count</td><td>34.8</td><td>31 - 35</td><td></td><td>g/dL</td></tr></table></div>"
        },
        "status": "final",
        "subject": {
          "reference": "urn:uuid:3f56fb1f-e2e2-455d-9571-52792b16402f",
          "display": "Russell Khan"
        },
        "effectiveDateTime": "2015-11-29T13:31:07Z",
        "specimen": {
          "reference": "urn:uuid:e5cc8762-b09e-4130-bc37-e339a0a343c1"
        }
      }
    },
    {
      "fullUrl": "urn:uuid:e8af19bb-402e-4ed2-8525-91a692af3f6f",
      "resource": {
        "resourceType": "Observation",
        "id": "e8af19bb-402e-4ed2-8525-91a692af3f6f",
        "meta": {
          "profile": [
            "http://hl7.eu/fhir/laboratory/StructureDefinition/Observation-resultslab-eu-lab"
          ]
        },
        "performer": [
          {
            "display": "The Central European Lab"
          }
        ],
        "category": [
          {
            "coding": [
              {
                "system": "http://terminology.hl7.org/CodeSystem/observation-category",
                "code": "laboratory"
              }
            ]
          }
        ],
        "code": {
          "coding": [
            {
              "code": "21000-5",
              "system": "http://loinc.org",
              "display": "Erythrocyte distribution width [Entitic volume] by Automated count"
            }
          ],
          "text": "Erythrocyte distribution width [Entitic volume] by Automated count"
        },
        "valueQuantity": {
          "system": "http://unitsofmeasure.org",
          "value": 43,
          "unit": "fL",
          "code": "fL"
        },
        "referenceRange": [
          {
            "low": {
              "value": 39,
              "code": "fL",
              "system": "http://unitsofmeasure.org"
            }
          },
          {
            "high": {
              "value": 55,
              "code": "fL",
              "system": "http://unitsofmeasure.org"
            }
          }
        ],
        "text": {
          "status": "generated",
          "div": "<div xmlns=\"http://www.w3.org/1999/xhtml\"><table class=\"hl7__eu__lab__report\"><tr><th>Test</th><th>29-Nov-2015</th><th>Reference&#xA0;Range</th><th>Unit</th></tr><tr><td>Erythrocyte distribution width [Entitic volume] by Automated count</td><td>43.0</td><td>39 - 55</td><td></td><td>fL</td></tr></table></div>"
        },
        "status": "final",
        "subject": {
          "reference": "urn:uuid:3f56fb1f-e2e2-455d-9571-52792b16402f",
          "display": "Russell Khan"
        },
        "effectiveDateTime": "2015-11-29T13:31:07Z",
        "specimen": {
          "reference": "urn:uuid:e5cc8762-b09e-4130-bc37-e339a0a343c1"
        }
      }
    },
    {
      "fullUrl": "urn:uuid:e8431232-71bd-4ab8-8ebd-287c8566bcc5",
      "resource": {
        "resourceType": "Observation",
        "id": "e8431232-71bd-4ab8-8ebd-287c8566bcc5",
        "meta": {
          "profile": [
            "http://hl7.eu/fhir/laboratory/StructureDefinition/Observation-resultslab-eu-lab"
          ]
        },
        "performer": [
          {
            "display": "The Central European Lab"
          }
        ],
        "category": [
          {
            "coding": [
              {
                "system": "http://terminology.hl7.org/CodeSystem/observation-category",
                "code": "laboratory"
              }
            ]
          }
        ],
        "code": {
          "coding": [
            {
              "code": "777-3",
              "system": "http://loinc.org",
              "display": "Platelets [#/volume] in Blood by Automated count"
            }
          ],
          "text": "Platelets [#/volume] in Blood by Automated count"
        },
        "valueQuantity": {
          "system": "http://unitsofmeasure.org",
          "value": 155.7,
          "unit": "10*3/uL",
          "code": "10*3/uL"
        },
        "referenceRange": [
          {
            "low": {
              "value": 150,
              "code": "10*3/uL",
              "system": "http://unitsofmeasure.org"
            }
          },
          {
            "high": {
              "value": 379,
              "code": "10*3/uL",
              "system": "http://unitsofmeasure.org"
            }
          }
        ],
        "text": {
          "status": "generated",
          "div": "<div xmlns=\"http://www.w3.org/1999/xhtml\"><table class=\"hl7__eu__lab__report\"><tr><th>Test</th><th>29-Nov-2015</th><th>Reference&#xA0;Range</th><th>Unit</th></tr><tr><td>Platelets [#/volume] in Blood by Automated count</td><td>155.7</td><td>150 - 379</td><td></td><td>10*3/uL</td></tr></table></div>"
        },
        "status": "final",
        "subject": {
          "reference": "urn:uuid:3f56fb1f-e2e2-455d-9571-52792b16402f",
          "display": "Russell Khan"
        },
        "effectiveDateTime": "2015-11-29T13:31:07Z",
        "specimen": {
          "reference": "urn:uuid:e5cc8762-b09e-4130-bc37-e339a0a343c1"
        }
      }
    },
    {
      "fullUrl": "urn:uuid:542ff354-2048-4ee4-a445-17ba0206bd1b",
      "resource": {
        "resourceType": "Observation",
        "id": "542ff354-2048-4ee4-a445-17ba0206bd1b",
        "meta": {
          "profile": [
            "http://hl7.eu/fhir/laboratory/StructureDefinition/Observation-resultslab-eu-lab"
          ]
        },
        "performer": [
          {
            "display": "The Central European Lab"
          }
        ],
        "category": [
          {
            "coding": [
              {
                "system": "http://terminology.hl7.org/CodeSystem/observation-category",
                "code": "laboratory"
              }
            ]
          }
        ],
        "code": {
          "coding": [
            {
              "code": "32207-3",
              "system": "http://loinc.org",
              "display": "Platelet distribution width [Entitic volume] in Blood by Automated count"
            }
          ],
          "text": "Platelet distribution width [Entitic volume] in Blood by Automated count"
        },
        "valueQuantity": {
          "system": "http://unitsofmeasure.org",
          "value": 305.3,
          "unit": "fL",
          "code": "fL"
        },
        "referenceRange": [
          {
            "low": {
              "value": 286,
              "code": "fL",
              "system": "http://unitsofmeasure.org"
            }
          },
          {
            "high": {
              "value": 366,
              "code": "fL",
              "system": "http://unitsofmeasure.org"
            }
          }
        ],
        "text": {
          "status": "generated",
          "div": "<div xmlns=\"http://www.w3.org/1999/xhtml\"><table class=\"hl7__eu__lab__report\"><tr><th>Test</th><th>29-Nov-2015</th><th>Reference&#xA0;Range</th><th>Unit</th></tr><tr><td>Platelet distribution width [Entitic volume] in Blood by Automated count</td><td>305.3</td><td>286 - 366</td><td></td><td>fL</td></tr></table></div>"
        },
        "status": "final",
        "subject": {
          "reference": "urn:uuid:3f56fb1f-e2e2-455d-9571-52792b16402f",
          "display": "Russell Khan"
        },
        "effectiveDateTime": "2015-11-29T13:31:07Z",
        "specimen": {
          "reference": "urn:uuid:e5cc8762-b09e-4130-bc37-e339a0a343c1"
        }
      }
    },
    {
      "fullUrl": "urn:uuid:fdf7f6a5-45c7-42f1-a8b7-388a45f04163",
      "resource": {
        "resourceType": "Observation",
        "id": "fdf7f6a5-45c7-42f1-a8b7-388a45f04163",
        "meta": {
          "profile": [
            "http://hl7.eu/fhir/laboratory/StructureDefinition/Observation-resultslab-eu-lab"
          ]
        },
        "performer": [
          {
            "display": "The Central European Lab"
          }
        ],
        "category": [
          {
            "coding": [
              {
                "system": "http://terminology.hl7.org/CodeSystem/observation-category",
                "code": "laboratory"
              }
            ]
          }
        ],
        "code": {
          "coding": [
            {
              "code": "32623-1",
              "system": "http://loinc.org",
              "display": "Platelet mean volume [Entitic volume] in Blood by Automated count"
            }
          ],
          "text": "Platelet mean volume [Entitic volume] in Blood by Automated count"
        },
        "valueQuantity": {
          "system": "http://unitsofmeasure.org",
          "value": 10.7,
          "unit": "fL",
          "code": "fL"
        },
        "referenceRange": [
          {
            "low": {
              "value": 7.2,
              "code": "fL",
              "system": "http://unitsofmeasure.org"
            }
          },
          {
            "high": {
              "value": 13.8,
              "code": "fL",
              "system": "http://unitsofmeasure.org"
            }
          }
        ],
        "text": {
          "status": "generated",
          "div": "<div xmlns=\"http://www.w3.org/1999/xhtml\"><table class=\"hl7__eu__lab__report\"><tr><th>Test</th><th>29-Nov-2015</th><th>Reference&#xA0;Range</th><th>Unit</th></tr><tr><td>Platelet mean volume [Entitic volume] in Blood by Automated count</td><td>10.7</td><td>7.2 - 13.8</td><td></td><td>fL</td></tr></table></div>"
        },
        "status": "final",
        "subject": {
          "reference": "urn:uuid:3f56fb1f-e2e2-455d-9571-52792b16402f",
          "display": "Russell Khan"
        },
        "effectiveDateTime": "2015-11-29T13:31:07Z",
        "specimen": {
          "reference": "urn:uuid:e5cc8762-b09e-4130-bc37-e339a0a343c1"
        }
      }
    },
    {
      "fullUrl": "urn:uuid:623281eb-525a-4b66-85b2-e7a8fba87219",
      "resource": {
        "resourceType": "Device",
        "id": "623281eb-525a-4b66-85b2-e7a8fba87219",
        "deviceName": [
          {
            "name": "SYNDERAI Synthetic Generator",
            "type": "manufacturer-name"
          }
        ],
        "version": [
          {
            "value": "5.0"
          }
        ],
        "text": {
          "status": "generated",
          "div": "<div xmlns=\"http://www.w3.org/1999/xhtml\">SYNDERAI Synthetic Generator v5.0</div>"
        },
        "status": "active\"",
        "distinctIdentifier": "synderai-generator-50",
        "manufacturer": "SYNDERAI Project"
      }
    },
    {
      "fullUrl": "urn:uuid:3509f7ef-68d4-41d8-a022-279da2389caa",
      "resource": {
        "resourceType": "Provenance",
        "id": "3509f7ef-68d4-41d8-a022-279da2389caa",
        "target": [
          {
            "reference": "Patient/3f56fb1f-e2e2-455d-9571-52792b16402f"
          },
          {
            "reference": "Bundle/6e5d11a5-2561-46ee-a130-cd53e10f015b"
          },
          {
            "reference": "Composition/23ebc97a-aa8e-4217-9902-ee268b4e30f9"
          },
          {
            "reference": "PractitionerRole/37d97991-dd30-40a4-a580-177d4dae19f2"
          },
          {
            "reference": "Practitioner/fa11d3f8-2651-4216-8d37-974df854f841"
          },
          {
            "reference": "PractitionerRole/9408f6bc-32e0-44d3-819f-fd28225330c1"
          },
          {
            "reference": "Organization/5e353807-6e04-427f-aa00-980374a99949"
          }
        ],
        "activity": {
          "text": "Synthetic Example Data Generation"
        },
        "policy": [
          "https://synderai.net/synderai-synthetic-data-policy"
        ],
        "agent": [
          {
            "type": {
              "text": "author"
            },
            "who": {
              "reference": "Device/623281eb-525a-4b66-85b2-e7a8fba87219"
            }
          }
        ],
        "reason": [
          {
            "text": "Interoperability Testing and Training (non-clinical use)"
          }
        ],
        "text": {
          "status": "generated",
          "div": "<div xmlns=\"http://www.w3.org/1999/xhtml\">Provenance for SYNDERAI Synthetic Example Data Resource</div>"
        },
        "recorded": "2015-11-29T14:31:07Z"
      }
    },
    {
      "fullUrl": "urn:uuid:37d97991-dd30-40a4-a580-177d4dae19f2",
      "resource": {
        "resourceType": "PractitionerRole",
        "id": "37d97991-dd30-40a4-a580-177d4dae19f2",
        "meta": {
          "profile": [
            "http://hl7.eu/fhir/base/StructureDefinition/practitionerRole-eu"
          ]
        },
        "text": {
          "status": "generated",
          "div": "<div xmlns=\"http://www.w3.org/1999/xhtml\">Laboratory Role Id: 37d97991-dd30-40a4-a580-177d4dae19f2</div>"
        },
        "practitioner": {
          "reference": "urn:uuid:fa11d3f8-2651-4216-8d37-974df854f841"
        }
      }
    },
    {
      "fullUrl": "urn:uuid:fa11d3f8-2651-4216-8d37-974df854f841",
      "resource": {
        "resourceType": "Practitioner",
        "id": "fa11d3f8-2651-4216-8d37-974df854f841",
        "meta": {
          "profile": [
            "http://hl7.eu/fhir/base/StructureDefinition/practitioner-eu"
          ]
        },
        "identifier": [
          {
            "assigner": {
              "display": "HL7 Europe"
            },
            "system": "urn:oid:2.16.840.1.113883.2.51.999",
            "value": "dab916ce-3d1a-452d-8c2d-a453e6e4980f"
          }
        ],
        "name": [
          {
            "prefix": [
              "dr"
            ],
            "given": [
              "Ex"
            ],
            "family": "Ample"
          }
        ],
        "address": [
          {
            "line": [
              "Laboratoire Central Européenne",
              "Boulevard du Jardin Botanique 32"
            ],
            "postalCode": "1000",
            "city": "Brussels",
            "country": "Belgium"
          }
        ],
        "text": {
          "status": "generated",
          "div": "<div xmlns=\"http://www.w3.org/1999/xhtml\">Laboratory: Laboratoire Central Européenne, 1000 Brussels, Belgium</div>"
        }
      }
    }
  ],
  "type": "document",
  "timestamp": "2015-11-29T14:31:07Z"
}
