{
  "resourceType": "Bundle",
  "id": "03d1c0af-e493-4e29-b8ae-e5d0d9f1dae5",
  "meta": {
    "profile": [
      "http://hl7.eu/fhir/laboratory/StructureDefinition/Bundle-eu-lab"
    ]
  },
  "identifier": {
    "assigner": {
      "display": "HL7 Europe"
    },
    "system": "urn:oid:2.16.840.1.113883.2.51.999",
    "value": "268ab830-8878-4bee-ae77-dca9604ba8bf"
  },
  "entry": [
    {
      "fullUrl": "urn:uuid:b5260e97-1ff9-4249-a522-14e482a87145",
      "resource": {
        "resourceType": "Composition",
        "id": "b5260e97-1ff9-4249-a522-14e482a87145",
        "meta": {
          "profile": [
            "http://hl7.eu/fhir/laboratory/StructureDefinition/Composition-eu-lab"
          ]
        },
        "identifier": {
          "assigner": {
            "display": "HL7 Europe"
          },
          "system": "urn:oid:2.16.840.1.113883.2.51.999",
          "value": "f11ec8ad-0dd2-41cf-87df-6604b74ce32d"
        },
        "author": [
          {
            "reference": "urn:uuid:7019d9f6-ca00-4501-bba8-80f75fb247d4"
          }
        ],
        "category": [
          {
            "coding": [
              {
                "code": "26436-6",
                "system": "http://loinc.org",
                "display": "Laboratory studies (set)"
              }
            ]
          }
        ],
        "type": {
          "coding": [
            {
              "code": "11502-2",
              "system": "http://loinc.org",
              "display": "Laboratory report"
            }
          ],
          "text": "Laboratory Report"
        },
        "section": [
          {
            "code": {
              "coding": [
                {
                  "code": "26436-6",
                  "system": "http://loinc.org",
                  "display": "Laboratory studies (set)"
                }
              ],
              "text": "Laboratory studies"
            },
            "section": [
              {
                "code": {
                  "coding": [
                    {
                      "code": "$18719-5",
                      "system": "http://loinc.org",
                      "display": "Chemistry studies (set)"
                    }
                  ],
                  "text": "Chemistry"
                },
                "entry": [
                  {
                    "reference": "urn:uuid:456f3035-7693-4994-b7b7-1d3185d16d4f"
                  },
                  {
                    "reference": "urn:uuid:b7e65ca2-6129-472a-b1d1-abf93edee5a8"
                  },
                  {
                    "reference": "urn:uuid:4ceffff4-e2a7-4af6-8b08-4195f4d83b64"
                  },
                  {
                    "reference": "urn:uuid:c57de1fd-199f-4c97-8758-1b37d81c05da"
                  },
                  {
                    "reference": "urn:uuid:ddbc869f-85f6-4150-b190-ae8d2af17f9b"
                  },
                  {
                    "reference": "urn:uuid:355afc6f-cbd7-4675-90c0-a1f59df2f024"
                  },
                  {
                    "reference": "urn:uuid:e590c4a1-cd05-4947-9ca7-3c545f9930f2"
                  },
                  {
                    "reference": "urn:uuid:216d177c-b695-40ee-80c1-b92b9dcfef64"
                  },
                  {
                    "reference": "urn:uuid:80f388d8-b10f-4b95-906c-86b7a44f3ca4"
                  },
                  {
                    "reference": "urn:uuid:5a61bbfb-cebd-46b7-be0c-77f791b7edce"
                  },
                  {
                    "reference": "urn:uuid:a721829b-843a-459a-bf12-197d74aeedd5"
                  },
                  {
                    "reference": "urn:uuid:2125c513-bbce-44fa-b00f-9ac11a2e2317"
                  },
                  {
                    "reference": "urn:uuid:51b25462-1ff2-4876-9938-b589ccb762a0"
                  }
                ],
                "text": {
                  "status": "generated",
                  "div": "<div xmlns=\"http://www.w3.org/1999/xhtml\"><h3>Chemistry</h3><table class=\"hl7__eu__lab__report\"><thead><tr><th>Test</th><th>04-APR-2023</th><th>Reference&#xA0;Range</th><th>Unit</th></tr></thead><tbody><tr><td>Glucose [Mass/volume] in Serum or Plasma</td><td><strong>69.0 L</strong></td><td>70 - 139</td><td>mg/dL</td></tr><tr><td>Urea nitrogen [Mass/volume] in Serum or Plasma</td><td>18.2</td><td>7 - 20</td><td>mg/dL</td></tr><tr><td>Creatinine [Mass/volume] in Serum or Plasma</td><td><strong>1.6 H</strong></td><td>0.6 - 1.1</td><td>mg/dL</td></tr><tr><td>Calcium [Mass/volume] in Serum or Plasma</td><td>9.5</td><td>8.5 - 10.4</td><td>mg/dL</td></tr><tr><td>Sodium [Moles/volume] in Serum or Plasma</td><td>139.5</td><td>135 - 145</td><td>mmol/L</td></tr><tr><td>Potassium [Moles/volume] in Serum or Plasma</td><td>4.2</td><td>3.5 - 5.1</td><td>mmol/L</td></tr><tr><td>Chloride [Moles/volume] in Serum or Plasma</td><td>106.8</td><td>98 - 110</td><td>mmol/L</td></tr><tr><td>Carbon dioxide, total [Moles/volume] in Serum or Plasma</td><td><strong>21.1 L</strong></td><td>22 - 32</td><td>mmol/L</td></tr><tr><td>Ketones [Presence] in Urine by Test strip</td><td>Urine ketone test = trace</td><td></td><td></td></tr><tr><td>Cholesterol [Mass/volume] in Serum or Plasma</td><td>161.6</td><td>125 - 200</td><td>mg/dL</td></tr><tr><td>Triglyceride [Mass/volume] in Serum or Plasma</td><td>121.3</td><td>35 - 150</td><td>mg/dL</td></tr><tr><td>Cholesterol in LDL [Mass/volume] in Serum or Plasma by Direct assay</td><td>84.2</td><td>0 - 130</td><td>mg/dL</td></tr><tr><td>Cholesterol in HDL [Mass/volume] in Serum or Plasma</td><td>53.1</td><td>46 - 82</td><td>mg/dL</td></tr></tbody></table></div>"
                },
                "title": "Chemistry"
              },
              {
                "code": {
                  "coding": [
                    {
                      "code": "$18729-4",
                      "system": "http://loinc.org",
                      "display": "Urinalysis studies (set)"
                    }
                  ],
                  "text": "Urinalysis"
                },
                "entry": [
                  {
                    "reference": "urn:uuid:ea4532b9-dffa-4cfc-bf4c-d5ceca1b047f"
                  },
                  {
                    "reference": "urn:uuid:caf010a6-1ca9-42c5-a716-87894d67a3b2"
                  },
                  {
                    "reference": "urn:uuid:7622f34f-6a40-49a6-8540-ad16faeb1474"
                  },
                  {
                    "reference": "urn:uuid:67d1312b-9455-46ec-a1c0-d58887775a22"
                  },
                  {
                    "reference": "urn:uuid:25e33ea0-b9e4-43d6-85b3-97cdf5d415c0"
                  },
                  {
                    "reference": "urn:uuid:81edc66c-e5b9-400e-9382-f35d8c4126bf"
                  },
                  {
                    "reference": "urn:uuid:51efc5ea-9602-4bff-817e-589b4d3f7e9f"
                  },
                  {
                    "reference": "urn:uuid:3706c633-7d3d-4f32-9110-0d66c3926325"
                  },
                  {
                    "reference": "urn:uuid:e49c1544-e9fb-4f4a-9957-34a9ff54dfe9"
                  },
                  {
                    "reference": "urn:uuid:3344da78-8366-49aa-8c46-9e82613263e2"
                  },
                  {
                    "reference": "urn:uuid:700a574e-27b0-4f1e-b82d-21e41438530b"
                  },
                  {
                    "reference": "urn:uuid:438db831-f43a-4432-b5f9-8a069f14bcd2"
                  }
                ],
                "text": {
                  "status": "generated",
                  "div": "<div xmlns=\"http://www.w3.org/1999/xhtml\"><h3>Urinalysis</h3><table class=\"hl7__eu__lab__report\"><thead><tr><th>Test</th><th>04-APR-2023</th><th>Reference&#xA0;Range</th><th>Unit</th></tr></thead><tbody><tr><td>Glucose [Mass/volume] in Urine by Test strip</td><td><strong>1.8 H</strong></td><td>0 - 0</td><td>mg/dL</td></tr><tr><td>Glucose [Presence] in Urine by Test strip</td><td>++</td><td></td><td></td></tr><tr><td>Bilirubin.total [Mass/volume] in Urine by Test strip</td><td>0.7</td><td>0 - 1.6</td><td>mg/dL</td></tr><tr><td>Bilirubin.total [Presence] in Urine by Test strip</td><td>Finding of bilirubin in urine</td><td></td><td></td></tr><tr><td>Ketones [Mass/volume] in Urine by Test strip</td><td><strong>5.6 H</strong></td><td>0 - 0.5</td><td>mg/dL</td></tr><tr><td>Specific gravity of Urine by Test strip</td><td><strong>1.0 L</strong></td><td>1.005 - 1.03</td><td>{nominal}</td></tr><tr><td>pH of Urine by Test strip</td><td>5.3</td><td>4.5 - 7.5</td><td>pH</td></tr><tr><td>Protein [Mass/volume] in Urine by Test strip</td><td><strong>102.7 H</strong></td><td>0 - 15</td><td>mg/dL</td></tr><tr><td>Protein [Presence] in Urine by Test strip</td><td>Urine protein test = +</td><td></td><td></td></tr><tr><td>Nitrite [Presence] in Urine by Test strip</td><td>Urine nitrite negative</td><td></td><td></td></tr><tr><td>Hemoglobin [Presence] in Urine by Test strip</td><td>Urine blood test = negative</td><td></td><td></td></tr><tr><td>Leukocyte esterase [Presence] in Urine by Test strip</td><td>Urine leukocyte test negative</td><td></td><td></td></tr></tbody></table></div>"
                },
                "title": "Urinalysis"
              },
              {
                "code": {
                  "coding": [
                    {
                      "code": "$LP7846-1",
                      "system": "http://loinc.org",
                      "display": "Specimen information"
                    }
                  ],
                  "text": "Specimen information"
                },
                "entry": [
                  {
                    "reference": "urn:uuid:076acf9e-1833-4bd8-9cc7-73eb1469bced"
                  },
                  {
                    "reference": "urn:uuid:dc69a5bf-ffe4-4ca6-a3dd-72a74441e0b9"
                  },
                  {
                    "reference": "urn:uuid:f3bfd66c-33bf-4d04-a5bc-f6c0a7fa59dc"
                  },
                  {
                    "reference": "urn:uuid:a4601f3f-0e29-454c-bcf1-7cb638b0f991"
                  }
                ],
                "text": {
                  "status": "generated",
                  "div": "<div xmlns=\"http://www.w3.org/1999/xhtml\"><h3>Specimen information</h3><table class=\"hl7__eu__lab__report\"><thead><tr><th>Test</th><th>04-APR-2023</th><th>Specimen</th><th></th></tr></thead><tbody><tr><td>Appearance of Urine</td><td>Cloudy urine</td><td>Urine</td><td></td></tr><tr><td>Odor of Urine</td><td>Urine smell ammoniacal</td><td>Urine</td><td></td></tr><tr><td>Clarity of Urine</td><td>Translucent</td><td>Urine</td><td></td></tr><tr><td>Color of Urine</td><td>Brown color</td><td>Urine</td><td></td></tr></tbody></table></div>"
                },
                "title": "Specimen information"
              }
            ],
            "title": "Laboratory Report"
          },
          {
            "text": {
              "status": "generated",
              "div": "<div xmlns=\"http://www.w3.org/1999/xhtml\"><h3>Annotation</h3><table class=\"hl7__eu__lab__report\"><tr><th>Conclusion and Recommendations based on this report and previous findings known to us</th></tr><tr><td>The patient shows mild hypoglycemia, elevated creatinine suggesting possible renal impairment, and metabolic acidosis (low CO₂). Urinalysis reveals proteinuria, glycosuria, ketonuria, low specific gravity, and abnormal urine appearance, indicating possible diabetic nephropathy or acute kidney injury. No evidence of urinary tract infection. Recommend further evaluation of renal function, glycemic control, and assessment for underlying diabetes or other metabolic disorders.</td></tr></table></div>"
            },
            "code": {
              "coding": [
                {
                  "system": "http://loinc.org",
                  "code": "48767-8",
                  "display": "Annotation comment"
                }
              ]
            },
            "title": "Annotation comment"
          }
        ],
        "status": "final",
        "subject": {
          "reference": "urn:uuid:d0a25775-4b62-468b-a4af-9328a487a3bb",
          "display": "Hortense Gallet"
        },
        "date": "2023-04-04T22:16:45Z",
        "title": "Laboratory Report",
        "confidentiality": "N"
      }
    },
    {
      "fullUrl": "urn:uuid:bed1f430-3a51-4198-af85-666e3a6b1ad0",
      "resource": {
        "resourceType": "DiagnosticReport",
        "id": "bed1f430-3a51-4198-af85-666e3a6b1ad0",
        "meta": {
          "profile": [
            "http://hl7.eu/fhir/laboratory/StructureDefinition/DiagnosticReport-eu-lab"
          ]
        },
        "identifier": [
          {
            "assigner": {
              "display": "HL7 Europe"
            },
            "system": "urn:oid:2.16.840.1.113883.2.51.999",
            "value": "f59d6df3-8909-4fac-aeb8-9da09dc0502e"
          }
        ],
        "extension": [
          {
            "url": "http://hl7.org/fhir/5.0/StructureDefinition/extension-DiagnosticReport.composition",
            "valueReference": {
              "reference": "urn:uuid:f11ec8ad-0dd2-41cf-87df-6604b74ce32d"
            }
          }
        ],
        "category": [
          {
            "coding": [
              {
                "code": "26436-6",
                "system": "http://loinc.org",
                "display": "Laboratory studies (set)"
              }
            ]
          }
        ],
        "specimen": [
          {
            "reference": "urn:uuid:5ec9a15f-cb98-49ee-a3fe-cf9922a4b657"
          },
          {
            "reference": "urn:uuid:f744b3b5-5322-4411-9c2c-ccdcdb0c07d9"
          }
        ],
        "result": [
          {
            "reference": "urn:uuid:456f3035-7693-4994-b7b7-1d3185d16d4f"
          },
          {
            "reference": "urn:uuid:b7e65ca2-6129-472a-b1d1-abf93edee5a8"
          },
          {
            "reference": "urn:uuid:4ceffff4-e2a7-4af6-8b08-4195f4d83b64"
          },
          {
            "reference": "urn:uuid:c57de1fd-199f-4c97-8758-1b37d81c05da"
          },
          {
            "reference": "urn:uuid:ddbc869f-85f6-4150-b190-ae8d2af17f9b"
          },
          {
            "reference": "urn:uuid:355afc6f-cbd7-4675-90c0-a1f59df2f024"
          },
          {
            "reference": "urn:uuid:e590c4a1-cd05-4947-9ca7-3c545f9930f2"
          },
          {
            "reference": "urn:uuid:216d177c-b695-40ee-80c1-b92b9dcfef64"
          },
          {
            "reference": "urn:uuid:076acf9e-1833-4bd8-9cc7-73eb1469bced"
          },
          {
            "reference": "urn:uuid:dc69a5bf-ffe4-4ca6-a3dd-72a74441e0b9"
          },
          {
            "reference": "urn:uuid:f3bfd66c-33bf-4d04-a5bc-f6c0a7fa59dc"
          },
          {
            "reference": "urn:uuid:a4601f3f-0e29-454c-bcf1-7cb638b0f991"
          },
          {
            "reference": "urn:uuid:ea4532b9-dffa-4cfc-bf4c-d5ceca1b047f"
          },
          {
            "reference": "urn:uuid:caf010a6-1ca9-42c5-a716-87894d67a3b2"
          },
          {
            "reference": "urn:uuid:7622f34f-6a40-49a6-8540-ad16faeb1474"
          },
          {
            "reference": "urn:uuid:67d1312b-9455-46ec-a1c0-d58887775a22"
          },
          {
            "reference": "urn:uuid:25e33ea0-b9e4-43d6-85b3-97cdf5d415c0"
          },
          {
            "reference": "urn:uuid:80f388d8-b10f-4b95-906c-86b7a44f3ca4"
          },
          {
            "reference": "urn:uuid:81edc66c-e5b9-400e-9382-f35d8c4126bf"
          },
          {
            "reference": "urn:uuid:51efc5ea-9602-4bff-817e-589b4d3f7e9f"
          },
          {
            "reference": "urn:uuid:3706c633-7d3d-4f32-9110-0d66c3926325"
          },
          {
            "reference": "urn:uuid:e49c1544-e9fb-4f4a-9957-34a9ff54dfe9"
          },
          {
            "reference": "urn:uuid:3344da78-8366-49aa-8c46-9e82613263e2"
          },
          {
            "reference": "urn:uuid:700a574e-27b0-4f1e-b82d-21e41438530b"
          },
          {
            "reference": "urn:uuid:438db831-f43a-4432-b5f9-8a069f14bcd2"
          },
          {
            "reference": "urn:uuid:5a61bbfb-cebd-46b7-be0c-77f791b7edce"
          },
          {
            "reference": "urn:uuid:a721829b-843a-459a-bf12-197d74aeedd5"
          },
          {
            "reference": "urn:uuid:2125c513-bbce-44fa-b00f-9ac11a2e2317"
          },
          {
            "reference": "urn:uuid:51b25462-1ff2-4876-9938-b589ccb762a0"
          }
        ],
        "status": "registered",
        "code": {
          "coding": [
            {
              "code": "11502-2",
              "system": "http://loinc.org",
              "display": "Laboratory report"
            }
          ]
        },
        "subject": {
          "reference": "urn:uuid:d0a25775-4b62-468b-a4af-9328a487a3bb",
          "display": "Hortense Gallet"
        }
      }
    },
    {
      "fullUrl": "urn:uuid:d0a25775-4b62-468b-a4af-9328a487a3bb",
      "resource": {
        "resourceType": "Patient",
        "id": "d0a25775-4b62-468b-a4af-9328a487a3bb",
        "meta": {
          "security": [
            {
              "system": "http://terminology.hl7.org/CodeSystem/v3-ActReason",
              "code": "HTEST"
            },
            {
              "system": "http://terminology.hl7.org/CodeSystem/v3-ActReason",
              "code": "TRAIN"
            }
          ],
          "tag": [
            {
              "system": "https://synderai.net/fhir/CodeSystem/tags",
              "code": "synthetic",
              "display": "SYNDERAI Synthetic data"
            }
          ],
          "profile": [
            "http://hl7.eu/fhir/base/StructureDefinition/patient-eu-core"
          ]
        },
        "identifier": [
          {
            "type": {
              "coding": [
                {
                  "code": "PT",
                  "system": "http://terminology.hl7.org/CodeSystem/v2-0203"
                }
              ]
            },
            "system": "http://ec.europa.eu/identifier/eci",
            "value": "7727-126450-7"
          },
          {
            "type": {
              "coding": [
                {
                  "code": "MR",
                  "system": "http://terminology.hl7.org/CodeSystem/v2-0203"
                }
              ]
            },
            "system": "http://local.setting.eu/identifier",
            "value": "7f40b956-404d-dd5b-92ca-442ee97c8277"
          }
        ],
        "name": [
          {
            "family": "Gallet"
          },
          {
            "given": [
              "Hortense"
            ]
          },
          {
            "text": "Hortense Gallet"
          }
        ],
        "address": [
          {
            "line": [
              "98, boulevard de Faure"
            ],
            "use": "home",
            "type": "physical",
            "postalCode": "03210",
            "city": "Besson",
            "country": "France"
          }
        ],
        "telecom": [
          {
            "system": "phone",
            "value": "03 26 87 89 04"
          }
        ],
        "extension": [
          {
            "url": "http://hl7.org/fhir/StructureDefinition/patient-nationality",
            "valueCodeableConcept": {
              "coding": [
                {
                  "code": "FR",
                  "system": "http://hl7.org/fhir/ValueSet/country"
                }
              ]
            }
          }
        ],
        "text": {
          "status": "generated",
          "div": "<div xmlns=\"http://www.w3.org/1999/xhtml\"><table class=\"hl7__ips\"><tr><td>Hortense Gallet</td><td>female</td><td>14-Feb-1967</td></tr></table></div>"
        },
        "gender": "female",
        "birthDate": "1967-02-14"
      }
    },
    {
      "fullUrl": "urn:uuid:372a60b9-c52d-4a8b-a881-a0d5adc9380c",
      "resource": {
        "resourceType": "ServiceRequest",
        "id": "372a60b9-c52d-4a8b-a881-a0d5adc9380c",
        "meta": {
          "profile": [
            "http://hl7.eu/fhir/laboratory/StructureDefinition/ServiceRequest-eu-lab"
          ]
        },
        "identifier": [
          {
            "system": "http://example.org",
            "value": "1e379a7f-cefa-4a4a-b4e3-6d98bb277eea"
          }
        ],
        "specimen": [
          {
            "reference": "urn:uuid:5ec9a15f-cb98-49ee-a3fe-cf9922a4b657"
          },
          {
            "reference": "urn:uuid:f744b3b5-5322-4411-9c2c-ccdcdb0c07d9"
          }
        ],
        "reasonCode": [
          {
            "coding": [
              {
                "code": "431856006",
                "system": "http://snomed.info/sct",
                "display": "Chronic kidney disease stage 2"
              }
            ]
          },
          {
            "coding": [
              {
                "code": "90781000119102",
                "system": "http://snomed.info/sct",
                "display": "Microalbuminuria due to type 2 diabetes mellitus"
              }
            ]
          },
          {
            "coding": [
              {
                "code": "127013003",
                "system": "http://snomed.info/sct",
                "display": "Disorder of kidney due to diabetes mellitus"
              }
            ]
          },
          {
            "coding": [
              {
                "code": "431855005",
                "system": "http://snomed.info/sct",
                "display": "Chronic kidney disease stage 1"
              }
            ]
          },
          {
            "coding": [
              {
                "code": "59621000",
                "system": "http://snomed.info/sct",
                "display": "Essential hypertension"
              }
            ]
          }
        ],
        "status": "active",
        "intent": "order",
        "code": {
          "coding": [
            {
              "code": "108252007",
              "system": "http://snomed.info/sct",
              "display": "Laboratory procedure"
            }
          ]
        },
        "subject": {
          "reference": "urn:uuid:d0a25775-4b62-468b-a4af-9328a487a3bb",
          "display": "Hortense Gallet"
        },
        "requester": {
          "reference": "urn:uuid:9d509de2-518e-4876-992b-270201097f8c"
        }
      }
    },
    {
      "fullUrl": "urn:uuid:9d509de2-518e-4876-992b-270201097f8c",
      "resource": {
        "resourceType": "PractitionerRole",
        "id": "9d509de2-518e-4876-992b-270201097f8c",
        "meta": {
          "profile": [
            "http://hl7.eu/fhir/base/StructureDefinition/practitionerRole-eu"
          ]
        },
        "text": {
          "status": "generated",
          "div": "<div xmlns=\"http://www.w3.org/1999/xhtml\">Provider Role Id: 9d509de2-518e-4876-992b-270201097f8c</div>"
        },
        "organization": {
          "reference": "urn:uuid:2b064dac-4615-4848-886d-13b3ecf7606f"
        }
      }
    },
    {
      "fullUrl": "urn:uuid:2b064dac-4615-4848-886d-13b3ecf7606f",
      "resource": {
        "resourceType": "Organization",
        "id": "2b064dac-4615-4848-886d-13b3ecf7606f",
        "meta": {
          "profile": [
            "http://hl7.eu/fhir/base/StructureDefinition/organization-eu"
          ]
        },
        "identifier": [
          {
            "assigner": {
              "display": "HL7 Europe"
            },
            "system": "urn:oid:2.16.840.1.113883.2.51.999",
            "value": "1866194b-48de-4209-832d-f60e64d7a38b"
          }
        ],
        "address": [
          {
            "line": [
              "Rue Jean Jaurès 140"
            ],
            "city": "Vichy",
            "postalCode": "03200",
            "country": "France"
          }
        ],
        "text": {
          "status": "generated",
          "div": "<div xmlns=\"http://www.w3.org/1999/xhtml\">Provider Organization: Centre La Chrysalide</div>"
        },
        "name": "Centre La Chrysalide"
      }
    },
    {
      "fullUrl": "urn:uuid:5ec9a15f-cb98-49ee-a3fe-cf9922a4b657",
      "resource": {
        "resourceType": "Specimen",
        "id": "5ec9a15f-cb98-49ee-a3fe-cf9922a4b657",
        "meta": {
          "profile": [
            "http://hl7.eu/fhir/laboratory/StructureDefinition/Specimen-eu-lab"
          ]
        },
        "collection": {
          "collectedDateTime": "2023-04-04"
        },
        "text": {
          "status": "generated",
          "div": "<div xmlns=\"http://www.w3.org/1999/xhtml\"><table class=\"hl7__eu__lab__report\"><tr><th>Specimen</th><th>Collection Date</th></tr><tr><td>Acellular blood (serum or plasma) specimen</td><td><span class=\"nb\">04-Apr-2023</span></td></tr></table></div>"
        },
        "type": {
          "coding": [
            {
              "code": "122592007",
              "system": "http://snomed.info/sct",
              "display": "Acellular blood (serum or plasma) specimen"
            }
          ]
        }
      }
    },
    {
      "fullUrl": "urn:uuid:f744b3b5-5322-4411-9c2c-ccdcdb0c07d9",
      "resource": {
        "resourceType": "Specimen",
        "id": "f744b3b5-5322-4411-9c2c-ccdcdb0c07d9",
        "meta": {
          "profile": [
            "http://hl7.eu/fhir/laboratory/StructureDefinition/Specimen-eu-lab"
          ]
        },
        "collection": {
          "collectedDateTime": "2023-04-04"
        },
        "text": {
          "status": "generated",
          "div": "<div xmlns=\"http://www.w3.org/1999/xhtml\"><table class=\"hl7__eu__lab__report\"><tr><th>Specimen</th><th>Collection Date</th></tr><tr><td>Urine specimen</td><td><span class=\"nb\">04-Apr-2023</span></td></tr></table></div>"
        },
        "type": {
          "coding": [
            {
              "code": "122575003",
              "system": "http://snomed.info/sct",
              "display": "Urine specimen"
            }
          ]
        }
      }
    },
    {
      "fullUrl": "urn:uuid:456f3035-7693-4994-b7b7-1d3185d16d4f",
      "resource": {
        "resourceType": "Observation",
        "id": "456f3035-7693-4994-b7b7-1d3185d16d4f",
        "meta": {
          "profile": [
            "http://hl7.eu/fhir/laboratory/StructureDefinition/Observation-resultslab-eu-lab"
          ]
        },
        "performer": [
          {
            "display": "The Central European Lab"
          }
        ],
        "category": [
          {
            "coding": [
              {
                "system": "http://terminology.hl7.org/CodeSystem/observation-category",
                "code": "laboratory"
              }
            ]
          }
        ],
        "code": {
          "coding": [
            {
              "code": "2345-7",
              "system": "http://loinc.org",
              "display": "Glucose [Mass/volume] in Serum or Plasma"
            }
          ],
          "text": "Glucose [Mass/volume] in Serum or Plasma"
        },
        "valueQuantity": {
          "system": "http://unitsofmeasure.org",
          "value": 69,
          "unit": "mg/dL",
          "code": "mg/dL"
        },
        "referenceRange": [
          {
            "low": {
              "value": 70,
              "code": "mg/dL",
              "system": "http://unitsofmeasure.org"
            }
          },
          {
            "high": {
              "value": 139,
              "code": "mg/dL",
              "system": "http://unitsofmeasure.org"
            }
          }
        ],
        "interpretation": [
          {
            "coding": [
              {
                "code": "L",
                "system": "http://terminology.hl7.org/CodeSystem/v3-ObservationInterpretation",
                "display": "Low"
              }
            ]
          }
        ],
        "text": {
          "status": "generated",
          "div": "<div xmlns=\"http://www.w3.org/1999/xhtml\"><table class=\"hl7__eu__lab__report\"><tr><th>Test</th><th>04-Apr-2023</th><th>Reference&#xA0;Range</th><th>Unit</th></tr><tr><td>Glucose [Mass/volume] in Serum or Plasma</td><td>69.0</td><td>70 - 139</td><td>L</td><td>mg/dL</td></tr></table></div>"
        },
        "status": "final",
        "subject": {
          "reference": "urn:uuid:d0a25775-4b62-468b-a4af-9328a487a3bb",
          "display": "Hortense Gallet"
        },
        "effectiveDateTime": "2023-04-04T20:16:45Z",
        "specimen": {
          "reference": "urn:uuid:5ec9a15f-cb98-49ee-a3fe-cf9922a4b657"
        }
      }
    },
    {
      "fullUrl": "urn:uuid:b7e65ca2-6129-472a-b1d1-abf93edee5a8",
      "resource": {
        "resourceType": "Observation",
        "id": "b7e65ca2-6129-472a-b1d1-abf93edee5a8",
        "meta": {
          "profile": [
            "http://hl7.eu/fhir/laboratory/StructureDefinition/Observation-resultslab-eu-lab"
          ]
        },
        "performer": [
          {
            "display": "The Central European Lab"
          }
        ],
        "category": [
          {
            "coding": [
              {
                "system": "http://terminology.hl7.org/CodeSystem/observation-category",
                "code": "laboratory"
              }
            ]
          }
        ],
        "code": {
          "coding": [
            {
              "code": "3094-0",
              "system": "http://loinc.org",
              "display": "Urea nitrogen [Mass/volume] in Serum or Plasma"
            }
          ],
          "text": "Urea nitrogen [Mass/volume] in Serum or Plasma"
        },
        "valueQuantity": {
          "system": "http://unitsofmeasure.org",
          "value": 18.2,
          "unit": "mg/dL",
          "code": "mg/dL"
        },
        "referenceRange": [
          {
            "low": {
              "value": 7,
              "code": "mg/dL",
              "system": "http://unitsofmeasure.org"
            }
          },
          {
            "high": {
              "value": 20,
              "code": "mg/dL",
              "system": "http://unitsofmeasure.org"
            }
          }
        ],
        "text": {
          "status": "generated",
          "div": "<div xmlns=\"http://www.w3.org/1999/xhtml\"><table class=\"hl7__eu__lab__report\"><tr><th>Test</th><th>04-Apr-2023</th><th>Reference&#xA0;Range</th><th>Unit</th></tr><tr><td>Urea nitrogen [Mass/volume] in Serum or Plasma</td><td>18.2</td><td>7 - 20</td><td></td><td>mg/dL</td></tr></table></div>"
        },
        "status": "final",
        "subject": {
          "reference": "urn:uuid:d0a25775-4b62-468b-a4af-9328a487a3bb",
          "display": "Hortense Gallet"
        },
        "effectiveDateTime": "2023-04-04T20:16:45Z",
        "specimen": {
          "reference": "urn:uuid:5ec9a15f-cb98-49ee-a3fe-cf9922a4b657"
        }
      }
    },
    {
      "fullUrl": "urn:uuid:4ceffff4-e2a7-4af6-8b08-4195f4d83b64",
      "resource": {
        "resourceType": "Observation",
        "id": "4ceffff4-e2a7-4af6-8b08-4195f4d83b64",
        "meta": {
          "profile": [
            "http://hl7.eu/fhir/laboratory/StructureDefinition/Observation-resultslab-eu-lab"
          ]
        },
        "performer": [
          {
            "display": "The Central European Lab"
          }
        ],
        "category": [
          {
            "coding": [
              {
                "system": "http://terminology.hl7.org/CodeSystem/observation-category",
                "code": "laboratory"
              }
            ]
          }
        ],
        "code": {
          "coding": [
            {
              "code": "2160-0",
              "system": "http://loinc.org",
              "display": "Creatinine [Mass/volume] in Serum or Plasma"
            }
          ],
          "text": "Creatinine [Mass/volume] in Serum or Plasma"
        },
        "valueQuantity": {
          "system": "http://unitsofmeasure.org",
          "value": 1.6,
          "unit": "mg/dL",
          "code": "mg/dL"
        },
        "referenceRange": [
          {
            "low": {
              "value": 0.6,
              "code": "mg/dL",
              "system": "http://unitsofmeasure.org"
            }
          },
          {
            "high": {
              "value": 1.1,
              "code": "mg/dL",
              "system": "http://unitsofmeasure.org"
            }
          }
        ],
        "interpretation": [
          {
            "coding": [
              {
                "code": "H",
                "system": "http://terminology.hl7.org/CodeSystem/v3-ObservationInterpretation",
                "display": "High"
              }
            ]
          }
        ],
        "text": {
          "status": "generated",
          "div": "<div xmlns=\"http://www.w3.org/1999/xhtml\"><table class=\"hl7__eu__lab__report\"><tr><th>Test</th><th>04-Apr-2023</th><th>Reference&#xA0;Range</th><th>Unit</th></tr><tr><td>Creatinine [Mass/volume] in Serum or Plasma</td><td>1.6</td><td>0.6 - 1.1</td><td>H</td><td>mg/dL</td></tr></table></div>"
        },
        "status": "final",
        "subject": {
          "reference": "urn:uuid:d0a25775-4b62-468b-a4af-9328a487a3bb",
          "display": "Hortense Gallet"
        },
        "effectiveDateTime": "2023-04-04T20:16:45Z",
        "specimen": {
          "reference": "urn:uuid:5ec9a15f-cb98-49ee-a3fe-cf9922a4b657"
        }
      }
    },
    {
      "fullUrl": "urn:uuid:c57de1fd-199f-4c97-8758-1b37d81c05da",
      "resource": {
        "resourceType": "Observation",
        "id": "c57de1fd-199f-4c97-8758-1b37d81c05da",
        "meta": {
          "profile": [
            "http://hl7.eu/fhir/laboratory/StructureDefinition/Observation-resultslab-eu-lab"
          ]
        },
        "performer": [
          {
            "display": "The Central European Lab"
          }
        ],
        "category": [
          {
            "coding": [
              {
                "system": "http://terminology.hl7.org/CodeSystem/observation-category",
                "code": "laboratory"
              }
            ]
          }
        ],
        "code": {
          "coding": [
            {
              "code": "17861-6",
              "system": "http://loinc.org",
              "display": "Calcium [Mass/volume] in Serum or Plasma"
            }
          ],
          "text": "Calcium [Mass/volume] in Serum or Plasma"
        },
        "valueQuantity": {
          "system": "http://unitsofmeasure.org",
          "value": 9.5,
          "unit": "mg/dL",
          "code": "mg/dL"
        },
        "referenceRange": [
          {
            "low": {
              "value": 8.5,
              "code": "mg/dL",
              "system": "http://unitsofmeasure.org"
            }
          },
          {
            "high": {
              "value": 10.4,
              "code": "mg/dL",
              "system": "http://unitsofmeasure.org"
            }
          }
        ],
        "text": {
          "status": "generated",
          "div": "<div xmlns=\"http://www.w3.org/1999/xhtml\"><table class=\"hl7__eu__lab__report\"><tr><th>Test</th><th>04-Apr-2023</th><th>Reference&#xA0;Range</th><th>Unit</th></tr><tr><td>Calcium [Mass/volume] in Serum or Plasma</td><td>9.5</td><td>8.5 - 10.4</td><td></td><td>mg/dL</td></tr></table></div>"
        },
        "status": "final",
        "subject": {
          "reference": "urn:uuid:d0a25775-4b62-468b-a4af-9328a487a3bb",
          "display": "Hortense Gallet"
        },
        "effectiveDateTime": "2023-04-04T20:16:45Z",
        "specimen": {
          "reference": "urn:uuid:5ec9a15f-cb98-49ee-a3fe-cf9922a4b657"
        }
      }
    },
    {
      "fullUrl": "urn:uuid:ddbc869f-85f6-4150-b190-ae8d2af17f9b",
      "resource": {
        "resourceType": "Observation",
        "id": "ddbc869f-85f6-4150-b190-ae8d2af17f9b",
        "meta": {
          "profile": [
            "http://hl7.eu/fhir/laboratory/StructureDefinition/Observation-resultslab-eu-lab"
          ]
        },
        "performer": [
          {
            "display": "The Central European Lab"
          }
        ],
        "category": [
          {
            "coding": [
              {
                "system": "http://terminology.hl7.org/CodeSystem/observation-category",
                "code": "laboratory"
              }
            ]
          }
        ],
        "code": {
          "coding": [
            {
              "code": "2951-2",
              "system": "http://loinc.org",
              "display": "Sodium [Moles/volume] in Serum or Plasma"
            }
          ],
          "text": "Sodium [Moles/volume] in Serum or Plasma"
        },
        "valueQuantity": {
          "system": "http://unitsofmeasure.org",
          "value": 139.5,
          "unit": "mmol/L",
          "code": "mmol/L"
        },
        "referenceRange": [
          {
            "low": {
              "value": 135,
              "code": "mmol/L",
              "system": "http://unitsofmeasure.org"
            }
          },
          {
            "high": {
              "value": 145,
              "code": "mmol/L",
              "system": "http://unitsofmeasure.org"
            }
          }
        ],
        "text": {
          "status": "generated",
          "div": "<div xmlns=\"http://www.w3.org/1999/xhtml\"><table class=\"hl7__eu__lab__report\"><tr><th>Test</th><th>04-Apr-2023</th><th>Reference&#xA0;Range</th><th>Unit</th></tr><tr><td>Sodium [Moles/volume] in Serum or Plasma</td><td>139.5</td><td>135 - 145</td><td></td><td>mmol/L</td></tr></table></div>"
        },
        "status": "final",
        "subject": {
          "reference": "urn:uuid:d0a25775-4b62-468b-a4af-9328a487a3bb",
          "display": "Hortense Gallet"
        },
        "effectiveDateTime": "2023-04-04T20:16:45Z",
        "specimen": {
          "reference": "urn:uuid:5ec9a15f-cb98-49ee-a3fe-cf9922a4b657"
        }
      }
    },
    {
      "fullUrl": "urn:uuid:355afc6f-cbd7-4675-90c0-a1f59df2f024",
      "resource": {
        "resourceType": "Observation",
        "id": "355afc6f-cbd7-4675-90c0-a1f59df2f024",
        "meta": {
          "profile": [
            "http://hl7.eu/fhir/laboratory/StructureDefinition/Observation-resultslab-eu-lab"
          ]
        },
        "performer": [
          {
            "display": "The Central European Lab"
          }
        ],
        "category": [
          {
            "coding": [
              {
                "system": "http://terminology.hl7.org/CodeSystem/observation-category",
                "code": "laboratory"
              }
            ]
          }
        ],
        "code": {
          "coding": [
            {
              "code": "2823-3",
              "system": "http://loinc.org",
              "display": "Potassium [Moles/volume] in Serum or Plasma"
            }
          ],
          "text": "Potassium [Moles/volume] in Serum or Plasma"
        },
        "valueQuantity": {
          "system": "http://unitsofmeasure.org",
          "value": 4.2,
          "unit": "mmol/L",
          "code": "mmol/L"
        },
        "referenceRange": [
          {
            "low": {
              "value": 3.5,
              "code": "mmol/L",
              "system": "http://unitsofmeasure.org"
            }
          },
          {
            "high": {
              "value": 5.1,
              "code": "mmol/L",
              "system": "http://unitsofmeasure.org"
            }
          }
        ],
        "text": {
          "status": "generated",
          "div": "<div xmlns=\"http://www.w3.org/1999/xhtml\"><table class=\"hl7__eu__lab__report\"><tr><th>Test</th><th>04-Apr-2023</th><th>Reference&#xA0;Range</th><th>Unit</th></tr><tr><td>Potassium [Moles/volume] in Serum or Plasma</td><td>4.2</td><td>3.5 - 5.1</td><td></td><td>mmol/L</td></tr></table></div>"
        },
        "status": "final",
        "subject": {
          "reference": "urn:uuid:d0a25775-4b62-468b-a4af-9328a487a3bb",
          "display": "Hortense Gallet"
        },
        "effectiveDateTime": "2023-04-04T20:16:45Z",
        "specimen": {
          "reference": "urn:uuid:5ec9a15f-cb98-49ee-a3fe-cf9922a4b657"
        }
      }
    },
    {
      "fullUrl": "urn:uuid:e590c4a1-cd05-4947-9ca7-3c545f9930f2",
      "resource": {
        "resourceType": "Observation",
        "id": "e590c4a1-cd05-4947-9ca7-3c545f9930f2",
        "meta": {
          "profile": [
            "http://hl7.eu/fhir/laboratory/StructureDefinition/Observation-resultslab-eu-lab"
          ]
        },
        "performer": [
          {
            "display": "The Central European Lab"
          }
        ],
        "category": [
          {
            "coding": [
              {
                "system": "http://terminology.hl7.org/CodeSystem/observation-category",
                "code": "laboratory"
              }
            ]
          }
        ],
        "code": {
          "coding": [
            {
              "code": "2075-0",
              "system": "http://loinc.org",
              "display": "Chloride [Moles/volume] in Serum or Plasma"
            }
          ],
          "text": "Chloride [Moles/volume] in Serum or Plasma"
        },
        "valueQuantity": {
          "system": "http://unitsofmeasure.org",
          "value": 106.8,
          "unit": "mmol/L",
          "code": "mmol/L"
        },
        "referenceRange": [
          {
            "low": {
              "value": 98,
              "code": "mmol/L",
              "system": "http://unitsofmeasure.org"
            }
          },
          {
            "high": {
              "value": 110,
              "code": "mmol/L",
              "system": "http://unitsofmeasure.org"
            }
          }
        ],
        "text": {
          "status": "generated",
          "div": "<div xmlns=\"http://www.w3.org/1999/xhtml\"><table class=\"hl7__eu__lab__report\"><tr><th>Test</th><th>04-Apr-2023</th><th>Reference&#xA0;Range</th><th>Unit</th></tr><tr><td>Chloride [Moles/volume] in Serum or Plasma</td><td>106.8</td><td>98 - 110</td><td></td><td>mmol/L</td></tr></table></div>"
        },
        "status": "final",
        "subject": {
          "reference": "urn:uuid:d0a25775-4b62-468b-a4af-9328a487a3bb",
          "display": "Hortense Gallet"
        },
        "effectiveDateTime": "2023-04-04T20:16:45Z",
        "specimen": {
          "reference": "urn:uuid:5ec9a15f-cb98-49ee-a3fe-cf9922a4b657"
        }
      }
    },
    {
      "fullUrl": "urn:uuid:216d177c-b695-40ee-80c1-b92b9dcfef64",
      "resource": {
        "resourceType": "Observation",
        "id": "216d177c-b695-40ee-80c1-b92b9dcfef64",
        "meta": {
          "profile": [
            "http://hl7.eu/fhir/laboratory/StructureDefinition/Observation-resultslab-eu-lab"
          ]
        },
        "performer": [
          {
            "display": "The Central European Lab"
          }
        ],
        "category": [
          {
            "coding": [
              {
                "system": "http://terminology.hl7.org/CodeSystem/observation-category",
                "code": "laboratory"
              }
            ]
          }
        ],
        "code": {
          "coding": [
            {
              "code": "2028-9",
              "system": "http://loinc.org",
              "display": "Carbon dioxide, total [Moles/volume] in Serum or Plasma"
            }
          ],
          "text": "Carbon dioxide, total [Moles/volume] in Serum or Plasma"
        },
        "valueQuantity": {
          "system": "http://unitsofmeasure.org",
          "value": 21.1,
          "unit": "mmol/L",
          "code": "mmol/L"
        },
        "referenceRange": [
          {
            "low": {
              "value": 22,
              "code": "mmol/L",
              "system": "http://unitsofmeasure.org"
            }
          },
          {
            "high": {
              "value": 32,
              "code": "mmol/L",
              "system": "http://unitsofmeasure.org"
            }
          }
        ],
        "interpretation": [
          {
            "coding": [
              {
                "code": "L",
                "system": "http://terminology.hl7.org/CodeSystem/v3-ObservationInterpretation",
                "display": "Low"
              }
            ]
          }
        ],
        "text": {
          "status": "generated",
          "div": "<div xmlns=\"http://www.w3.org/1999/xhtml\"><table class=\"hl7__eu__lab__report\"><tr><th>Test</th><th>04-Apr-2023</th><th>Reference&#xA0;Range</th><th>Unit</th></tr><tr><td>Carbon dioxide, total [Moles/volume] in Serum or Plasma</td><td>21.1</td><td>22 - 32</td><td>L</td><td>mmol/L</td></tr></table></div>"
        },
        "status": "final",
        "subject": {
          "reference": "urn:uuid:d0a25775-4b62-468b-a4af-9328a487a3bb",
          "display": "Hortense Gallet"
        },
        "effectiveDateTime": "2023-04-04T20:16:45Z",
        "specimen": {
          "reference": "urn:uuid:5ec9a15f-cb98-49ee-a3fe-cf9922a4b657"
        }
      }
    },
    {
      "fullUrl": "urn:uuid:076acf9e-1833-4bd8-9cc7-73eb1469bced",
      "resource": {
        "resourceType": "Observation",
        "id": "076acf9e-1833-4bd8-9cc7-73eb1469bced",
        "meta": {
          "profile": [
            "http://hl7.eu/fhir/laboratory/StructureDefinition/Observation-resultslab-eu-lab"
          ]
        },
        "performer": [
          {
            "display": "The Central European Lab"
          }
        ],
        "category": [
          {
            "coding": [
              {
                "system": "http://terminology.hl7.org/CodeSystem/observation-category",
                "code": "laboratory"
              }
            ]
          }
        ],
        "code": {
          "coding": [
            {
              "code": "5767-9",
              "system": "http://loinc.org",
              "display": "Appearance of Urine"
            }
          ],
          "text": "Appearance of Urine"
        },
        "text": {
          "status": "generated",
          "div": "<div xmlns=\"http://www.w3.org/1999/xhtml\"><table class=\"hl7__eu__lab__report\"><tr><th>Test</th><th>04-Apr-2023</th><th>Reference&#xA0;Range</th><th>Unit</th></tr><tr><td>Appearance of Urine</td></tr></table></div>"
        },
        "status": "final",
        "subject": {
          "reference": "urn:uuid:d0a25775-4b62-468b-a4af-9328a487a3bb",
          "display": "Hortense Gallet"
        },
        "effectiveDateTime": "2023-04-04T20:16:45Z",
        "specimen": {
          "reference": "urn:uuid:f744b3b5-5322-4411-9c2c-ccdcdb0c07d9"
        }
      }
    },
    {
      "fullUrl": "urn:uuid:dc69a5bf-ffe4-4ca6-a3dd-72a74441e0b9",
      "resource": {
        "resourceType": "Observation",
        "id": "dc69a5bf-ffe4-4ca6-a3dd-72a74441e0b9",
        "meta": {
          "profile": [
            "http://hl7.eu/fhir/laboratory/StructureDefinition/Observation-resultslab-eu-lab"
          ]
        },
        "performer": [
          {
            "display": "The Central European Lab"
          }
        ],
        "category": [
          {
            "coding": [
              {
                "system": "http://terminology.hl7.org/CodeSystem/observation-category",
                "code": "laboratory"
              }
            ]
          }
        ],
        "code": {
          "coding": [
            {
              "code": "34533-0",
              "system": "http://loinc.org",
              "display": "Odor of Urine"
            }
          ],
          "text": "Odor of Urine"
        },
        "text": {
          "status": "generated",
          "div": "<div xmlns=\"http://www.w3.org/1999/xhtml\"><table class=\"hl7__eu__lab__report\"><tr><th>Test</th><th>04-Apr-2023</th><th>Reference&#xA0;Range</th><th>Unit</th></tr><tr><td>Odor of Urine</td></tr></table></div>"
        },
        "status": "final",
        "subject": {
          "reference": "urn:uuid:d0a25775-4b62-468b-a4af-9328a487a3bb",
          "display": "Hortense Gallet"
        },
        "effectiveDateTime": "2023-04-04T20:16:45Z",
        "specimen": {
          "reference": "urn:uuid:f744b3b5-5322-4411-9c2c-ccdcdb0c07d9"
        }
      }
    },
    {
      "fullUrl": "urn:uuid:f3bfd66c-33bf-4d04-a5bc-f6c0a7fa59dc",
      "resource": {
        "resourceType": "Observation",
        "id": "f3bfd66c-33bf-4d04-a5bc-f6c0a7fa59dc",
        "meta": {
          "profile": [
            "http://hl7.eu/fhir/laboratory/StructureDefinition/Observation-resultslab-eu-lab"
          ]
        },
        "performer": [
          {
            "display": "The Central European Lab"
          }
        ],
        "category": [
          {
            "coding": [
              {
                "system": "http://terminology.hl7.org/CodeSystem/observation-category",
                "code": "laboratory"
              }
            ]
          }
        ],
        "code": {
          "coding": [
            {
              "code": "32167-9",
              "system": "http://loinc.org",
              "display": "Clarity of Urine"
            }
          ],
          "text": "Clarity of Urine"
        },
        "text": {
          "status": "generated",
          "div": "<div xmlns=\"http://www.w3.org/1999/xhtml\"><table class=\"hl7__eu__lab__report\"><tr><th>Test</th><th>04-Apr-2023</th><th>Reference&#xA0;Range</th><th>Unit</th></tr><tr><td>Clarity of Urine</td></tr></table></div>"
        },
        "status": "final",
        "subject": {
          "reference": "urn:uuid:d0a25775-4b62-468b-a4af-9328a487a3bb",
          "display": "Hortense Gallet"
        },
        "effectiveDateTime": "2023-04-04T20:16:45Z",
        "specimen": {
          "reference": "urn:uuid:f744b3b5-5322-4411-9c2c-ccdcdb0c07d9"
        }
      }
    },
    {
      "fullUrl": "urn:uuid:a4601f3f-0e29-454c-bcf1-7cb638b0f991",
      "resource": {
        "resourceType": "Observation",
        "id": "a4601f3f-0e29-454c-bcf1-7cb638b0f991",
        "meta": {
          "profile": [
            "http://hl7.eu/fhir/laboratory/StructureDefinition/Observation-resultslab-eu-lab"
          ]
        },
        "performer": [
          {
            "display": "The Central European Lab"
          }
        ],
        "category": [
          {
            "coding": [
              {
                "system": "http://terminology.hl7.org/CodeSystem/observation-category",
                "code": "laboratory"
              }
            ]
          }
        ],
        "code": {
          "coding": [
            {
              "code": "5778-6",
              "system": "http://loinc.org",
              "display": "Color of Urine"
            }
          ],
          "text": "Color of Urine"
        },
        "text": {
          "status": "generated",
          "div": "<div xmlns=\"http://www.w3.org/1999/xhtml\"><table class=\"hl7__eu__lab__report\"><tr><th>Test</th><th>04-Apr-2023</th><th>Reference&#xA0;Range</th><th>Unit</th></tr><tr><td>Color of Urine</td></tr></table></div>"
        },
        "status": "final",
        "subject": {
          "reference": "urn:uuid:d0a25775-4b62-468b-a4af-9328a487a3bb",
          "display": "Hortense Gallet"
        },
        "effectiveDateTime": "2023-04-04T20:16:45Z",
        "specimen": {
          "reference": "urn:uuid:f744b3b5-5322-4411-9c2c-ccdcdb0c07d9"
        }
      }
    },
    {
      "fullUrl": "urn:uuid:ea4532b9-dffa-4cfc-bf4c-d5ceca1b047f",
      "resource": {
        "resourceType": "Observation",
        "id": "ea4532b9-dffa-4cfc-bf4c-d5ceca1b047f",
        "meta": {
          "profile": [
            "http://hl7.eu/fhir/laboratory/StructureDefinition/Observation-resultslab-eu-lab"
          ]
        },
        "performer": [
          {
            "display": "The Central European Lab"
          }
        ],
        "category": [
          {
            "coding": [
              {
                "system": "http://terminology.hl7.org/CodeSystem/observation-category",
                "code": "laboratory"
              }
            ]
          }
        ],
        "code": {
          "coding": [
            {
              "code": "5792-7",
              "system": "http://loinc.org",
              "display": "Glucose [Mass/volume] in Urine by Test strip"
            }
          ],
          "text": "Glucose [Mass/volume] in Urine by Test strip"
        },
        "valueQuantity": {
          "system": "http://unitsofmeasure.org",
          "value": 1.8,
          "unit": "mg/dL",
          "code": "mg/dL"
        },
        "referenceRange": [
          {
            "low": {
              "value": 0,
              "code": "mg/dL",
              "system": "http://unitsofmeasure.org"
            }
          },
          {
            "high": {
              "value": 0,
              "code": "mg/dL",
              "system": "http://unitsofmeasure.org"
            }
          }
        ],
        "interpretation": [
          {
            "coding": [
              {
                "code": "H",
                "system": "http://terminology.hl7.org/CodeSystem/v3-ObservationInterpretation",
                "display": "High"
              }
            ]
          }
        ],
        "text": {
          "status": "generated",
          "div": "<div xmlns=\"http://www.w3.org/1999/xhtml\"><table class=\"hl7__eu__lab__report\"><tr><th>Test</th><th>04-Apr-2023</th><th>Reference&#xA0;Range</th><th>Unit</th></tr><tr><td>Glucose [Mass/volume] in Urine by Test strip</td><td>1.8</td><td>0 - 0</td><td>H</td><td>mg/dL</td></tr></table></div>"
        },
        "status": "final",
        "subject": {
          "reference": "urn:uuid:d0a25775-4b62-468b-a4af-9328a487a3bb",
          "display": "Hortense Gallet"
        },
        "effectiveDateTime": "2023-04-04T20:16:45Z",
        "specimen": {
          "reference": "urn:uuid:f744b3b5-5322-4411-9c2c-ccdcdb0c07d9"
        }
      }
    },
    {
      "fullUrl": "urn:uuid:caf010a6-1ca9-42c5-a716-87894d67a3b2",
      "resource": {
        "resourceType": "Observation",
        "id": "caf010a6-1ca9-42c5-a716-87894d67a3b2",
        "meta": {
          "profile": [
            "http://hl7.eu/fhir/laboratory/StructureDefinition/Observation-resultslab-eu-lab"
          ]
        },
        "performer": [
          {
            "display": "The Central European Lab"
          }
        ],
        "category": [
          {
            "coding": [
              {
                "system": "http://terminology.hl7.org/CodeSystem/observation-category",
                "code": "laboratory"
              }
            ]
          }
        ],
        "code": {
          "coding": [
            {
              "code": "25428-4",
              "system": "http://loinc.org",
              "display": "Glucose [Presence] in Urine by Test strip"
            }
          ],
          "text": "Glucose [Presence] in Urine by Test strip"
        },
        "text": {
          "status": "generated",
          "div": "<div xmlns=\"http://www.w3.org/1999/xhtml\"><table class=\"hl7__eu__lab__report\"><tr><th>Test</th><th>04-Apr-2023</th><th>Reference&#xA0;Range</th><th>Unit</th></tr><tr><td>Glucose [Presence] in Urine by Test strip</td></tr></table></div>"
        },
        "status": "final",
        "subject": {
          "reference": "urn:uuid:d0a25775-4b62-468b-a4af-9328a487a3bb",
          "display": "Hortense Gallet"
        },
        "effectiveDateTime": "2023-04-04T20:16:45Z",
        "specimen": {
          "reference": "urn:uuid:f744b3b5-5322-4411-9c2c-ccdcdb0c07d9"
        }
      }
    },
    {
      "fullUrl": "urn:uuid:7622f34f-6a40-49a6-8540-ad16faeb1474",
      "resource": {
        "resourceType": "Observation",
        "id": "7622f34f-6a40-49a6-8540-ad16faeb1474",
        "meta": {
          "profile": [
            "http://hl7.eu/fhir/laboratory/StructureDefinition/Observation-resultslab-eu-lab"
          ]
        },
        "performer": [
          {
            "display": "The Central European Lab"
          }
        ],
        "category": [
          {
            "coding": [
              {
                "system": "http://terminology.hl7.org/CodeSystem/observation-category",
                "code": "laboratory"
              }
            ]
          }
        ],
        "code": {
          "coding": [
            {
              "code": "20505-4",
              "system": "http://loinc.org",
              "display": "Bilirubin.total [Mass/volume] in Urine by Test strip"
            }
          ],
          "text": "Bilirubin.total [Mass/volume] in Urine by Test strip"
        },
        "valueQuantity": {
          "system": "http://unitsofmeasure.org",
          "value": 0.7,
          "unit": "mg/dL",
          "code": "mg/dL"
        },
        "referenceRange": [
          {
            "low": {
              "value": 0,
              "code": "mg/dL",
              "system": "http://unitsofmeasure.org"
            }
          },
          {
            "high": {
              "value": 1.6,
              "code": "mg/dL",
              "system": "http://unitsofmeasure.org"
            }
          }
        ],
        "text": {
          "status": "generated",
          "div": "<div xmlns=\"http://www.w3.org/1999/xhtml\"><table class=\"hl7__eu__lab__report\"><tr><th>Test</th><th>04-Apr-2023</th><th>Reference&#xA0;Range</th><th>Unit</th></tr><tr><td>Bilirubin.total [Mass/volume] in Urine by Test strip</td><td>0.7</td><td>0 - 1.6</td><td></td><td>mg/dL</td></tr></table></div>"
        },
        "status": "final",
        "subject": {
          "reference": "urn:uuid:d0a25775-4b62-468b-a4af-9328a487a3bb",
          "display": "Hortense Gallet"
        },
        "effectiveDateTime": "2023-04-04T20:16:45Z",
        "specimen": {
          "reference": "urn:uuid:f744b3b5-5322-4411-9c2c-ccdcdb0c07d9"
        }
      }
    },
    {
      "fullUrl": "urn:uuid:67d1312b-9455-46ec-a1c0-d58887775a22",
      "resource": {
        "resourceType": "Observation",
        "id": "67d1312b-9455-46ec-a1c0-d58887775a22",
        "meta": {
          "profile": [
            "http://hl7.eu/fhir/laboratory/StructureDefinition/Observation-resultslab-eu-lab"
          ]
        },
        "performer": [
          {
            "display": "The Central European Lab"
          }
        ],
        "category": [
          {
            "coding": [
              {
                "system": "http://terminology.hl7.org/CodeSystem/observation-category",
                "code": "laboratory"
              }
            ]
          }
        ],
        "code": {
          "coding": [
            {
              "code": "5770-3",
              "system": "http://loinc.org",
              "display": "Bilirubin.total [Presence] in Urine by Test strip"
            }
          ],
          "text": "Bilirubin.total [Presence] in Urine by Test strip"
        },
        "text": {
          "status": "generated",
          "div": "<div xmlns=\"http://www.w3.org/1999/xhtml\"><table class=\"hl7__eu__lab__report\"><tr><th>Test</th><th>04-Apr-2023</th><th>Reference&#xA0;Range</th><th>Unit</th></tr><tr><td>Bilirubin.total [Presence] in Urine by Test strip</td></tr></table></div>"
        },
        "status": "final",
        "subject": {
          "reference": "urn:uuid:d0a25775-4b62-468b-a4af-9328a487a3bb",
          "display": "Hortense Gallet"
        },
        "effectiveDateTime": "2023-04-04T20:16:45Z",
        "specimen": {
          "reference": "urn:uuid:f744b3b5-5322-4411-9c2c-ccdcdb0c07d9"
        }
      }
    },
    {
      "fullUrl": "urn:uuid:25e33ea0-b9e4-43d6-85b3-97cdf5d415c0",
      "resource": {
        "resourceType": "Observation",
        "id": "25e33ea0-b9e4-43d6-85b3-97cdf5d415c0",
        "meta": {
          "profile": [
            "http://hl7.eu/fhir/laboratory/StructureDefinition/Observation-resultslab-eu-lab"
          ]
        },
        "performer": [
          {
            "display": "The Central European Lab"
          }
        ],
        "category": [
          {
            "coding": [
              {
                "system": "http://terminology.hl7.org/CodeSystem/observation-category",
                "code": "laboratory"
              }
            ]
          }
        ],
        "code": {
          "coding": [
            {
              "code": "5797-6",
              "system": "http://loinc.org",
              "display": "Ketones [Mass/volume] in Urine by Test strip"
            }
          ],
          "text": "Ketones [Mass/volume] in Urine by Test strip"
        },
        "valueQuantity": {
          "system": "http://unitsofmeasure.org",
          "value": 5.6,
          "unit": "mg/dL",
          "code": "mg/dL"
        },
        "referenceRange": [
          {
            "low": {
              "value": 0,
              "code": "mg/dL",
              "system": "http://unitsofmeasure.org"
            }
          },
          {
            "high": {
              "value": 0.5,
              "code": "mg/dL",
              "system": "http://unitsofmeasure.org"
            }
          }
        ],
        "interpretation": [
          {
            "coding": [
              {
                "code": "H",
                "system": "http://terminology.hl7.org/CodeSystem/v3-ObservationInterpretation",
                "display": "High"
              }
            ]
          }
        ],
        "text": {
          "status": "generated",
          "div": "<div xmlns=\"http://www.w3.org/1999/xhtml\"><table class=\"hl7__eu__lab__report\"><tr><th>Test</th><th>04-Apr-2023</th><th>Reference&#xA0;Range</th><th>Unit</th></tr><tr><td>Ketones [Mass/volume] in Urine by Test strip</td><td>5.6</td><td>0 - 0.5</td><td>H</td><td>mg/dL</td></tr></table></div>"
        },
        "status": "final",
        "subject": {
          "reference": "urn:uuid:d0a25775-4b62-468b-a4af-9328a487a3bb",
          "display": "Hortense Gallet"
        },
        "effectiveDateTime": "2023-04-04T20:16:45Z",
        "specimen": {
          "reference": "urn:uuid:f744b3b5-5322-4411-9c2c-ccdcdb0c07d9"
        }
      }
    },
    {
      "fullUrl": "urn:uuid:80f388d8-b10f-4b95-906c-86b7a44f3ca4",
      "resource": {
        "resourceType": "Observation",
        "id": "80f388d8-b10f-4b95-906c-86b7a44f3ca4",
        "meta": {
          "profile": [
            "http://hl7.eu/fhir/laboratory/StructureDefinition/Observation-resultslab-eu-lab"
          ]
        },
        "performer": [
          {
            "display": "The Central European Lab"
          }
        ],
        "category": [
          {
            "coding": [
              {
                "system": "http://terminology.hl7.org/CodeSystem/observation-category",
                "code": "laboratory"
              }
            ]
          }
        ],
        "code": {
          "coding": [
            {
              "code": "2514-8",
              "system": "http://loinc.org",
              "display": "Ketones [Presence] in Urine by Test strip"
            }
          ],
          "text": "Ketones [Presence] in Urine by Test strip"
        },
        "text": {
          "status": "generated",
          "div": "<div xmlns=\"http://www.w3.org/1999/xhtml\"><table class=\"hl7__eu__lab__report\"><tr><th>Test</th><th>04-Apr-2023</th><th>Reference&#xA0;Range</th><th>Unit</th></tr><tr><td>Ketones [Presence] in Urine by Test strip</td></tr></table></div>"
        },
        "status": "final",
        "subject": {
          "reference": "urn:uuid:d0a25775-4b62-468b-a4af-9328a487a3bb",
          "display": "Hortense Gallet"
        },
        "effectiveDateTime": "2023-04-04T20:16:45Z",
        "specimen": {
          "reference": "urn:uuid:f744b3b5-5322-4411-9c2c-ccdcdb0c07d9"
        }
      }
    },
    {
      "fullUrl": "urn:uuid:81edc66c-e5b9-400e-9382-f35d8c4126bf",
      "resource": {
        "resourceType": "Observation",
        "id": "81edc66c-e5b9-400e-9382-f35d8c4126bf",
        "meta": {
          "profile": [
            "http://hl7.eu/fhir/laboratory/StructureDefinition/Observation-resultslab-eu-lab"
          ]
        },
        "performer": [
          {
            "display": "The Central European Lab"
          }
        ],
        "category": [
          {
            "coding": [
              {
                "system": "http://terminology.hl7.org/CodeSystem/observation-category",
                "code": "laboratory"
              }
            ]
          }
        ],
        "code": {
          "coding": [
            {
              "code": "5811-5",
              "system": "http://loinc.org",
              "display": "Specific gravity of Urine by Test strip"
            }
          ],
          "text": "Specific gravity of Urine by Test strip"
        },
        "valueQuantity": {
          "system": "http://unitsofmeasure.org",
          "value": 1,
          "unit": "{nominal}",
          "code": "{nominal}"
        },
        "referenceRange": [
          {
            "low": {
              "value": 1.005,
              "code": "g/mL",
              "system": "http://unitsofmeasure.org"
            }
          },
          {
            "high": {
              "value": 1.03,
              "code": "g/mL",
              "system": "http://unitsofmeasure.org"
            }
          }
        ],
        "interpretation": [
          {
            "coding": [
              {
                "code": "L",
                "system": "http://terminology.hl7.org/CodeSystem/v3-ObservationInterpretation",
                "display": "Low"
              }
            ]
          }
        ],
        "text": {
          "status": "generated",
          "div": "<div xmlns=\"http://www.w3.org/1999/xhtml\"><table class=\"hl7__eu__lab__report\"><tr><th>Test</th><th>04-Apr-2023</th><th>Reference&#xA0;Range</th><th>Unit</th></tr><tr><td>Specific gravity of Urine by Test strip</td><td>1.0</td><td>1.005 - 1.03</td><td>L</td><td>{nominal}</td></tr></table></div>"
        },
        "status": "final",
        "subject": {
          "reference": "urn:uuid:d0a25775-4b62-468b-a4af-9328a487a3bb",
          "display": "Hortense Gallet"
        },
        "effectiveDateTime": "2023-04-04T20:16:45Z",
        "specimen": {
          "reference": "urn:uuid:f744b3b5-5322-4411-9c2c-ccdcdb0c07d9"
        }
      }
    },
    {
      "fullUrl": "urn:uuid:51efc5ea-9602-4bff-817e-589b4d3f7e9f",
      "resource": {
        "resourceType": "Observation",
        "id": "51efc5ea-9602-4bff-817e-589b4d3f7e9f",
        "meta": {
          "profile": [
            "http://hl7.eu/fhir/laboratory/StructureDefinition/Observation-resultslab-eu-lab"
          ]
        },
        "performer": [
          {
            "display": "The Central European Lab"
          }
        ],
        "category": [
          {
            "coding": [
              {
                "system": "http://terminology.hl7.org/CodeSystem/observation-category",
                "code": "laboratory"
              }
            ]
          }
        ],
        "code": {
          "coding": [
            {
              "code": "5803-2",
              "system": "http://loinc.org",
              "display": "pH of Urine by Test strip"
            }
          ],
          "text": "pH of Urine by Test strip"
        },
        "valueQuantity": {
          "system": "http://unitsofmeasure.org",
          "value": 5.3,
          "unit": "pH",
          "code": "pH"
        },
        "referenceRange": [
          {
            "low": {
              "value": 4.5,
              "code": "pH",
              "system": "http://unitsofmeasure.org"
            }
          },
          {
            "high": {
              "value": 7.5,
              "code": "pH",
              "system": "http://unitsofmeasure.org"
            }
          }
        ],
        "text": {
          "status": "generated",
          "div": "<div xmlns=\"http://www.w3.org/1999/xhtml\"><table class=\"hl7__eu__lab__report\"><tr><th>Test</th><th>04-Apr-2023</th><th>Reference&#xA0;Range</th><th>Unit</th></tr><tr><td>pH of Urine by Test strip</td><td>5.3</td><td>4.5 - 7.5</td><td></td><td>pH</td></tr></table></div>"
        },
        "status": "final",
        "subject": {
          "reference": "urn:uuid:d0a25775-4b62-468b-a4af-9328a487a3bb",
          "display": "Hortense Gallet"
        },
        "effectiveDateTime": "2023-04-04T20:16:45Z",
        "specimen": {
          "reference": "urn:uuid:f744b3b5-5322-4411-9c2c-ccdcdb0c07d9"
        }
      }
    },
    {
      "fullUrl": "urn:uuid:3706c633-7d3d-4f32-9110-0d66c3926325",
      "resource": {
        "resourceType": "Observation",
        "id": "3706c633-7d3d-4f32-9110-0d66c3926325",
        "meta": {
          "profile": [
            "http://hl7.eu/fhir/laboratory/StructureDefinition/Observation-resultslab-eu-lab"
          ]
        },
        "performer": [
          {
            "display": "The Central European Lab"
          }
        ],
        "category": [
          {
            "coding": [
              {
                "system": "http://terminology.hl7.org/CodeSystem/observation-category",
                "code": "laboratory"
              }
            ]
          }
        ],
        "code": {
          "coding": [
            {
              "code": "5804-0",
              "system": "http://loinc.org",
              "display": "Protein [Mass/volume] in Urine by Test strip"
            }
          ],
          "text": "Protein [Mass/volume] in Urine by Test strip"
        },
        "valueQuantity": {
          "system": "http://unitsofmeasure.org",
          "value": 102.7,
          "unit": "mg/dL",
          "code": "mg/dL"
        },
        "referenceRange": [
          {
            "low": {
              "value": 0,
              "code": "mg/dL",
              "system": "http://unitsofmeasure.org"
            }
          },
          {
            "high": {
              "value": 15,
              "code": "mg/dL",
              "system": "http://unitsofmeasure.org"
            }
          }
        ],
        "interpretation": [
          {
            "coding": [
              {
                "code": "H",
                "system": "http://terminology.hl7.org/CodeSystem/v3-ObservationInterpretation",
                "display": "High"
              }
            ]
          }
        ],
        "text": {
          "status": "generated",
          "div": "<div xmlns=\"http://www.w3.org/1999/xhtml\"><table class=\"hl7__eu__lab__report\"><tr><th>Test</th><th>04-Apr-2023</th><th>Reference&#xA0;Range</th><th>Unit</th></tr><tr><td>Protein [Mass/volume] in Urine by Test strip</td><td>102.7</td><td>0 - 15</td><td>H</td><td>mg/dL</td></tr></table></div>"
        },
        "status": "final",
        "subject": {
          "reference": "urn:uuid:d0a25775-4b62-468b-a4af-9328a487a3bb",
          "display": "Hortense Gallet"
        },
        "effectiveDateTime": "2023-04-04T20:16:45Z",
        "specimen": {
          "reference": "urn:uuid:f744b3b5-5322-4411-9c2c-ccdcdb0c07d9"
        }
      }
    },
    {
      "fullUrl": "urn:uuid:e49c1544-e9fb-4f4a-9957-34a9ff54dfe9",
      "resource": {
        "resourceType": "Observation",
        "id": "e49c1544-e9fb-4f4a-9957-34a9ff54dfe9",
        "meta": {
          "profile": [
            "http://hl7.eu/fhir/laboratory/StructureDefinition/Observation-resultslab-eu-lab"
          ]
        },
        "performer": [
          {
            "display": "The Central European Lab"
          }
        ],
        "category": [
          {
            "coding": [
              {
                "system": "http://terminology.hl7.org/CodeSystem/observation-category",
                "code": "laboratory"
              }
            ]
          }
        ],
        "code": {
          "coding": [
            {
              "code": "20454-5",
              "system": "http://loinc.org",
              "display": "Protein [Presence] in Urine by Test strip"
            }
          ],
          "text": "Protein [Presence] in Urine by Test strip"
        },
        "text": {
          "status": "generated",
          "div": "<div xmlns=\"http://www.w3.org/1999/xhtml\"><table class=\"hl7__eu__lab__report\"><tr><th>Test</th><th>04-Apr-2023</th><th>Reference&#xA0;Range</th><th>Unit</th></tr><tr><td>Protein [Presence] in Urine by Test strip</td></tr></table></div>"
        },
        "status": "final",
        "subject": {
          "reference": "urn:uuid:d0a25775-4b62-468b-a4af-9328a487a3bb",
          "display": "Hortense Gallet"
        },
        "effectiveDateTime": "2023-04-04T20:16:45Z",
        "specimen": {
          "reference": "urn:uuid:f744b3b5-5322-4411-9c2c-ccdcdb0c07d9"
        }
      }
    },
    {
      "fullUrl": "urn:uuid:3344da78-8366-49aa-8c46-9e82613263e2",
      "resource": {
        "resourceType": "Observation",
        "id": "3344da78-8366-49aa-8c46-9e82613263e2",
        "meta": {
          "profile": [
            "http://hl7.eu/fhir/laboratory/StructureDefinition/Observation-resultslab-eu-lab"
          ]
        },
        "performer": [
          {
            "display": "The Central European Lab"
          }
        ],
        "category": [
          {
            "coding": [
              {
                "system": "http://terminology.hl7.org/CodeSystem/observation-category",
                "code": "laboratory"
              }
            ]
          }
        ],
        "code": {
          "coding": [
            {
              "code": "5802-4",
              "system": "http://loinc.org",
              "display": "Nitrite [Presence] in Urine by Test strip"
            }
          ],
          "text": "Nitrite [Presence] in Urine by Test strip"
        },
        "text": {
          "status": "generated",
          "div": "<div xmlns=\"http://www.w3.org/1999/xhtml\"><table class=\"hl7__eu__lab__report\"><tr><th>Test</th><th>04-Apr-2023</th><th>Reference&#xA0;Range</th><th>Unit</th></tr><tr><td>Nitrite [Presence] in Urine by Test strip</td></tr></table></div>"
        },
        "status": "final",
        "subject": {
          "reference": "urn:uuid:d0a25775-4b62-468b-a4af-9328a487a3bb",
          "display": "Hortense Gallet"
        },
        "effectiveDateTime": "2023-04-04T20:16:45Z",
        "specimen": {
          "reference": "urn:uuid:f744b3b5-5322-4411-9c2c-ccdcdb0c07d9"
        }
      }
    },
    {
      "fullUrl": "urn:uuid:700a574e-27b0-4f1e-b82d-21e41438530b",
      "resource": {
        "resourceType": "Observation",
        "id": "700a574e-27b0-4f1e-b82d-21e41438530b",
        "meta": {
          "profile": [
            "http://hl7.eu/fhir/laboratory/StructureDefinition/Observation-resultslab-eu-lab"
          ]
        },
        "performer": [
          {
            "display": "The Central European Lab"
          }
        ],
        "category": [
          {
            "coding": [
              {
                "system": "http://terminology.hl7.org/CodeSystem/observation-category",
                "code": "laboratory"
              }
            ]
          }
        ],
        "code": {
          "coding": [
            {
              "code": "5794-3",
              "system": "http://loinc.org",
              "display": "Hemoglobin [Presence] in Urine by Test strip"
            }
          ],
          "text": "Hemoglobin [Presence] in Urine by Test strip"
        },
        "text": {
          "status": "generated",
          "div": "<div xmlns=\"http://www.w3.org/1999/xhtml\"><table class=\"hl7__eu__lab__report\"><tr><th>Test</th><th>04-Apr-2023</th><th>Reference&#xA0;Range</th><th>Unit</th></tr><tr><td>Hemoglobin [Presence] in Urine by Test strip</td></tr></table></div>"
        },
        "status": "final",
        "subject": {
          "reference": "urn:uuid:d0a25775-4b62-468b-a4af-9328a487a3bb",
          "display": "Hortense Gallet"
        },
        "effectiveDateTime": "2023-04-04T20:16:45Z",
        "specimen": {
          "reference": "urn:uuid:f744b3b5-5322-4411-9c2c-ccdcdb0c07d9"
        }
      }
    },
    {
      "fullUrl": "urn:uuid:438db831-f43a-4432-b5f9-8a069f14bcd2",
      "resource": {
        "resourceType": "Observation",
        "id": "438db831-f43a-4432-b5f9-8a069f14bcd2",
        "meta": {
          "profile": [
            "http://hl7.eu/fhir/laboratory/StructureDefinition/Observation-resultslab-eu-lab"
          ]
        },
        "performer": [
          {
            "display": "The Central European Lab"
          }
        ],
        "category": [
          {
            "coding": [
              {
                "system": "http://terminology.hl7.org/CodeSystem/observation-category",
                "code": "laboratory"
              }
            ]
          }
        ],
        "code": {
          "coding": [
            {
              "code": "5799-2",
              "system": "http://loinc.org",
              "display": "Leukocyte esterase [Presence] in Urine by Test strip"
            }
          ],
          "text": "Leukocyte esterase [Presence] in Urine by Test strip"
        },
        "text": {
          "status": "generated",
          "div": "<div xmlns=\"http://www.w3.org/1999/xhtml\"><table class=\"hl7__eu__lab__report\"><tr><th>Test</th><th>04-Apr-2023</th><th>Reference&#xA0;Range</th><th>Unit</th></tr><tr><td>Leukocyte esterase [Presence] in Urine by Test strip</td></tr></table></div>"
        },
        "status": "final",
        "subject": {
          "reference": "urn:uuid:d0a25775-4b62-468b-a4af-9328a487a3bb",
          "display": "Hortense Gallet"
        },
        "effectiveDateTime": "2023-04-04T20:16:45Z",
        "specimen": {
          "reference": "urn:uuid:f744b3b5-5322-4411-9c2c-ccdcdb0c07d9"
        }
      }
    },
    {
      "fullUrl": "urn:uuid:5a61bbfb-cebd-46b7-be0c-77f791b7edce",
      "resource": {
        "resourceType": "Observation",
        "id": "5a61bbfb-cebd-46b7-be0c-77f791b7edce",
        "meta": {
          "profile": [
            "http://hl7.eu/fhir/laboratory/StructureDefinition/Observation-resultslab-eu-lab"
          ]
        },
        "performer": [
          {
            "display": "The Central European Lab"
          }
        ],
        "category": [
          {
            "coding": [
              {
                "system": "http://terminology.hl7.org/CodeSystem/observation-category",
                "code": "laboratory"
              }
            ]
          }
        ],
        "code": {
          "coding": [
            {
              "code": "2093-3",
              "system": "http://loinc.org",
              "display": "Cholesterol [Mass/volume] in Serum or Plasma"
            }
          ],
          "text": "Cholesterol [Mass/volume] in Serum or Plasma"
        },
        "valueQuantity": {
          "system": "http://unitsofmeasure.org",
          "value": 161.6,
          "unit": "mg/dL",
          "code": "mg/dL"
        },
        "referenceRange": [
          {
            "low": {
              "value": 125,
              "code": "mg/dL",
              "system": "http://unitsofmeasure.org"
            }
          },
          {
            "high": {
              "value": 200,
              "code": "mg/dL",
              "system": "http://unitsofmeasure.org"
            }
          }
        ],
        "text": {
          "status": "generated",
          "div": "<div xmlns=\"http://www.w3.org/1999/xhtml\"><table class=\"hl7__eu__lab__report\"><tr><th>Test</th><th>04-Apr-2023</th><th>Reference&#xA0;Range</th><th>Unit</th></tr><tr><td>Cholesterol [Mass/volume] in Serum or Plasma</td><td>161.6</td><td>125 - 200</td><td></td><td>mg/dL</td></tr></table></div>"
        },
        "status": "final",
        "subject": {
          "reference": "urn:uuid:d0a25775-4b62-468b-a4af-9328a487a3bb",
          "display": "Hortense Gallet"
        },
        "effectiveDateTime": "2023-04-04T20:16:45Z",
        "specimen": {
          "reference": "urn:uuid:5ec9a15f-cb98-49ee-a3fe-cf9922a4b657"
        }
      }
    },
    {
      "fullUrl": "urn:uuid:a721829b-843a-459a-bf12-197d74aeedd5",
      "resource": {
        "resourceType": "Observation",
        "id": "a721829b-843a-459a-bf12-197d74aeedd5",
        "meta": {
          "profile": [
            "http://hl7.eu/fhir/laboratory/StructureDefinition/Observation-resultslab-eu-lab"
          ]
        },
        "performer": [
          {
            "display": "The Central European Lab"
          }
        ],
        "category": [
          {
            "coding": [
              {
                "system": "http://terminology.hl7.org/CodeSystem/observation-category",
                "code": "laboratory"
              }
            ]
          }
        ],
        "code": {
          "coding": [
            {
              "code": "2571-8",
              "system": "http://loinc.org",
              "display": "Triglyceride [Mass/volume] in Serum or Plasma"
            }
          ],
          "text": "Triglyceride [Mass/volume] in Serum or Plasma"
        },
        "valueQuantity": {
          "system": "http://unitsofmeasure.org",
          "value": 121.3,
          "unit": "mg/dL",
          "code": "mg/dL"
        },
        "referenceRange": [
          {
            "low": {
              "value": 35,
              "code": "mg/dL",
              "system": "http://unitsofmeasure.org"
            }
          },
          {
            "high": {
              "value": 150,
              "code": "mg/dL",
              "system": "http://unitsofmeasure.org"
            }
          }
        ],
        "text": {
          "status": "generated",
          "div": "<div xmlns=\"http://www.w3.org/1999/xhtml\"><table class=\"hl7__eu__lab__report\"><tr><th>Test</th><th>04-Apr-2023</th><th>Reference&#xA0;Range</th><th>Unit</th></tr><tr><td>Triglyceride [Mass/volume] in Serum or Plasma</td><td>121.3</td><td>35 - 150</td><td></td><td>mg/dL</td></tr></table></div>"
        },
        "status": "final",
        "subject": {
          "reference": "urn:uuid:d0a25775-4b62-468b-a4af-9328a487a3bb",
          "display": "Hortense Gallet"
        },
        "effectiveDateTime": "2023-04-04T20:16:45Z",
        "specimen": {
          "reference": "urn:uuid:5ec9a15f-cb98-49ee-a3fe-cf9922a4b657"
        }
      }
    },
    {
      "fullUrl": "urn:uuid:2125c513-bbce-44fa-b00f-9ac11a2e2317",
      "resource": {
        "resourceType": "Observation",
        "id": "2125c513-bbce-44fa-b00f-9ac11a2e2317",
        "meta": {
          "profile": [
            "http://hl7.eu/fhir/laboratory/StructureDefinition/Observation-resultslab-eu-lab"
          ]
        },
        "performer": [
          {
            "display": "The Central European Lab"
          }
        ],
        "category": [
          {
            "coding": [
              {
                "system": "http://terminology.hl7.org/CodeSystem/observation-category",
                "code": "laboratory"
              }
            ]
          }
        ],
        "code": {
          "coding": [
            {
              "code": "18262-6",
              "system": "http://loinc.org",
              "display": "Cholesterol in LDL [Mass/volume] in Serum or Plasma by Direct assay"
            }
          ],
          "text": "Cholesterol in LDL [Mass/volume] in Serum or Plasma by Direct assay"
        },
        "valueQuantity": {
          "system": "http://unitsofmeasure.org",
          "value": 84.2,
          "unit": "mg/dL",
          "code": "mg/dL"
        },
        "referenceRange": [
          {
            "low": {
              "value": 0,
              "code": "mg/dL",
              "system": "http://unitsofmeasure.org"
            }
          },
          {
            "high": {
              "value": 130,
              "code": "mg/dL",
              "system": "http://unitsofmeasure.org"
            }
          }
        ],
        "text": {
          "status": "generated",
          "div": "<div xmlns=\"http://www.w3.org/1999/xhtml\"><table class=\"hl7__eu__lab__report\"><tr><th>Test</th><th>04-Apr-2023</th><th>Reference&#xA0;Range</th><th>Unit</th></tr><tr><td>Cholesterol in LDL [Mass/volume] in Serum or Plasma by Direct assay</td><td>84.2</td><td>0 - 130</td><td></td><td>mg/dL</td></tr></table></div>"
        },
        "status": "final",
        "subject": {
          "reference": "urn:uuid:d0a25775-4b62-468b-a4af-9328a487a3bb",
          "display": "Hortense Gallet"
        },
        "effectiveDateTime": "2023-04-04T20:16:45Z",
        "specimen": {
          "reference": "urn:uuid:5ec9a15f-cb98-49ee-a3fe-cf9922a4b657"
        }
      }
    },
    {
      "fullUrl": "urn:uuid:51b25462-1ff2-4876-9938-b589ccb762a0",
      "resource": {
        "resourceType": "Observation",
        "id": "51b25462-1ff2-4876-9938-b589ccb762a0",
        "meta": {
          "profile": [
            "http://hl7.eu/fhir/laboratory/StructureDefinition/Observation-resultslab-eu-lab"
          ]
        },
        "performer": [
          {
            "display": "The Central European Lab"
          }
        ],
        "category": [
          {
            "coding": [
              {
                "system": "http://terminology.hl7.org/CodeSystem/observation-category",
                "code": "laboratory"
              }
            ]
          }
        ],
        "code": {
          "coding": [
            {
              "code": "2085-9",
              "system": "http://loinc.org",
              "display": "Cholesterol in HDL [Mass/volume] in Serum or Plasma"
            }
          ],
          "text": "Cholesterol in HDL [Mass/volume] in Serum or Plasma"
        },
        "valueQuantity": {
          "system": "http://unitsofmeasure.org",
          "value": 53.1,
          "unit": "mg/dL",
          "code": "mg/dL"
        },
        "referenceRange": [
          {
            "low": {
              "value": 46,
              "code": "mg/dL",
              "system": "http://unitsofmeasure.org"
            }
          },
          {
            "high": {
              "value": 82,
              "code": "mg/dL",
              "system": "http://unitsofmeasure.org"
            }
          }
        ],
        "text": {
          "status": "generated",
          "div": "<div xmlns=\"http://www.w3.org/1999/xhtml\"><table class=\"hl7__eu__lab__report\"><tr><th>Test</th><th>04-Apr-2023</th><th>Reference&#xA0;Range</th><th>Unit</th></tr><tr><td>Cholesterol in HDL [Mass/volume] in Serum or Plasma</td><td>53.1</td><td>46 - 82</td><td></td><td>mg/dL</td></tr></table></div>"
        },
        "status": "final",
        "subject": {
          "reference": "urn:uuid:d0a25775-4b62-468b-a4af-9328a487a3bb",
          "display": "Hortense Gallet"
        },
        "effectiveDateTime": "2023-04-04T20:16:45Z",
        "specimen": {
          "reference": "urn:uuid:5ec9a15f-cb98-49ee-a3fe-cf9922a4b657"
        }
      }
    },
    {
      "fullUrl": "urn:uuid:a320070e-b89c-411b-8a8c-1b1716e22018",
      "resource": {
        "resourceType": "Device",
        "id": "a320070e-b89c-411b-8a8c-1b1716e22018",
        "deviceName": [
          {
            "name": "SYNDERAI Synthetic Generator",
            "type": "manufacturer-name"
          }
        ],
        "version": [
          {
            "value": "5.0"
          }
        ],
        "text": {
          "status": "generated",
          "div": "<div xmlns=\"http://www.w3.org/1999/xhtml\">SYNDERAI Synthetic Generator v5.0</div>"
        },
        "status": "active\"",
        "distinctIdentifier": "synderai-generator-50",
        "manufacturer": "SYNDERAI Project"
      }
    },
    {
      "fullUrl": "urn:uuid:288ef111-2982-4fe6-ae6f-79748dade4f2",
      "resource": {
        "resourceType": "Provenance",
        "id": "288ef111-2982-4fe6-ae6f-79748dade4f2",
        "target": [
          {
            "reference": "Patient/d0a25775-4b62-468b-a4af-9328a487a3bb"
          },
          {
            "reference": "Bundle/03d1c0af-e493-4e29-b8ae-e5d0d9f1dae5"
          },
          {
            "reference": "Composition/b5260e97-1ff9-4249-a522-14e482a87145"
          },
          {
            "reference": "PractitionerRole/7019d9f6-ca00-4501-bba8-80f75fb247d4"
          },
          {
            "reference": "Practitioner/d80fca14-73af-47f4-9430-9b99b5d05791"
          },
          {
            "reference": "PractitionerRole/9d509de2-518e-4876-992b-270201097f8c"
          },
          {
            "reference": "Organization/2b064dac-4615-4848-886d-13b3ecf7606f"
          }
        ],
        "activity": {
          "text": "Synthetic Example Data Generation"
        },
        "policy": [
          "https://synderai.net/synderai-synthetic-data-policy"
        ],
        "agent": [
          {
            "type": {
              "text": "author"
            },
            "who": {
              "reference": "Device/a320070e-b89c-411b-8a8c-1b1716e22018"
            }
          }
        ],
        "reason": [
          {
            "text": "Interoperability Testing and Training (non-clinical use)"
          }
        ],
        "text": {
          "status": "generated",
          "div": "<div xmlns=\"http://www.w3.org/1999/xhtml\">Provenance for SYNDERAI Synthetic Example Data Resource</div>"
        },
        "recorded": "2023-04-04T22:16:45Z"
      }
    },
    {
      "fullUrl": "urn:uuid:7019d9f6-ca00-4501-bba8-80f75fb247d4",
      "resource": {
        "resourceType": "PractitionerRole",
        "id": "7019d9f6-ca00-4501-bba8-80f75fb247d4",
        "meta": {
          "profile": [
            "http://hl7.eu/fhir/base/StructureDefinition/practitionerRole-eu"
          ]
        },
        "text": {
          "status": "generated",
          "div": "<div xmlns=\"http://www.w3.org/1999/xhtml\">Laboratory Role Id: 7019d9f6-ca00-4501-bba8-80f75fb247d4</div>"
        },
        "practitioner": {
          "reference": "urn:uuid:d80fca14-73af-47f4-9430-9b99b5d05791"
        }
      }
    },
    {
      "fullUrl": "urn:uuid:d80fca14-73af-47f4-9430-9b99b5d05791",
      "resource": {
        "resourceType": "Practitioner",
        "id": "d80fca14-73af-47f4-9430-9b99b5d05791",
        "meta": {
          "profile": [
            "http://hl7.eu/fhir/base/StructureDefinition/practitioner-eu"
          ]
        },
        "identifier": [
          {
            "assigner": {
              "display": "HL7 Europe"
            },
            "system": "urn:oid:2.16.840.1.113883.2.51.999",
            "value": "de51371e-9637-4af6-b6cb-1bc4cda98e76"
          }
        ],
        "name": [
          {
            "prefix": [
              "dr"
            ],
            "given": [
              "Ex"
            ],
            "family": "Ample"
          }
        ],
        "address": [
          {
            "line": [
              "Laboratoire Central Européenne",
              "Boulevard du Jardin Botanique 32"
            ],
            "postalCode": "1000",
            "city": "Brussels",
            "country": "Belgium"
          }
        ],
        "text": {
          "status": "generated",
          "div": "<div xmlns=\"http://www.w3.org/1999/xhtml\">Laboratory: Laboratoire Central Européenne, 1000 Brussels, Belgium</div>"
        }
      }
    }
  ],
  "type": "document",
  "timestamp": "2023-04-04T22:16:45Z"
}
