{
  "resourceType": "Bundle",
  "id": "16b2f147-6e8a-4d50-b9fe-d7cabda92eef",
  "meta": {
    "profile": [
      "http://hl7.eu/fhir/laboratory/StructureDefinition/Bundle-eu-lab"
    ]
  },
  "identifier": {
    "assigner": {
      "display": "HL7 Europe"
    },
    "system": "urn:oid:2.16.840.1.113883.2.51.999",
    "value": "a4293cf2-f868-4cbd-a3c4-73cbd2f74d89"
  },
  "entry": [
    {
      "fullUrl": "urn:uuid:a30c082d-9fae-4003-b63f-c36dfdaf446f",
      "resource": {
        "resourceType": "Composition",
        "id": "a30c082d-9fae-4003-b63f-c36dfdaf446f",
        "meta": {
          "profile": [
            "http://hl7.eu/fhir/laboratory/StructureDefinition/Composition-eu-lab"
          ]
        },
        "identifier": {
          "assigner": {
            "display": "HL7 Europe"
          },
          "system": "urn:oid:2.16.840.1.113883.2.51.999",
          "value": "d2bf2923-ef76-4999-8e6a-bd30dabc4805"
        },
        "author": [
          {
            "reference": "urn:uuid:5cb9f982-a23a-46c3-8d3d-fc2497eb5abb"
          }
        ],
        "category": [
          {
            "coding": [
              {
                "code": "26436-6",
                "system": "http://loinc.org",
                "display": "Laboratory studies (set)"
              }
            ]
          }
        ],
        "type": {
          "coding": [
            {
              "code": "11502-2",
              "system": "http://loinc.org",
              "display": "Laboratory report"
            }
          ],
          "text": "Laboratory Report"
        },
        "section": [
          {
            "code": {
              "coding": [
                {
                  "code": "26436-6",
                  "system": "http://loinc.org",
                  "display": "Laboratory studies (set)"
                }
              ],
              "text": "Laboratory studies"
            },
            "section": [
              {
                "code": {
                  "coding": [
                    {
                      "code": "$18723-7",
                      "system": "http://loinc.org",
                      "display": "Hematology studies (set)"
                    }
                  ],
                  "text": "Hematology"
                },
                "entry": [
                  {
                    "reference": "urn:uuid:bba854af-981f-4b4a-bc64-b5cc4ce3541e"
                  },
                  {
                    "reference": "urn:uuid:6a0ad26b-737c-4ef5-826f-878cba5abeef"
                  },
                  {
                    "reference": "urn:uuid:83ec7296-ac97-4c66-b8f9-8607a9f82506"
                  },
                  {
                    "reference": "urn:uuid:a27a080f-6ff4-4cb4-8635-f6f3190c8fad"
                  },
                  {
                    "reference": "urn:uuid:109bc255-bc52-4037-a54c-557cc59c4d8c"
                  },
                  {
                    "reference": "urn:uuid:d74f0abd-f91e-4a21-aac9-fd8545788a6d"
                  },
                  {
                    "reference": "urn:uuid:1c19b568-977c-4058-8247-c4a48197637d"
                  },
                  {
                    "reference": "urn:uuid:5d836f11-e7cb-4ed8-8ca0-a4a94cc9a4fb"
                  },
                  {
                    "reference": "urn:uuid:a69ab926-267d-41c0-a583-a4d39342dc9f"
                  },
                  {
                    "reference": "urn:uuid:29b8961c-86cc-475d-92d2-0dc6db7edd44"
                  },
                  {
                    "reference": "urn:uuid:0b94dc6a-8af8-4608-b829-be59aabb7ad8"
                  }
                ],
                "text": {
                  "status": "generated",
                  "div": "<div xmlns=\"http://www.w3.org/1999/xhtml\"><h3>Hematology</h3><table class=\"hl7__eu__lab__report\"><thead><tr><th>Test</th><th>27-FEB-2016</th><th>Reference&#xA0;Range</th><th>Unit</th></tr></thead><tbody><tr><td>Leukocytes [#/volume] in Blood by Automated count</td><td>3.9</td><td>3.5 - 10.5</td><td>10*3/uL</td></tr><tr><td>Erythrocytes [#/volume] in Blood by Automated count</td><td><strong>4.3 L</strong></td><td>4.5 - 5.5</td><td>10*6/uL</td></tr><tr><td>Hemoglobin [Mass/volume] in Blood</td><td>15.2</td><td>12 - 16</td><td>g/dL</td></tr><tr><td>Hematocrit [Volume Fraction] of Blood by Automated count</td><td><strong>49.4 H</strong></td><td>36 - 48</td><td>%</td></tr><tr><td>MCV [Entitic volume] by Automated count</td><td>85.2</td><td>82 - 98</td><td>fL</td></tr><tr><td>MCH [Entitic mass] by Automated count</td><td>30.7</td><td>27.5 - 34.5</td><td>pg</td></tr><tr><td>MCHC [Mass/volume] by Automated count</td><td>33.3</td><td>32 - 37</td><td>g/dL</td></tr><tr><td>Erythrocyte distribution width [Entitic volume] by Automated count</td><td>45.0</td><td>36 - 55</td><td>fL</td></tr><tr><td>Platelets [#/volume] in Blood by Automated count</td><td>256.1</td><td>150 - 450</td><td>10*3/uL</td></tr><tr><td>Platelet distribution width [Entitic volume] in Blood by Automated count</td><td><strong>429.2 H</strong></td><td>11 - 15</td><td>fL</td></tr><tr><td>Platelet mean volume [Entitic volume] in Blood by Automated count</td><td>11.6</td><td>7.2 - 13.8</td><td>fL</td></tr></tbody></table></div>"
                },
                "title": "Hematology"
              }
            ],
            "title": "Laboratory Report"
          },
          {
            "text": {
              "status": "generated",
              "div": "<div xmlns=\"http://www.w3.org/1999/xhtml\"><h3>Annotation</h3><table class=\"hl7__eu__lab__report\"><tr><th>Conclusion and Recommendations based on this report and previous findings known to us</th></tr><tr><td>The results show a mildly decreased erythrocyte count with normal hemoglobin and MCV, slightly elevated hematocrit, and a markedly increased platelet distribution width. These findings may suggest mild erythrocytopenia with possible hemoconcentration or dehydration and increased platelet size variability. Correlation with clinical context and repeat testing if indicated are recommended.</td></tr></table></div>"
            },
            "code": {
              "coding": [
                {
                  "system": "http://loinc.org",
                  "code": "48767-8",
                  "display": "Annotation comment"
                }
              ]
            },
            "title": "Annotation comment"
          }
        ],
        "status": "final",
        "subject": {
          "reference": "urn:uuid:fe96ae17-891a-4b44-8530-786cdea5de2e",
          "display": "Pamela Dixon"
        },
        "date": "2016-02-27T19:20:37Z",
        "title": "Laboratory Report",
        "confidentiality": "N"
      }
    },
    {
      "fullUrl": "urn:uuid:2c2d08b9-971c-46e8-bde1-5938286a5147",
      "resource": {
        "resourceType": "DiagnosticReport",
        "id": "2c2d08b9-971c-46e8-bde1-5938286a5147",
        "meta": {
          "profile": [
            "http://hl7.eu/fhir/laboratory/StructureDefinition/DiagnosticReport-eu-lab"
          ]
        },
        "identifier": [
          {
            "assigner": {
              "display": "HL7 Europe"
            },
            "system": "urn:oid:2.16.840.1.113883.2.51.999",
            "value": "df4beaaf-e5b7-4424-a1ed-09dbcb4bc501"
          }
        ],
        "extension": [
          {
            "url": "http://hl7.org/fhir/5.0/StructureDefinition/extension-DiagnosticReport.composition",
            "valueReference": {
              "reference": "urn:uuid:d2bf2923-ef76-4999-8e6a-bd30dabc4805"
            }
          }
        ],
        "category": [
          {
            "coding": [
              {
                "code": "26436-6",
                "system": "http://loinc.org",
                "display": "Laboratory studies (set)"
              }
            ]
          }
        ],
        "specimen": [
          {
            "reference": "urn:uuid:9caa9dcd-9b68-48f0-b923-e74f79a6b591"
          },
          {
            "reference": "urn:uuid:9caa9dcd-9b68-48f0-b923-e74f79a6b591"
          }
        ],
        "result": [
          {
            "reference": "urn:uuid:bba854af-981f-4b4a-bc64-b5cc4ce3541e"
          },
          {
            "reference": "urn:uuid:6a0ad26b-737c-4ef5-826f-878cba5abeef"
          },
          {
            "reference": "urn:uuid:83ec7296-ac97-4c66-b8f9-8607a9f82506"
          },
          {
            "reference": "urn:uuid:a27a080f-6ff4-4cb4-8635-f6f3190c8fad"
          },
          {
            "reference": "urn:uuid:109bc255-bc52-4037-a54c-557cc59c4d8c"
          },
          {
            "reference": "urn:uuid:d74f0abd-f91e-4a21-aac9-fd8545788a6d"
          },
          {
            "reference": "urn:uuid:1c19b568-977c-4058-8247-c4a48197637d"
          },
          {
            "reference": "urn:uuid:5d836f11-e7cb-4ed8-8ca0-a4a94cc9a4fb"
          },
          {
            "reference": "urn:uuid:a69ab926-267d-41c0-a583-a4d39342dc9f"
          },
          {
            "reference": "urn:uuid:29b8961c-86cc-475d-92d2-0dc6db7edd44"
          },
          {
            "reference": "urn:uuid:0b94dc6a-8af8-4608-b829-be59aabb7ad8"
          }
        ],
        "status": "registered",
        "code": {
          "coding": [
            {
              "code": "11502-2",
              "system": "http://loinc.org",
              "display": "Laboratory report"
            }
          ]
        },
        "subject": {
          "reference": "urn:uuid:fe96ae17-891a-4b44-8530-786cdea5de2e",
          "display": "Pamela Dixon"
        }
      }
    },
    {
      "fullUrl": "urn:uuid:fe96ae17-891a-4b44-8530-786cdea5de2e",
      "resource": {
        "resourceType": "Patient",
        "id": "fe96ae17-891a-4b44-8530-786cdea5de2e",
        "meta": {
          "security": [
            {
              "system": "http://terminology.hl7.org/CodeSystem/v3-ActReason",
              "code": "HTEST"
            },
            {
              "system": "http://terminology.hl7.org/CodeSystem/v3-ActReason",
              "code": "TRAIN"
            }
          ],
          "tag": [
            {
              "system": "https://synderai.net/fhir/CodeSystem/tags",
              "code": "synthetic",
              "display": "SYNDERAI Synthetic data"
            }
          ],
          "profile": [
            "http://hl7.eu/fhir/base/StructureDefinition/patient-eu-core"
          ]
        },
        "identifier": [
          {
            "type": {
              "coding": [
                {
                  "code": "PT",
                  "system": "http://terminology.hl7.org/CodeSystem/v2-0203"
                }
              ]
            },
            "system": "http://ec.europa.eu/identifier/eci",
            "value": "6166-148600-3"
          },
          {
            "type": {
              "coding": [
                {
                  "code": "MR",
                  "system": "http://terminology.hl7.org/CodeSystem/v2-0203"
                }
              ]
            },
            "system": "http://local.setting.eu/identifier",
            "value": "aa6e2273-ade9-f985-ca21-1a30863d243e"
          }
        ],
        "name": [
          {
            "family": "Dixon"
          },
          {
            "given": [
              "Pamela"
            ]
          },
          {
            "text": "Pamela Dixon"
          }
        ],
        "address": [
          {
            "line": [
              "6 Diana landing"
            ],
            "use": "home",
            "type": "physical",
            "postalCode": "M14",
            "city": "Claireport",
            "country": "United Kingdom"
          }
        ],
        "telecom": [
          {
            "system": "phone",
            "value": "0121 496 0481"
          }
        ],
        "extension": [
          {
            "url": "http://hl7.org/fhir/StructureDefinition/patient-nationality",
            "valueCodeableConcept": {
              "coding": [
                {
                  "code": "GB",
                  "system": "http://hl7.org/fhir/ValueSet/country"
                }
              ]
            }
          }
        ],
        "text": {
          "status": "generated",
          "div": "<div xmlns=\"http://www.w3.org/1999/xhtml\"><table class=\"hl7__ips\"><tr><td>Pamela Dixon</td><td>female</td><td>01-Dec-1990</td></tr></table></div>"
        },
        "gender": "female",
        "birthDate": "1990-12-01"
      }
    },
    {
      "fullUrl": "urn:uuid:6b8cec63-6ffc-49e3-b2a1-3440512c1b71",
      "resource": {
        "resourceType": "ServiceRequest",
        "id": "6b8cec63-6ffc-49e3-b2a1-3440512c1b71",
        "meta": {
          "profile": [
            "http://hl7.eu/fhir/laboratory/StructureDefinition/ServiceRequest-eu-lab"
          ]
        },
        "identifier": [
          {
            "system": "http://example.org",
            "value": "6deabe9f-ae03-49ec-aa90-f2dbbdc8636d"
          }
        ],
        "specimen": [
          {
            "reference": "urn:uuid:9caa9dcd-9b68-48f0-b923-e74f79a6b591"
          }
        ],
        "status": "active",
        "intent": "order",
        "code": {
          "coding": [
            {
              "code": "108252007",
              "system": "http://snomed.info/sct",
              "display": "Laboratory procedure"
            }
          ]
        },
        "subject": {
          "reference": "urn:uuid:fe96ae17-891a-4b44-8530-786cdea5de2e",
          "display": "Pamela Dixon"
        },
        "requester": {
          "reference": "urn:uuid:1f1b425c-775f-4213-988e-efc0ba472633"
        }
      }
    },
    {
      "fullUrl": "urn:uuid:1f1b425c-775f-4213-988e-efc0ba472633",
      "resource": {
        "resourceType": "PractitionerRole",
        "id": "1f1b425c-775f-4213-988e-efc0ba472633",
        "meta": {
          "profile": [
            "http://hl7.eu/fhir/base/StructureDefinition/practitionerRole-eu"
          ]
        },
        "text": {
          "status": "generated",
          "div": "<div xmlns=\"http://www.w3.org/1999/xhtml\">Provider Role Id: 1f1b425c-775f-4213-988e-efc0ba472633</div>"
        },
        "organization": {
          "reference": "urn:uuid:d7a9eccc-e82c-4cb0-a1c0-9c337c72b357"
        }
      }
    },
    {
      "fullUrl": "urn:uuid:d7a9eccc-e82c-4cb0-a1c0-9c337c72b357",
      "resource": {
        "resourceType": "Organization",
        "id": "d7a9eccc-e82c-4cb0-a1c0-9c337c72b357",
        "meta": {
          "profile": [
            "http://hl7.eu/fhir/base/StructureDefinition/organization-eu"
          ]
        },
        "identifier": [
          {
            "assigner": {
              "display": "HL7 Europe"
            },
            "system": "urn:oid:2.16.840.1.113883.2.51.999",
            "value": "14bf84e9-9ff2-4ecc-b682-6786d158162e"
          }
        ],
        "address": [
          {
            "line": [
              "City Road 204"
            ],
            "city": "Manchester",
            "postalCode": "M3 3",
            "country": "United Kingdom"
          }
        ],
        "text": {
          "status": "generated",
          "div": "<div xmlns=\"http://www.w3.org/1999/xhtml\">Provider Organization: Cornbrook Medical Practice</div>"
        },
        "name": "Cornbrook Medical Practice"
      }
    },
    {
      "fullUrl": "urn:uuid:9caa9dcd-9b68-48f0-b923-e74f79a6b591",
      "resource": {
        "resourceType": "Specimen",
        "id": "9caa9dcd-9b68-48f0-b923-e74f79a6b591",
        "meta": {
          "profile": [
            "http://hl7.eu/fhir/laboratory/StructureDefinition/Specimen-eu-lab"
          ]
        },
        "collection": {
          "collectedDateTime": "2016-02-27"
        },
        "text": {
          "status": "generated",
          "div": "<div xmlns=\"http://www.w3.org/1999/xhtml\"><table class=\"hl7__eu__lab__report\"><tr><th>Specimen</th><th>Collection Date</th></tr><tr><td>Whole blood specimen (specimen)</td><td><span class=\"nb\">27-Feb-2016</span></td></tr></table></div>"
        },
        "type": {
          "coding": [
            {
              "code": "258580003",
              "system": "http://snomed.info/sct",
              "display": "Whole blood specimen (specimen)"
            }
          ]
        }
      }
    },
    {
      "fullUrl": "urn:uuid:9caa9dcd-9b68-48f0-b923-e74f79a6b591",
      "resource": {
        "resourceType": "Specimen",
        "id": "9caa9dcd-9b68-48f0-b923-e74f79a6b591",
        "meta": {
          "profile": [
            "http://hl7.eu/fhir/laboratory/StructureDefinition/Specimen-eu-lab"
          ]
        },
        "collection": {
          "collectedDateTime": "2016-02-27"
        },
        "text": {
          "status": "generated",
          "div": "<div xmlns=\"http://www.w3.org/1999/xhtml\"><table class=\"hl7__eu__lab__report\"><tr><th>Specimen</th><th>Collection Date</th></tr><tr><td>Whole blood specimen (specimen)</td><td><span class=\"nb\">27-Feb-2016</span></td></tr></table></div>"
        },
        "type": {
          "coding": [
            {
              "code": "258580003",
              "system": "http://snomed.info/sct",
              "display": "Whole blood specimen (specimen)"
            }
          ]
        }
      }
    },
    {
      "fullUrl": "urn:uuid:bba854af-981f-4b4a-bc64-b5cc4ce3541e",
      "resource": {
        "resourceType": "Observation",
        "id": "bba854af-981f-4b4a-bc64-b5cc4ce3541e",
        "meta": {
          "profile": [
            "http://hl7.eu/fhir/laboratory/StructureDefinition/Observation-resultslab-eu-lab"
          ]
        },
        "performer": [
          {
            "display": "The Central European Lab"
          }
        ],
        "category": [
          {
            "coding": [
              {
                "system": "http://terminology.hl7.org/CodeSystem/observation-category",
                "code": "laboratory"
              }
            ]
          }
        ],
        "code": {
          "coding": [
            {
              "code": "6690-2",
              "system": "http://loinc.org",
              "display": "Leukocytes [#/volume] in Blood by Automated count"
            }
          ],
          "text": "Leukocytes [#/volume] in Blood by Automated count"
        },
        "valueQuantity": {
          "system": "http://unitsofmeasure.org",
          "value": 3.9,
          "unit": "10*3/uL",
          "code": "10*3/uL"
        },
        "referenceRange": [
          {
            "low": {
              "value": 3.5,
              "code": "10*3/uL",
              "system": "http://unitsofmeasure.org"
            }
          },
          {
            "high": {
              "value": 10.5,
              "code": "10*3/uL",
              "system": "http://unitsofmeasure.org"
            }
          }
        ],
        "text": {
          "status": "generated",
          "div": "<div xmlns=\"http://www.w3.org/1999/xhtml\"><table class=\"hl7__eu__lab__report\"><tr><th>Test</th><th>27-Feb-2016</th><th>Reference&#xA0;Range</th><th>Unit</th></tr><tr><td>Leukocytes [#/volume] in Blood by Automated count</td><td>3.9</td><td>3.5 - 10.5</td><td></td><td>10*3/uL</td></tr></table></div>"
        },
        "status": "final",
        "subject": {
          "reference": "urn:uuid:fe96ae17-891a-4b44-8530-786cdea5de2e",
          "display": "Pamela Dixon"
        },
        "effectiveDateTime": "2016-02-27T18:20:37Z",
        "specimen": {
          "reference": "urn:uuid:9caa9dcd-9b68-48f0-b923-e74f79a6b591"
        }
      }
    },
    {
      "fullUrl": "urn:uuid:6a0ad26b-737c-4ef5-826f-878cba5abeef",
      "resource": {
        "resourceType": "Observation",
        "id": "6a0ad26b-737c-4ef5-826f-878cba5abeef",
        "meta": {
          "profile": [
            "http://hl7.eu/fhir/laboratory/StructureDefinition/Observation-resultslab-eu-lab"
          ]
        },
        "performer": [
          {
            "display": "The Central European Lab"
          }
        ],
        "category": [
          {
            "coding": [
              {
                "system": "http://terminology.hl7.org/CodeSystem/observation-category",
                "code": "laboratory"
              }
            ]
          }
        ],
        "code": {
          "coding": [
            {
              "code": "789-8",
              "system": "http://loinc.org",
              "display": "Erythrocytes [#/volume] in Blood by Automated count"
            }
          ],
          "text": "Erythrocytes [#/volume] in Blood by Automated count"
        },
        "valueQuantity": {
          "system": "http://unitsofmeasure.org",
          "value": 4.3,
          "unit": "10*6/uL",
          "code": "10*6/uL"
        },
        "referenceRange": [
          {
            "low": {
              "value": 4.5,
              "code": "10*6/uL",
              "system": "http://unitsofmeasure.org"
            }
          },
          {
            "high": {
              "value": 5.5,
              "code": "10*6/uL",
              "system": "http://unitsofmeasure.org"
            }
          }
        ],
        "interpretation": [
          {
            "coding": [
              {
                "code": "L",
                "system": "http://terminology.hl7.org/CodeSystem/v3-ObservationInterpretation",
                "display": "Low"
              }
            ]
          }
        ],
        "text": {
          "status": "generated",
          "div": "<div xmlns=\"http://www.w3.org/1999/xhtml\"><table class=\"hl7__eu__lab__report\"><tr><th>Test</th><th>27-Feb-2016</th><th>Reference&#xA0;Range</th><th>Unit</th></tr><tr><td>Erythrocytes [#/volume] in Blood by Automated count</td><td>4.3</td><td>4.5 - 5.5</td><td>L</td><td>10*6/uL</td></tr></table></div>"
        },
        "status": "final",
        "subject": {
          "reference": "urn:uuid:fe96ae17-891a-4b44-8530-786cdea5de2e",
          "display": "Pamela Dixon"
        },
        "effectiveDateTime": "2016-02-27T18:20:37Z",
        "specimen": {
          "reference": "urn:uuid:9caa9dcd-9b68-48f0-b923-e74f79a6b591"
        }
      }
    },
    {
      "fullUrl": "urn:uuid:83ec7296-ac97-4c66-b8f9-8607a9f82506",
      "resource": {
        "resourceType": "Observation",
        "id": "83ec7296-ac97-4c66-b8f9-8607a9f82506",
        "meta": {
          "profile": [
            "http://hl7.eu/fhir/laboratory/StructureDefinition/Observation-resultslab-eu-lab"
          ]
        },
        "performer": [
          {
            "display": "The Central European Lab"
          }
        ],
        "category": [
          {
            "coding": [
              {
                "system": "http://terminology.hl7.org/CodeSystem/observation-category",
                "code": "laboratory"
              }
            ]
          }
        ],
        "code": {
          "coding": [
            {
              "code": "718-7",
              "system": "http://loinc.org",
              "display": "Hemoglobin [Mass/volume] in Blood"
            }
          ],
          "text": "Hemoglobin [Mass/volume] in Blood"
        },
        "valueQuantity": {
          "system": "http://unitsofmeasure.org",
          "value": 15.2,
          "unit": "g/dL",
          "code": "g/dL"
        },
        "referenceRange": [
          {
            "low": {
              "value": 12,
              "code": "g/dL",
              "system": "http://unitsofmeasure.org"
            }
          },
          {
            "high": {
              "value": 16,
              "code": "g/dL",
              "system": "http://unitsofmeasure.org"
            }
          }
        ],
        "text": {
          "status": "generated",
          "div": "<div xmlns=\"http://www.w3.org/1999/xhtml\"><table class=\"hl7__eu__lab__report\"><tr><th>Test</th><th>27-Feb-2016</th><th>Reference&#xA0;Range</th><th>Unit</th></tr><tr><td>Hemoglobin [Mass/volume] in Blood</td><td>15.2</td><td>12 - 16</td><td></td><td>g/dL</td></tr></table></div>"
        },
        "status": "final",
        "subject": {
          "reference": "urn:uuid:fe96ae17-891a-4b44-8530-786cdea5de2e",
          "display": "Pamela Dixon"
        },
        "effectiveDateTime": "2016-02-27T18:20:37Z",
        "specimen": {
          "reference": "urn:uuid:9caa9dcd-9b68-48f0-b923-e74f79a6b591"
        }
      }
    },
    {
      "fullUrl": "urn:uuid:a27a080f-6ff4-4cb4-8635-f6f3190c8fad",
      "resource": {
        "resourceType": "Observation",
        "id": "a27a080f-6ff4-4cb4-8635-f6f3190c8fad",
        "meta": {
          "profile": [
            "http://hl7.eu/fhir/laboratory/StructureDefinition/Observation-resultslab-eu-lab"
          ]
        },
        "performer": [
          {
            "display": "The Central European Lab"
          }
        ],
        "category": [
          {
            "coding": [
              {
                "system": "http://terminology.hl7.org/CodeSystem/observation-category",
                "code": "laboratory"
              }
            ]
          }
        ],
        "code": {
          "coding": [
            {
              "code": "4544-3",
              "system": "http://loinc.org",
              "display": "Hematocrit [Volume Fraction] of Blood by Automated count"
            }
          ],
          "text": "Hematocrit [Volume Fraction] of Blood by Automated count"
        },
        "valueQuantity": {
          "system": "http://unitsofmeasure.org",
          "value": 49.4,
          "unit": "%",
          "code": "%"
        },
        "referenceRange": [
          {
            "low": {
              "value": 36,
              "code": "%",
              "system": "http://unitsofmeasure.org"
            }
          },
          {
            "high": {
              "value": 48,
              "code": "%",
              "system": "http://unitsofmeasure.org"
            }
          }
        ],
        "interpretation": [
          {
            "coding": [
              {
                "code": "H",
                "system": "http://terminology.hl7.org/CodeSystem/v3-ObservationInterpretation",
                "display": "High"
              }
            ]
          }
        ],
        "text": {
          "status": "generated",
          "div": "<div xmlns=\"http://www.w3.org/1999/xhtml\"><table class=\"hl7__eu__lab__report\"><tr><th>Test</th><th>27-Feb-2016</th><th>Reference&#xA0;Range</th><th>Unit</th></tr><tr><td>Hematocrit [Volume Fraction] of Blood by Automated count</td><td>49.4</td><td>36 - 48</td><td>H</td><td>%</td></tr></table></div>"
        },
        "status": "final",
        "subject": {
          "reference": "urn:uuid:fe96ae17-891a-4b44-8530-786cdea5de2e",
          "display": "Pamela Dixon"
        },
        "effectiveDateTime": "2016-02-27T18:20:37Z",
        "specimen": {
          "reference": "urn:uuid:9caa9dcd-9b68-48f0-b923-e74f79a6b591"
        }
      }
    },
    {
      "fullUrl": "urn:uuid:109bc255-bc52-4037-a54c-557cc59c4d8c",
      "resource": {
        "resourceType": "Observation",
        "id": "109bc255-bc52-4037-a54c-557cc59c4d8c",
        "meta": {
          "profile": [
            "http://hl7.eu/fhir/laboratory/StructureDefinition/Observation-resultslab-eu-lab"
          ]
        },
        "performer": [
          {
            "display": "The Central European Lab"
          }
        ],
        "category": [
          {
            "coding": [
              {
                "system": "http://terminology.hl7.org/CodeSystem/observation-category",
                "code": "laboratory"
              }
            ]
          }
        ],
        "code": {
          "coding": [
            {
              "code": "787-2",
              "system": "http://loinc.org",
              "display": "MCV [Entitic volume] by Automated count"
            }
          ],
          "text": "MCV [Entitic volume] by Automated count"
        },
        "valueQuantity": {
          "system": "http://unitsofmeasure.org",
          "value": 85.2,
          "unit": "fL",
          "code": "fL"
        },
        "referenceRange": [
          {
            "low": {
              "value": 82,
              "code": "fL",
              "system": "http://unitsofmeasure.org"
            }
          },
          {
            "high": {
              "value": 98,
              "code": "fL",
              "system": "http://unitsofmeasure.org"
            }
          }
        ],
        "text": {
          "status": "generated",
          "div": "<div xmlns=\"http://www.w3.org/1999/xhtml\"><table class=\"hl7__eu__lab__report\"><tr><th>Test</th><th>27-Feb-2016</th><th>Reference&#xA0;Range</th><th>Unit</th></tr><tr><td>MCV [Entitic volume] by Automated count</td><td>85.2</td><td>82 - 98</td><td></td><td>fL</td></tr></table></div>"
        },
        "status": "final",
        "subject": {
          "reference": "urn:uuid:fe96ae17-891a-4b44-8530-786cdea5de2e",
          "display": "Pamela Dixon"
        },
        "effectiveDateTime": "2016-02-27T18:20:37Z",
        "specimen": {
          "reference": "urn:uuid:9caa9dcd-9b68-48f0-b923-e74f79a6b591"
        }
      }
    },
    {
      "fullUrl": "urn:uuid:d74f0abd-f91e-4a21-aac9-fd8545788a6d",
      "resource": {
        "resourceType": "Observation",
        "id": "d74f0abd-f91e-4a21-aac9-fd8545788a6d",
        "meta": {
          "profile": [
            "http://hl7.eu/fhir/laboratory/StructureDefinition/Observation-resultslab-eu-lab"
          ]
        },
        "performer": [
          {
            "display": "The Central European Lab"
          }
        ],
        "category": [
          {
            "coding": [
              {
                "system": "http://terminology.hl7.org/CodeSystem/observation-category",
                "code": "laboratory"
              }
            ]
          }
        ],
        "code": {
          "coding": [
            {
              "code": "785-6",
              "system": "http://loinc.org",
              "display": "MCH [Entitic mass] by Automated count"
            }
          ],
          "text": "MCH [Entitic mass] by Automated count"
        },
        "valueQuantity": {
          "system": "http://unitsofmeasure.org",
          "value": 30.7,
          "unit": "pg",
          "code": "pg"
        },
        "referenceRange": [
          {
            "low": {
              "value": 27.5,
              "code": "pg",
              "system": "http://unitsofmeasure.org"
            }
          },
          {
            "high": {
              "value": 34.5,
              "code": "pg",
              "system": "http://unitsofmeasure.org"
            }
          }
        ],
        "text": {
          "status": "generated",
          "div": "<div xmlns=\"http://www.w3.org/1999/xhtml\"><table class=\"hl7__eu__lab__report\"><tr><th>Test</th><th>27-Feb-2016</th><th>Reference&#xA0;Range</th><th>Unit</th></tr><tr><td>MCH [Entitic mass] by Automated count</td><td>30.7</td><td>27.5 - 34.5</td><td></td><td>pg</td></tr></table></div>"
        },
        "status": "final",
        "subject": {
          "reference": "urn:uuid:fe96ae17-891a-4b44-8530-786cdea5de2e",
          "display": "Pamela Dixon"
        },
        "effectiveDateTime": "2016-02-27T18:20:37Z",
        "specimen": {
          "reference": "urn:uuid:9caa9dcd-9b68-48f0-b923-e74f79a6b591"
        }
      }
    },
    {
      "fullUrl": "urn:uuid:1c19b568-977c-4058-8247-c4a48197637d",
      "resource": {
        "resourceType": "Observation",
        "id": "1c19b568-977c-4058-8247-c4a48197637d",
        "meta": {
          "profile": [
            "http://hl7.eu/fhir/laboratory/StructureDefinition/Observation-resultslab-eu-lab"
          ]
        },
        "performer": [
          {
            "display": "The Central European Lab"
          }
        ],
        "category": [
          {
            "coding": [
              {
                "system": "http://terminology.hl7.org/CodeSystem/observation-category",
                "code": "laboratory"
              }
            ]
          }
        ],
        "code": {
          "coding": [
            {
              "code": "786-4",
              "system": "http://loinc.org",
              "display": "MCHC [Mass/volume] by Automated count"
            }
          ],
          "text": "MCHC [Mass/volume] by Automated count"
        },
        "valueQuantity": {
          "system": "http://unitsofmeasure.org",
          "value": 33.3,
          "unit": "g/dL",
          "code": "g/dL"
        },
        "referenceRange": [
          {
            "low": {
              "value": 32,
              "code": "g/dL",
              "system": "http://unitsofmeasure.org"
            }
          },
          {
            "high": {
              "value": 37,
              "code": "g/dL",
              "system": "http://unitsofmeasure.org"
            }
          }
        ],
        "text": {
          "status": "generated",
          "div": "<div xmlns=\"http://www.w3.org/1999/xhtml\"><table class=\"hl7__eu__lab__report\"><tr><th>Test</th><th>27-Feb-2016</th><th>Reference&#xA0;Range</th><th>Unit</th></tr><tr><td>MCHC [Mass/volume] by Automated count</td><td>33.3</td><td>32 - 37</td><td></td><td>g/dL</td></tr></table></div>"
        },
        "status": "final",
        "subject": {
          "reference": "urn:uuid:fe96ae17-891a-4b44-8530-786cdea5de2e",
          "display": "Pamela Dixon"
        },
        "effectiveDateTime": "2016-02-27T18:20:37Z",
        "specimen": {
          "reference": "urn:uuid:9caa9dcd-9b68-48f0-b923-e74f79a6b591"
        }
      }
    },
    {
      "fullUrl": "urn:uuid:5d836f11-e7cb-4ed8-8ca0-a4a94cc9a4fb",
      "resource": {
        "resourceType": "Observation",
        "id": "5d836f11-e7cb-4ed8-8ca0-a4a94cc9a4fb",
        "meta": {
          "profile": [
            "http://hl7.eu/fhir/laboratory/StructureDefinition/Observation-resultslab-eu-lab"
          ]
        },
        "performer": [
          {
            "display": "The Central European Lab"
          }
        ],
        "category": [
          {
            "coding": [
              {
                "system": "http://terminology.hl7.org/CodeSystem/observation-category",
                "code": "laboratory"
              }
            ]
          }
        ],
        "code": {
          "coding": [
            {
              "code": "21000-5",
              "system": "http://loinc.org",
              "display": "Erythrocyte distribution width [Entitic volume] by Automated count"
            }
          ],
          "text": "Erythrocyte distribution width [Entitic volume] by Automated count"
        },
        "valueQuantity": {
          "system": "http://unitsofmeasure.org",
          "value": 45,
          "unit": "fL",
          "code": "fL"
        },
        "referenceRange": [
          {
            "low": {
              "value": 36,
              "code": "fL",
              "system": "http://unitsofmeasure.org"
            }
          },
          {
            "high": {
              "value": 55,
              "code": "fL",
              "system": "http://unitsofmeasure.org"
            }
          }
        ],
        "text": {
          "status": "generated",
          "div": "<div xmlns=\"http://www.w3.org/1999/xhtml\"><table class=\"hl7__eu__lab__report\"><tr><th>Test</th><th>27-Feb-2016</th><th>Reference&#xA0;Range</th><th>Unit</th></tr><tr><td>Erythrocyte distribution width [Entitic volume] by Automated count</td><td>45.0</td><td>36 - 55</td><td></td><td>fL</td></tr></table></div>"
        },
        "status": "final",
        "subject": {
          "reference": "urn:uuid:fe96ae17-891a-4b44-8530-786cdea5de2e",
          "display": "Pamela Dixon"
        },
        "effectiveDateTime": "2016-02-27T18:20:37Z",
        "specimen": {
          "reference": "urn:uuid:9caa9dcd-9b68-48f0-b923-e74f79a6b591"
        }
      }
    },
    {
      "fullUrl": "urn:uuid:a69ab926-267d-41c0-a583-a4d39342dc9f",
      "resource": {
        "resourceType": "Observation",
        "id": "a69ab926-267d-41c0-a583-a4d39342dc9f",
        "meta": {
          "profile": [
            "http://hl7.eu/fhir/laboratory/StructureDefinition/Observation-resultslab-eu-lab"
          ]
        },
        "performer": [
          {
            "display": "The Central European Lab"
          }
        ],
        "category": [
          {
            "coding": [
              {
                "system": "http://terminology.hl7.org/CodeSystem/observation-category",
                "code": "laboratory"
              }
            ]
          }
        ],
        "code": {
          "coding": [
            {
              "code": "777-3",
              "system": "http://loinc.org",
              "display": "Platelets [#/volume] in Blood by Automated count"
            }
          ],
          "text": "Platelets [#/volume] in Blood by Automated count"
        },
        "valueQuantity": {
          "system": "http://unitsofmeasure.org",
          "value": 256.1,
          "unit": "10*3/uL",
          "code": "10*3/uL"
        },
        "referenceRange": [
          {
            "low": {
              "value": 150,
              "code": "10*3/uL",
              "system": "http://unitsofmeasure.org"
            }
          },
          {
            "high": {
              "value": 450,
              "code": "10*3/uL",
              "system": "http://unitsofmeasure.org"
            }
          }
        ],
        "text": {
          "status": "generated",
          "div": "<div xmlns=\"http://www.w3.org/1999/xhtml\"><table class=\"hl7__eu__lab__report\"><tr><th>Test</th><th>27-Feb-2016</th><th>Reference&#xA0;Range</th><th>Unit</th></tr><tr><td>Platelets [#/volume] in Blood by Automated count</td><td>256.1</td><td>150 - 450</td><td></td><td>10*3/uL</td></tr></table></div>"
        },
        "status": "final",
        "subject": {
          "reference": "urn:uuid:fe96ae17-891a-4b44-8530-786cdea5de2e",
          "display": "Pamela Dixon"
        },
        "effectiveDateTime": "2016-02-27T18:20:37Z",
        "specimen": {
          "reference": "urn:uuid:9caa9dcd-9b68-48f0-b923-e74f79a6b591"
        }
      }
    },
    {
      "fullUrl": "urn:uuid:29b8961c-86cc-475d-92d2-0dc6db7edd44",
      "resource": {
        "resourceType": "Observation",
        "id": "29b8961c-86cc-475d-92d2-0dc6db7edd44",
        "meta": {
          "profile": [
            "http://hl7.eu/fhir/laboratory/StructureDefinition/Observation-resultslab-eu-lab"
          ]
        },
        "performer": [
          {
            "display": "The Central European Lab"
          }
        ],
        "category": [
          {
            "coding": [
              {
                "system": "http://terminology.hl7.org/CodeSystem/observation-category",
                "code": "laboratory"
              }
            ]
          }
        ],
        "code": {
          "coding": [
            {
              "code": "32207-3",
              "system": "http://loinc.org",
              "display": "Platelet distribution width [Entitic volume] in Blood by Automated count"
            }
          ],
          "text": "Platelet distribution width [Entitic volume] in Blood by Automated count"
        },
        "valueQuantity": {
          "system": "http://unitsofmeasure.org",
          "value": 429.2,
          "unit": "fL",
          "code": "fL"
        },
        "referenceRange": [
          {
            "low": {
              "value": 11,
              "code": "fL",
              "system": "http://unitsofmeasure.org"
            }
          },
          {
            "high": {
              "value": 15,
              "code": "fL",
              "system": "http://unitsofmeasure.org"
            }
          }
        ],
        "interpretation": [
          {
            "coding": [
              {
                "code": "H",
                "system": "http://terminology.hl7.org/CodeSystem/v3-ObservationInterpretation",
                "display": "High"
              }
            ]
          }
        ],
        "text": {
          "status": "generated",
          "div": "<div xmlns=\"http://www.w3.org/1999/xhtml\"><table class=\"hl7__eu__lab__report\"><tr><th>Test</th><th>27-Feb-2016</th><th>Reference&#xA0;Range</th><th>Unit</th></tr><tr><td>Platelet distribution width [Entitic volume] in Blood by Automated count</td><td>429.2</td><td>11 - 15</td><td>H</td><td>fL</td></tr></table></div>"
        },
        "status": "final",
        "subject": {
          "reference": "urn:uuid:fe96ae17-891a-4b44-8530-786cdea5de2e",
          "display": "Pamela Dixon"
        },
        "effectiveDateTime": "2016-02-27T18:20:37Z",
        "specimen": {
          "reference": "urn:uuid:9caa9dcd-9b68-48f0-b923-e74f79a6b591"
        }
      }
    },
    {
      "fullUrl": "urn:uuid:0b94dc6a-8af8-4608-b829-be59aabb7ad8",
      "resource": {
        "resourceType": "Observation",
        "id": "0b94dc6a-8af8-4608-b829-be59aabb7ad8",
        "meta": {
          "profile": [
            "http://hl7.eu/fhir/laboratory/StructureDefinition/Observation-resultslab-eu-lab"
          ]
        },
        "performer": [
          {
            "display": "The Central European Lab"
          }
        ],
        "category": [
          {
            "coding": [
              {
                "system": "http://terminology.hl7.org/CodeSystem/observation-category",
                "code": "laboratory"
              }
            ]
          }
        ],
        "code": {
          "coding": [
            {
              "code": "32623-1",
              "system": "http://loinc.org",
              "display": "Platelet mean volume [Entitic volume] in Blood by Automated count"
            }
          ],
          "text": "Platelet mean volume [Entitic volume] in Blood by Automated count"
        },
        "valueQuantity": {
          "system": "http://unitsofmeasure.org",
          "value": 11.6,
          "unit": "fL",
          "code": "fL"
        },
        "referenceRange": [
          {
            "low": {
              "value": 7.2,
              "code": "fL",
              "system": "http://unitsofmeasure.org"
            }
          },
          {
            "high": {
              "value": 13.8,
              "code": "fL",
              "system": "http://unitsofmeasure.org"
            }
          }
        ],
        "text": {
          "status": "generated",
          "div": "<div xmlns=\"http://www.w3.org/1999/xhtml\"><table class=\"hl7__eu__lab__report\"><tr><th>Test</th><th>27-Feb-2016</th><th>Reference&#xA0;Range</th><th>Unit</th></tr><tr><td>Platelet mean volume [Entitic volume] in Blood by Automated count</td><td>11.6</td><td>7.2 - 13.8</td><td></td><td>fL</td></tr></table></div>"
        },
        "status": "final",
        "subject": {
          "reference": "urn:uuid:fe96ae17-891a-4b44-8530-786cdea5de2e",
          "display": "Pamela Dixon"
        },
        "effectiveDateTime": "2016-02-27T18:20:37Z",
        "specimen": {
          "reference": "urn:uuid:9caa9dcd-9b68-48f0-b923-e74f79a6b591"
        }
      }
    },
    {
      "fullUrl": "urn:uuid:c4595932-5cf7-4400-ab51-54ed2edd2efb",
      "resource": {
        "resourceType": "Device",
        "id": "c4595932-5cf7-4400-ab51-54ed2edd2efb",
        "deviceName": [
          {
            "name": "SYNDERAI Synthetic Generator",
            "type": "manufacturer-name"
          }
        ],
        "version": [
          {
            "value": "5.0"
          }
        ],
        "text": {
          "status": "generated",
          "div": "<div xmlns=\"http://www.w3.org/1999/xhtml\">SYNDERAI Synthetic Generator v5.0</div>"
        },
        "status": "active\"",
        "distinctIdentifier": "synderai-generator-50",
        "manufacturer": "SYNDERAI Project"
      }
    },
    {
      "fullUrl": "urn:uuid:42f11f93-aa1f-4267-b069-092491538412",
      "resource": {
        "resourceType": "Provenance",
        "id": "42f11f93-aa1f-4267-b069-092491538412",
        "target": [
          {
            "reference": "Patient/fe96ae17-891a-4b44-8530-786cdea5de2e"
          },
          {
            "reference": "Bundle/16b2f147-6e8a-4d50-b9fe-d7cabda92eef"
          },
          {
            "reference": "Composition/a30c082d-9fae-4003-b63f-c36dfdaf446f"
          },
          {
            "reference": "PractitionerRole/5cb9f982-a23a-46c3-8d3d-fc2497eb5abb"
          },
          {
            "reference": "Practitioner/a8c93d4c-4bb4-4931-b965-5080d5f3bdc4"
          },
          {
            "reference": "PractitionerRole/1f1b425c-775f-4213-988e-efc0ba472633"
          },
          {
            "reference": "Organization/d7a9eccc-e82c-4cb0-a1c0-9c337c72b357"
          }
        ],
        "activity": {
          "text": "Synthetic Example Data Generation"
        },
        "policy": [
          "https://synderai.net/synderai-synthetic-data-policy"
        ],
        "agent": [
          {
            "type": {
              "text": "author"
            },
            "who": {
              "reference": "Device/c4595932-5cf7-4400-ab51-54ed2edd2efb"
            }
          }
        ],
        "reason": [
          {
            "text": "Interoperability Testing and Training (non-clinical use)"
          }
        ],
        "text": {
          "status": "generated",
          "div": "<div xmlns=\"http://www.w3.org/1999/xhtml\">Provenance for SYNDERAI Synthetic Example Data Resource</div>"
        },
        "recorded": "2016-02-27T19:20:37Z"
      }
    },
    {
      "fullUrl": "urn:uuid:5cb9f982-a23a-46c3-8d3d-fc2497eb5abb",
      "resource": {
        "resourceType": "PractitionerRole",
        "id": "5cb9f982-a23a-46c3-8d3d-fc2497eb5abb",
        "meta": {
          "profile": [
            "http://hl7.eu/fhir/base/StructureDefinition/practitionerRole-eu"
          ]
        },
        "text": {
          "status": "generated",
          "div": "<div xmlns=\"http://www.w3.org/1999/xhtml\">Laboratory Role Id: 5cb9f982-a23a-46c3-8d3d-fc2497eb5abb</div>"
        },
        "practitioner": {
          "reference": "urn:uuid:a8c93d4c-4bb4-4931-b965-5080d5f3bdc4"
        }
      }
    },
    {
      "fullUrl": "urn:uuid:a8c93d4c-4bb4-4931-b965-5080d5f3bdc4",
      "resource": {
        "resourceType": "Practitioner",
        "id": "a8c93d4c-4bb4-4931-b965-5080d5f3bdc4",
        "meta": {
          "profile": [
            "http://hl7.eu/fhir/base/StructureDefinition/practitioner-eu"
          ]
        },
        "identifier": [
          {
            "assigner": {
              "display": "HL7 Europe"
            },
            "system": "urn:oid:2.16.840.1.113883.2.51.999",
            "value": "09e780a2-7fb0-4f07-b82f-7944722a075a"
          }
        ],
        "name": [
          {
            "prefix": [
              "dr"
            ],
            "given": [
              "Ex"
            ],
            "family": "Ample"
          }
        ],
        "address": [
          {
            "line": [
              "Laboratoire Central Européenne",
              "Boulevard du Jardin Botanique 32"
            ],
            "postalCode": "1000",
            "city": "Brussels",
            "country": "Belgium"
          }
        ],
        "text": {
          "status": "generated",
          "div": "<div xmlns=\"http://www.w3.org/1999/xhtml\">Laboratory: Laboratoire Central Européenne, 1000 Brussels, Belgium</div>"
        }
      }
    }
  ],
  "type": "document",
  "timestamp": "2016-02-27T19:20:37Z"
}
