{
  "resourceType": "Bundle",
  "id": "4f31c292-8980-495e-8f91-2791da796aa3",
  "meta": {
    "profile": [
      "http://hl7.eu/fhir/laboratory/StructureDefinition/Bundle-eu-lab"
    ]
  },
  "identifier": {
    "assigner": {
      "display": "HL7 Europe"
    },
    "system": "urn:oid:2.16.840.1.113883.2.51.999",
    "value": "cd90477e-708f-453e-aa8f-7e4d04d3489f"
  },
  "entry": [
    {
      "fullUrl": "urn:uuid:14860df8-85f4-44a2-be83-ef046fd7c4b4",
      "resource": {
        "resourceType": "Composition",
        "id": "14860df8-85f4-44a2-be83-ef046fd7c4b4",
        "meta": {
          "profile": [
            "http://hl7.eu/fhir/laboratory/StructureDefinition/Composition-eu-lab"
          ]
        },
        "identifier": {
          "assigner": {
            "display": "HL7 Europe"
          },
          "system": "urn:oid:2.16.840.1.113883.2.51.999",
          "value": "68b7fc94-e398-47f8-b13d-bcf1a7c875e3"
        },
        "author": [
          {
            "reference": "urn:uuid:d4695568-055f-4ca4-9ca9-e23cc913050c"
          }
        ],
        "category": [
          {
            "coding": [
              {
                "code": "26436-6",
                "system": "http://loinc.org",
                "display": "Laboratory studies (set)"
              }
            ]
          }
        ],
        "type": {
          "coding": [
            {
              "code": "11502-2",
              "system": "http://loinc.org",
              "display": "Laboratory report"
            }
          ],
          "text": "Laboratory Report"
        },
        "section": [
          {
            "code": {
              "coding": [
                {
                  "code": "26436-6",
                  "system": "http://loinc.org",
                  "display": "Laboratory studies (set)"
                }
              ],
              "text": "Laboratory studies"
            },
            "section": [
              {
                "code": {
                  "coding": [
                    {
                      "code": "$18723-7",
                      "system": "http://loinc.org",
                      "display": "Hematology studies (set)"
                    }
                  ],
                  "text": "Hematology"
                },
                "entry": [
                  {
                    "reference": "urn:uuid:35df8464-598e-4bf8-afc1-9daf993b8a17"
                  },
                  {
                    "reference": "urn:uuid:b11a4cf0-e7f5-4d3c-b0db-c90307f8be68"
                  },
                  {
                    "reference": "urn:uuid:954673d9-6a3b-484e-bdfa-13f288026fc5"
                  },
                  {
                    "reference": "urn:uuid:4f53d4a1-34e5-4d2b-89f6-008d1d9c5ea3"
                  },
                  {
                    "reference": "urn:uuid:87635833-66c4-463c-adbe-f2dfba80e46c"
                  },
                  {
                    "reference": "urn:uuid:a762125d-7de0-4024-b022-1f3933634dc8"
                  },
                  {
                    "reference": "urn:uuid:ac926b34-1fe6-4111-9b65-9415340887c2"
                  },
                  {
                    "reference": "urn:uuid:ea492354-5b8a-4958-ab4a-73b5fb142700"
                  },
                  {
                    "reference": "urn:uuid:159ee519-dc25-4190-95a4-d6c42095914c"
                  }
                ],
                "text": {
                  "status": "generated",
                  "div": "<div xmlns=\"http://www.w3.org/1999/xhtml\"><h3>Hematology</h3><table class=\"hl7__eu__lab__report\"><thead><tr><th>Test</th><th>01-JUL-2024</th><th>Reference&#xA0;Range</th><th>Unit</th></tr></thead><tbody><tr><td>Leukocytes [#/volume] in Blood by Automated count</td><td>6.1</td><td>3.6 - 10.5</td><td>10*3/uL</td></tr><tr><td>Erythrocytes [#/volume] in Blood by Automated count</td><td>4.9</td><td>4.3 - 6.1</td><td>10*6/uL</td></tr><tr><td>Hemoglobin [Mass/volume] in Blood</td><td><strong>12.4 L</strong></td><td>13.5 - 17.5</td><td>g/dL</td></tr><tr><td>Hematocrit [Volume Fraction] of Blood by Automated count</td><td>47.0</td><td>38 - 50</td><td>%</td></tr><tr><td>MCV [Entitic volume] by Automated count</td><td>80.0</td><td>76 - 98</td><td>fL</td></tr><tr><td>MCH [Entitic mass] by Automated count</td><td>31.2</td><td>27 - 33</td><td>pg</td></tr><tr><td>MCHC [Mass/volume] by Automated count</td><td>35.4</td><td>31 - 37</td><td>g/dL</td></tr><tr><td>Erythrocyte distribution width [Ratio] by Automated count</td><td>12.4</td><td>11.6 - 16.5</td><td>%</td></tr><tr><td>Platelets [#/volume] in Blood by Automated count</td><td>381.9</td><td>155 - 415</td><td>10*3/uL</td></tr></tbody></table></div>"
                },
                "title": "Hematology"
              },
              {
                "code": {
                  "coding": [
                    {
                      "code": "$18719-5",
                      "system": "http://loinc.org",
                      "display": "Chemistry studies (set)"
                    }
                  ],
                  "text": "Chemistry"
                },
                "entry": [
                  {
                    "reference": "urn:uuid:8aaf00ad-4c03-42bc-8a66-f1b4b068ec81"
                  },
                  {
                    "reference": "urn:uuid:abd9f4fd-acfa-4282-837f-b723493f0761"
                  },
                  {
                    "reference": "urn:uuid:7ab96855-9ab1-4aee-a441-58db0b0d841e"
                  },
                  {
                    "reference": "urn:uuid:d23e5336-3f85-44c2-8e3a-d1c9f0fd9d8b"
                  },
                  {
                    "reference": "urn:uuid:bc832e9f-71f5-4722-86f1-f65eeb935e92"
                  },
                  {
                    "reference": "urn:uuid:742481de-419f-4fa0-8e92-bc69c38b78e8"
                  },
                  {
                    "reference": "urn:uuid:55d721d4-0b44-4636-abf2-7fa81982e8d7"
                  },
                  {
                    "reference": "urn:uuid:9f035698-dfc3-428e-b5bf-550b7d1516aa"
                  },
                  {
                    "reference": "urn:uuid:eca51f2b-a292-43fa-8702-e42036fd77dc"
                  },
                  {
                    "reference": "urn:uuid:ed641955-3cca-49bc-a886-8ff6e3606866"
                  },
                  {
                    "reference": "urn:uuid:ebdca275-5806-4f12-86aa-200dcebfeb83"
                  },
                  {
                    "reference": "urn:uuid:4d57d254-2288-4338-90de-7c27f35c0b6b"
                  },
                  {
                    "reference": "urn:uuid:097a6bba-da1d-4b44-beb4-18be7017731a"
                  },
                  {
                    "reference": "urn:uuid:c0474bac-f5ec-4573-811e-cc1a66da54e1"
                  },
                  {
                    "reference": "urn:uuid:2a31980a-c920-4a84-bc94-442d3d8e3c0a"
                  },
                  {
                    "reference": "urn:uuid:ba41e477-f9a6-4dd0-85db-962dd10c743b"
                  },
                  {
                    "reference": "urn:uuid:3e913c34-7faa-45db-839b-1267f7632610"
                  },
                  {
                    "reference": "urn:uuid:9812b8c3-c0f5-4cf4-bd36-b606a8beb6ac"
                  },
                  {
                    "reference": "urn:uuid:ef22031f-44ba-4d6e-852b-3faf046ae133"
                  },
                  {
                    "reference": "urn:uuid:d983588d-001a-44b5-8311-f800c1986902"
                  },
                  {
                    "reference": "urn:uuid:eea23d81-e99b-4196-aea6-772a47eb024f"
                  },
                  {
                    "reference": "urn:uuid:b2f39138-ef2d-4d5e-8b4c-5a4ab7507d2b"
                  },
                  {
                    "reference": "urn:uuid:7b3ac34f-45af-410c-a6cd-dd4488d6ba94"
                  },
                  {
                    "reference": "urn:uuid:f4b87256-6fca-4ff5-b7a9-2b5420da3de7"
                  },
                  {
                    "reference": "urn:uuid:f8337f0c-d8c5-47fe-b46a-b5df4f686364"
                  },
                  {
                    "reference": "urn:uuid:5e6111c2-95fb-4373-8c87-2074606ed0cb"
                  }
                ],
                "text": {
                  "status": "generated",
                  "div": "<div xmlns=\"http://www.w3.org/1999/xhtml\"><h3>Chemistry</h3><table class=\"hl7__eu__lab__report\"><thead><tr><th>Test</th><th>01-JUL-2024</th><th>Reference&#xA0;Range</th><th>Unit</th></tr></thead><tbody><tr><td>Natriuretic peptide.B prohormone N-Terminal [Mass/volume] in Serum or Plasma</td><td><strong>1004.9 H</strong></td><td>300 - 900</td><td>pg/mL</td></tr><tr><td>Glucose [Mass/volume] in Serum or Plasma</td><td><strong>192.0 H</strong></td><td>70 - 140</td><td>mg/dL</td></tr><tr><td>Urea nitrogen [Mass/volume] in Serum or Plasma</td><td>14.2</td><td>7 - 50</td><td>mg/dL</td></tr><tr><td>Creatinine [Mass/volume] in Serum or Plasma</td><td><strong>0.7 L</strong></td><td>0.9 - 1.3</td><td>mg/dL</td></tr><tr><td>Calcium [Mass/volume] in Serum or Plasma</td><td>9.1</td><td>8.5 - 10.5</td><td>mg/dL</td></tr><tr><td>Sodium [Moles/volume] in Serum or Plasma</td><td>140.6</td><td>135 - 145</td><td>mmol/L</td></tr><tr><td>Potassium [Moles/volume] in Serum or Plasma</td><td>5.0</td><td>3.5 - 5.1</td><td>mmol/L</td></tr><tr><td>Chloride [Moles/volume] in Serum or Plasma</td><td>102.8</td><td>98 - 108</td><td>mmol/L</td></tr><tr><td>Carbon dioxide, total [Moles/volume] in Serum or Plasma</td><td>27.0</td><td>22 - 32</td><td>mmol/L</td></tr><tr><td>Protein [Mass/volume] in Serum or Plasma</td><td>6.9</td><td>6 - 8.3</td><td>g/dL</td></tr><tr><td>Albumin [Mass/volume] in Serum or Plasma</td><td>4.7</td><td>3.5 - 5.5</td><td>g/dL</td></tr><tr><td>Bilirubin.total [Mass/volume] in Serum or Plasma</td><td>0.5</td><td>0.3 - 1.2</td><td>mg/dL</td></tr><tr><td>Alkaline phosphatase [Enzymatic activity/volume] in Serum or Plasma</td><td>75.8</td><td>40 - 117</td><td>U/L</td></tr><tr><td>Alanine aminotransferase [Enzymatic activity/volume] in Serum or Plasma</td><td>10.9</td><td>10 - 66</td><td>U/L</td></tr><tr><td>Aspartate aminotransferase [Enzymatic activity/volume] in Serum or Plasma</td><td>23.5</td><td>10 - 40</td><td>U/L</td></tr><tr><td>Magnesium [Mass/volume] in Serum or Plasma</td><td>2.3</td><td>1.6 - 2.6</td><td>mg/dL</td></tr><tr><td>Cholesterol [Mass/volume] in Serum or Plasma</td><td><strong>247.1 H</strong></td><td>0 - 200</td><td>mg/dL</td></tr><tr><td>Triglyceride [Mass/volume] in Serum or Plasma</td><td><strong>426.7 H</strong></td><td>0 - 199</td><td>mg/dL</td></tr><tr><td>Cholesterol in LDL [Mass/volume] in Serum or Plasma by Direct assay</td><td><strong>139.0 H</strong></td><td>0 - 130</td><td>mg/dL</td></tr><tr><td>Cholesterol in HDL [Mass/volume] in Serum or Plasma</td><td><strong>22.8 L</strong></td><td>40 - 100</td><td>mg/dL</td></tr><tr><td>Hemoglobin A1c/Hemoglobin.total in Blood</td><td>5.5</td><td>4.5 - 6.4</td><td>%</td></tr><tr><td>Troponin I.cardiac [Mass/volume] in Serum or Plasma by High sensitivity method</td><td>0.0</td><td>0 - 19.9</td><td>pg/mL</td></tr><tr><td>Ferritin [Mass/volume] in Serum or Plasma</td><td>138.9</td><td>30 - 300</td><td>ug/L</td></tr><tr><td>Iron [Mass/volume] in Serum or Plasma</td><td>154.7</td><td>65 - 300</td><td>ug/dL</td></tr><tr><td>Iron binding capacity [Mass/volume] in Serum or Plasma</td><td>335.9</td><td>250 - 450</td><td>ug/dL</td></tr><tr><td>Iron saturation [Mass Fraction] in Serum or Plasma</td><td>40.0</td><td>15 - 45</td><td>%</td></tr></tbody></table></div>"
                },
                "title": "Chemistry"
              }
            ],
            "title": "Laboratory Report"
          },
          {
            "text": {
              "status": "generated",
              "div": "<div xmlns=\"http://www.w3.org/1999/xhtml\"><h3>Annotation</h3><table class=\"hl7__eu__lab__report\"><tr><th>Conclusion and Recommendations based on this report and previous findings known to us</th></tr><tr><td>The patient shows elevated NT-proBNP, suggesting possible heart failure or cardiac strain. There is mild normocytic anemia. Glucose is acutely elevated, but HbA1c is within normal range, indicating possible stress hyperglycemia. Lipid profile is atherogenic (high total cholesterol, LDL, triglycerides, and low HDL). Renal and liver function are within normal limits. No acute myocardial injury is detected. Recommend clinical correlation for cardiac status and metabolic risk management.</td></tr></table></div>"
            },
            "code": {
              "coding": [
                {
                  "system": "http://loinc.org",
                  "code": "48767-8",
                  "display": "Annotation comment"
                }
              ]
            },
            "title": "Annotation comment"
          }
        ],
        "status": "final",
        "subject": {
          "reference": "urn:uuid:7da51479-324d-4c72-861d-7486730e7909",
          "display": "Timothy Smith"
        },
        "date": "2024-07-01T17:48:21Z",
        "title": "Laboratory Report",
        "confidentiality": "N"
      }
    },
    {
      "fullUrl": "urn:uuid:3fe328fe-e6bd-4936-a97e-be70ead392de",
      "resource": {
        "resourceType": "DiagnosticReport",
        "id": "3fe328fe-e6bd-4936-a97e-be70ead392de",
        "meta": {
          "profile": [
            "http://hl7.eu/fhir/laboratory/StructureDefinition/DiagnosticReport-eu-lab"
          ]
        },
        "identifier": [
          {
            "assigner": {
              "display": "HL7 Europe"
            },
            "system": "urn:oid:2.16.840.1.113883.2.51.999",
            "value": "303545a8-33e9-4c57-ad11-1b21bca85550"
          }
        ],
        "extension": [
          {
            "url": "http://hl7.org/fhir/5.0/StructureDefinition/extension-DiagnosticReport.composition",
            "valueReference": {
              "reference": "urn:uuid:68b7fc94-e398-47f8-b13d-bcf1a7c875e3"
            }
          }
        ],
        "category": [
          {
            "coding": [
              {
                "code": "26436-6",
                "system": "http://loinc.org",
                "display": "Laboratory studies (set)"
              }
            ]
          }
        ],
        "specimen": [
          {
            "reference": "urn:uuid:d682e2c9-be3e-41d0-a1c0-5ad9da70590d"
          },
          {
            "reference": "urn:uuid:64c15bf8-b782-4f6c-988b-483d1b592a4c"
          },
          {
            "reference": "urn:uuid:64c15bf8-b782-4f6c-988b-483d1b592a4c"
          }
        ],
        "result": [
          {
            "reference": "urn:uuid:8aaf00ad-4c03-42bc-8a66-f1b4b068ec81"
          },
          {
            "reference": "urn:uuid:35df8464-598e-4bf8-afc1-9daf993b8a17"
          },
          {
            "reference": "urn:uuid:b11a4cf0-e7f5-4d3c-b0db-c90307f8be68"
          },
          {
            "reference": "urn:uuid:954673d9-6a3b-484e-bdfa-13f288026fc5"
          },
          {
            "reference": "urn:uuid:4f53d4a1-34e5-4d2b-89f6-008d1d9c5ea3"
          },
          {
            "reference": "urn:uuid:87635833-66c4-463c-adbe-f2dfba80e46c"
          },
          {
            "reference": "urn:uuid:a762125d-7de0-4024-b022-1f3933634dc8"
          },
          {
            "reference": "urn:uuid:ac926b34-1fe6-4111-9b65-9415340887c2"
          },
          {
            "reference": "urn:uuid:ea492354-5b8a-4958-ab4a-73b5fb142700"
          },
          {
            "reference": "urn:uuid:159ee519-dc25-4190-95a4-d6c42095914c"
          },
          {
            "reference": "urn:uuid:abd9f4fd-acfa-4282-837f-b723493f0761"
          },
          {
            "reference": "urn:uuid:7ab96855-9ab1-4aee-a441-58db0b0d841e"
          },
          {
            "reference": "urn:uuid:d23e5336-3f85-44c2-8e3a-d1c9f0fd9d8b"
          },
          {
            "reference": "urn:uuid:bc832e9f-71f5-4722-86f1-f65eeb935e92"
          },
          {
            "reference": "urn:uuid:742481de-419f-4fa0-8e92-bc69c38b78e8"
          },
          {
            "reference": "urn:uuid:55d721d4-0b44-4636-abf2-7fa81982e8d7"
          },
          {
            "reference": "urn:uuid:9f035698-dfc3-428e-b5bf-550b7d1516aa"
          },
          {
            "reference": "urn:uuid:eca51f2b-a292-43fa-8702-e42036fd77dc"
          },
          {
            "reference": "urn:uuid:ed641955-3cca-49bc-a886-8ff6e3606866"
          },
          {
            "reference": "urn:uuid:ebdca275-5806-4f12-86aa-200dcebfeb83"
          },
          {
            "reference": "urn:uuid:4d57d254-2288-4338-90de-7c27f35c0b6b"
          },
          {
            "reference": "urn:uuid:097a6bba-da1d-4b44-beb4-18be7017731a"
          },
          {
            "reference": "urn:uuid:c0474bac-f5ec-4573-811e-cc1a66da54e1"
          },
          {
            "reference": "urn:uuid:2a31980a-c920-4a84-bc94-442d3d8e3c0a"
          },
          {
            "reference": "urn:uuid:ba41e477-f9a6-4dd0-85db-962dd10c743b"
          },
          {
            "reference": "urn:uuid:3e913c34-7faa-45db-839b-1267f7632610"
          },
          {
            "reference": "urn:uuid:9812b8c3-c0f5-4cf4-bd36-b606a8beb6ac"
          },
          {
            "reference": "urn:uuid:ef22031f-44ba-4d6e-852b-3faf046ae133"
          },
          {
            "reference": "urn:uuid:d983588d-001a-44b5-8311-f800c1986902"
          },
          {
            "reference": "urn:uuid:eea23d81-e99b-4196-aea6-772a47eb024f"
          },
          {
            "reference": "urn:uuid:b2f39138-ef2d-4d5e-8b4c-5a4ab7507d2b"
          },
          {
            "reference": "urn:uuid:7b3ac34f-45af-410c-a6cd-dd4488d6ba94"
          },
          {
            "reference": "urn:uuid:f4b87256-6fca-4ff5-b7a9-2b5420da3de7"
          },
          {
            "reference": "urn:uuid:f8337f0c-d8c5-47fe-b46a-b5df4f686364"
          },
          {
            "reference": "urn:uuid:5e6111c2-95fb-4373-8c87-2074606ed0cb"
          }
        ],
        "status": "registered",
        "code": {
          "coding": [
            {
              "code": "11502-2",
              "system": "http://loinc.org",
              "display": "Laboratory report"
            }
          ]
        },
        "subject": {
          "reference": "urn:uuid:7da51479-324d-4c72-861d-7486730e7909",
          "display": "Timothy Smith"
        }
      }
    },
    {
      "fullUrl": "urn:uuid:7da51479-324d-4c72-861d-7486730e7909",
      "resource": {
        "resourceType": "Patient",
        "id": "7da51479-324d-4c72-861d-7486730e7909",
        "meta": {
          "security": [
            {
              "system": "http://terminology.hl7.org/CodeSystem/v3-ActReason",
              "code": "HTEST"
            },
            {
              "system": "http://terminology.hl7.org/CodeSystem/v3-ActReason",
              "code": "TRAIN"
            }
          ],
          "tag": [
            {
              "system": "https://synderai.net/fhir/CodeSystem/tags",
              "code": "synthetic",
              "display": "SYNDERAI Synthetic data"
            }
          ],
          "profile": [
            "http://hl7.eu/fhir/base/StructureDefinition/patient-eu-core"
          ]
        },
        "identifier": [
          {
            "type": {
              "coding": [
                {
                  "code": "PT",
                  "system": "http://terminology.hl7.org/CodeSystem/v2-0203"
                }
              ]
            },
            "system": "http://ec.europa.eu/identifier/eci",
            "value": "8029-862360-6"
          },
          {
            "type": {
              "coding": [
                {
                  "code": "MR",
                  "system": "http://terminology.hl7.org/CodeSystem/v2-0203"
                }
              ]
            },
            "system": "http://local.setting.eu/identifier",
            "value": "1fe71aa8-fb8e-4622-d398-65f6235c4fef"
          }
        ],
        "name": [
          {
            "family": "Smith"
          },
          {
            "given": [
              "Timothy"
            ]
          },
          {
            "text": "Timothy Smith"
          }
        ],
        "address": [
          {
            "line": [
              "9 Jeffrey orchard"
            ],
            "use": "home",
            "type": "physical",
            "postalCode": "NW1",
            "city": "North Joshuaville",
            "country": "United Kingdom"
          }
        ],
        "telecom": [
          {
            "system": "phone",
            "value": "+44(0)28 9018592"
          }
        ],
        "extension": [
          {
            "url": "http://hl7.org/fhir/StructureDefinition/patient-nationality",
            "valueCodeableConcept": {
              "coding": [
                {
                  "code": "GB",
                  "system": "http://hl7.org/fhir/ValueSet/country"
                }
              ]
            }
          }
        ],
        "text": {
          "status": "generated",
          "div": "<div xmlns=\"http://www.w3.org/1999/xhtml\"><table class=\"hl7__ips\"><tr><td>Timothy Smith</td><td>male</td><td>10-Sep-1941</td></tr></table></div>"
        },
        "gender": "male",
        "birthDate": "1941-09-10"
      }
    },
    {
      "fullUrl": "urn:uuid:69d11cc8-49f6-4b5f-810d-c87969563268",
      "resource": {
        "resourceType": "ServiceRequest",
        "id": "69d11cc8-49f6-4b5f-810d-c87969563268",
        "meta": {
          "profile": [
            "http://hl7.eu/fhir/laboratory/StructureDefinition/ServiceRequest-eu-lab"
          ]
        },
        "identifier": [
          {
            "system": "http://example.org",
            "value": "23bf34c4-463f-445f-93b6-83614cef0ea5"
          }
        ],
        "specimen": [
          {
            "reference": "urn:uuid:d682e2c9-be3e-41d0-a1c0-5ad9da70590d"
          },
          {
            "reference": "urn:uuid:64c15bf8-b782-4f6c-988b-483d1b592a4c"
          }
        ],
        "reasonCode": [
          {
            "coding": [
              {
                "code": "88805009",
                "system": "http://snomed.info/sct",
                "display": "Chronic congestive heart failure"
              }
            ]
          },
          {
            "coding": [
              {
                "code": "60573004",
                "system": "http://snomed.info/sct",
                "display": "Aortic valve stenosis"
              }
            ]
          },
          {
            "coding": [
              {
                "code": "414545008",
                "system": "http://snomed.info/sct",
                "display": "Ischemic heart disease"
              }
            ]
          },
          {
            "coding": [
              {
                "code": "64859006",
                "system": "http://snomed.info/sct",
                "display": "Osteoporosis"
              }
            ]
          },
          {
            "coding": [
              {
                "code": "6525002",
                "system": "http://snomed.info/sct",
                "display": "Dependent drug abuse"
              }
            ]
          },
          {
            "coding": [
              {
                "code": "55822004",
                "system": "http://snomed.info/sct",
                "display": "Hyperlipidemia"
              }
            ]
          },
          {
            "coding": [
              {
                "code": "78275009",
                "system": "http://snomed.info/sct",
                "display": "Obstructive sleep apnea syndrome"
              }
            ]
          },
          {
            "coding": [
              {
                "code": "39898005",
                "system": "http://snomed.info/sct",
                "display": "Sleep disorder"
              }
            ]
          },
          {
            "coding": [
              {
                "code": "401314000",
                "system": "http://snomed.info/sct",
                "display": "Acute non-ST segment elevation myocardial infarction"
              }
            ]
          },
          {
            "coding": [
              {
                "code": "124171000119105",
                "system": "http://snomed.info/sct",
                "display": "Chronic intractable migraine without aura"
              }
            ]
          },
          {
            "coding": [
              {
                "code": "196416002",
                "system": "http://snomed.info/sct",
                "display": "Impacted molars"
              }
            ]
          },
          {
            "coding": [
              {
                "code": "59621000",
                "system": "http://snomed.info/sct",
                "display": "Essential hypertension"
              }
            ]
          },
          {
            "coding": [
              {
                "code": "80394007",
                "system": "http://snomed.info/sct",
                "display": "Hyperglycemia"
              }
            ]
          },
          {
            "coding": [
              {
                "code": "237602007",
                "system": "http://snomed.info/sct",
                "display": "Metabolic syndrome X"
              }
            ]
          },
          {
            "coding": [
              {
                "code": "302870006",
                "system": "http://snomed.info/sct",
                "display": "Hypertriglyceridemia"
              }
            ]
          },
          {
            "coding": [
              {
                "code": "44054006",
                "system": "http://snomed.info/sct",
                "display": "Type 2 diabetes mellitus"
              }
            ]
          },
          {
            "coding": [
              {
                "code": "271737000",
                "system": "http://snomed.info/sct",
                "display": "Anemia"
              }
            ]
          },
          {
            "coding": [
              {
                "code": "15777000",
                "system": "http://snomed.info/sct",
                "display": "Prediabetes"
              }
            ]
          }
        ],
        "status": "active",
        "intent": "order",
        "code": {
          "coding": [
            {
              "code": "108252007",
              "system": "http://snomed.info/sct",
              "display": "Laboratory procedure"
            }
          ]
        },
        "subject": {
          "reference": "urn:uuid:7da51479-324d-4c72-861d-7486730e7909",
          "display": "Timothy Smith"
        },
        "requester": {
          "reference": "urn:uuid:b60d4ff2-002c-42da-8938-84b6639f30b3"
        }
      }
    },
    {
      "fullUrl": "urn:uuid:b60d4ff2-002c-42da-8938-84b6639f30b3",
      "resource": {
        "resourceType": "PractitionerRole",
        "id": "b60d4ff2-002c-42da-8938-84b6639f30b3",
        "meta": {
          "profile": [
            "http://hl7.eu/fhir/base/StructureDefinition/practitionerRole-eu"
          ]
        },
        "text": {
          "status": "generated",
          "div": "<div xmlns=\"http://www.w3.org/1999/xhtml\">Provider Role Id: b60d4ff2-002c-42da-8938-84b6639f30b3</div>"
        },
        "organization": {
          "reference": "urn:uuid:e68c1deb-2fcd-4613-9728-9cf061f9d012"
        }
      }
    },
    {
      "fullUrl": "urn:uuid:e68c1deb-2fcd-4613-9728-9cf061f9d012",
      "resource": {
        "resourceType": "Organization",
        "id": "e68c1deb-2fcd-4613-9728-9cf061f9d012",
        "meta": {
          "profile": [
            "http://hl7.eu/fhir/base/StructureDefinition/organization-eu"
          ]
        },
        "identifier": [
          {
            "assigner": {
              "display": "HL7 Europe"
            },
            "system": "urn:oid:2.16.840.1.113883.2.51.999",
            "value": "cdbc1a59-abc5-4958-a64c-4053b72cb047"
          }
        ],
        "address": [
          {
            "city": "London",
            "postalCode": "SE1 7",
            "country": "United Kingdom"
          }
        ],
        "text": {
          "status": "generated",
          "div": "<div xmlns=\"http://www.w3.org/1999/xhtml\">Provider Organization: Evelina Children&#039;s Hospital</div>"
        },
        "name": "Evelina Children&#039;s Hospital"
      }
    },
    {
      "fullUrl": "urn:uuid:d682e2c9-be3e-41d0-a1c0-5ad9da70590d",
      "resource": {
        "resourceType": "Specimen",
        "id": "d682e2c9-be3e-41d0-a1c0-5ad9da70590d",
        "meta": {
          "profile": [
            "http://hl7.eu/fhir/laboratory/StructureDefinition/Specimen-eu-lab"
          ]
        },
        "collection": {
          "collectedDateTime": "2024-07-01"
        },
        "text": {
          "status": "generated",
          "div": "<div xmlns=\"http://www.w3.org/1999/xhtml\"><table class=\"hl7__eu__lab__report\"><tr><th>Specimen</th><th>Collection Date</th></tr><tr><td>Acellular blood (serum or plasma) specimen</td><td><span class=\"nb\">01-Jul-2024</span></td></tr></table></div>"
        },
        "type": {
          "coding": [
            {
              "code": "122592007",
              "system": "http://snomed.info/sct",
              "display": "Acellular blood (serum or plasma) specimen"
            }
          ]
        }
      }
    },
    {
      "fullUrl": "urn:uuid:64c15bf8-b782-4f6c-988b-483d1b592a4c",
      "resource": {
        "resourceType": "Specimen",
        "id": "64c15bf8-b782-4f6c-988b-483d1b592a4c",
        "meta": {
          "profile": [
            "http://hl7.eu/fhir/laboratory/StructureDefinition/Specimen-eu-lab"
          ]
        },
        "collection": {
          "collectedDateTime": "2024-07-01"
        },
        "text": {
          "status": "generated",
          "div": "<div xmlns=\"http://www.w3.org/1999/xhtml\"><table class=\"hl7__eu__lab__report\"><tr><th>Specimen</th><th>Collection Date</th></tr><tr><td>Whole blood specimen (specimen)</td><td><span class=\"nb\">01-Jul-2024</span></td></tr></table></div>"
        },
        "type": {
          "coding": [
            {
              "code": "258580003",
              "system": "http://snomed.info/sct",
              "display": "Whole blood specimen (specimen)"
            }
          ]
        }
      }
    },
    {
      "fullUrl": "urn:uuid:64c15bf8-b782-4f6c-988b-483d1b592a4c",
      "resource": {
        "resourceType": "Specimen",
        "id": "64c15bf8-b782-4f6c-988b-483d1b592a4c",
        "meta": {
          "profile": [
            "http://hl7.eu/fhir/laboratory/StructureDefinition/Specimen-eu-lab"
          ]
        },
        "collection": {
          "collectedDateTime": "2024-07-01"
        },
        "text": {
          "status": "generated",
          "div": "<div xmlns=\"http://www.w3.org/1999/xhtml\"><table class=\"hl7__eu__lab__report\"><tr><th>Specimen</th><th>Collection Date</th></tr><tr><td>Whole blood specimen (specimen)</td><td><span class=\"nb\">01-Jul-2024</span></td></tr></table></div>"
        },
        "type": {
          "coding": [
            {
              "code": "258580003",
              "system": "http://snomed.info/sct",
              "display": "Whole blood specimen (specimen)"
            }
          ]
        }
      }
    },
    {
      "fullUrl": "urn:uuid:8aaf00ad-4c03-42bc-8a66-f1b4b068ec81",
      "resource": {
        "resourceType": "Observation",
        "id": "8aaf00ad-4c03-42bc-8a66-f1b4b068ec81",
        "meta": {
          "profile": [
            "http://hl7.eu/fhir/laboratory/StructureDefinition/Observation-resultslab-eu-lab"
          ]
        },
        "performer": [
          {
            "display": "The Central European Lab"
          }
        ],
        "category": [
          {
            "coding": [
              {
                "system": "http://terminology.hl7.org/CodeSystem/observation-category",
                "code": "laboratory"
              }
            ]
          }
        ],
        "code": {
          "coding": [
            {
              "code": "33762-6",
              "system": "http://loinc.org",
              "display": "Natriuretic peptide.B prohormone N-Terminal [Mass/volume] in Serum or Plasma"
            }
          ],
          "text": "Natriuretic peptide.B prohormone N-Terminal [Mass/volume] in Serum or Plasma"
        },
        "valueQuantity": {
          "system": "http://unitsofmeasure.org",
          "value": 1004.9,
          "unit": "pg/mL",
          "code": "pg/mL"
        },
        "referenceRange": [
          {
            "low": {
              "value": 300,
              "code": "pg/mL",
              "system": "http://unitsofmeasure.org"
            }
          },
          {
            "high": {
              "value": 900,
              "code": "pg/mL",
              "system": "http://unitsofmeasure.org"
            }
          }
        ],
        "interpretation": [
          {
            "coding": [
              {
                "code": "H",
                "system": "http://terminology.hl7.org/CodeSystem/v3-ObservationInterpretation",
                "display": "High"
              }
            ]
          }
        ],
        "text": {
          "status": "generated",
          "div": "<div xmlns=\"http://www.w3.org/1999/xhtml\"><table class=\"hl7__eu__lab__report\"><tr><th>Test</th><th>01-Jul-2024</th><th>Reference&#xA0;Range</th><th>Unit</th></tr><tr><td>Natriuretic peptide.B prohormone N-Terminal [Mass/volume] in Serum or Plasma</td><td>1004.9</td><td>300 - 900</td><td>H</td><td>pg/mL</td></tr></table></div>"
        },
        "status": "final",
        "subject": {
          "reference": "urn:uuid:7da51479-324d-4c72-861d-7486730e7909",
          "display": "Timothy Smith"
        },
        "effectiveDateTime": "2024-07-01T15:48:21Z",
        "specimen": {
          "reference": "urn:uuid:d682e2c9-be3e-41d0-a1c0-5ad9da70590d"
        }
      }
    },
    {
      "fullUrl": "urn:uuid:35df8464-598e-4bf8-afc1-9daf993b8a17",
      "resource": {
        "resourceType": "Observation",
        "id": "35df8464-598e-4bf8-afc1-9daf993b8a17",
        "meta": {
          "profile": [
            "http://hl7.eu/fhir/laboratory/StructureDefinition/Observation-resultslab-eu-lab"
          ]
        },
        "performer": [
          {
            "display": "The Central European Lab"
          }
        ],
        "category": [
          {
            "coding": [
              {
                "system": "http://terminology.hl7.org/CodeSystem/observation-category",
                "code": "laboratory"
              }
            ]
          }
        ],
        "code": {
          "coding": [
            {
              "code": "6690-2",
              "system": "http://loinc.org",
              "display": "Leukocytes [#/volume] in Blood by Automated count"
            }
          ],
          "text": "Leukocytes [#/volume] in Blood by Automated count"
        },
        "valueQuantity": {
          "system": "http://unitsofmeasure.org",
          "value": 6.1,
          "unit": "10*3/uL",
          "code": "10*3/uL"
        },
        "referenceRange": [
          {
            "low": {
              "value": 3.6,
              "code": "10*3/uL",
              "system": "http://unitsofmeasure.org"
            }
          },
          {
            "high": {
              "value": 10.5,
              "code": "10*3/uL",
              "system": "http://unitsofmeasure.org"
            }
          }
        ],
        "text": {
          "status": "generated",
          "div": "<div xmlns=\"http://www.w3.org/1999/xhtml\"><table class=\"hl7__eu__lab__report\"><tr><th>Test</th><th>01-Jul-2024</th><th>Reference&#xA0;Range</th><th>Unit</th></tr><tr><td>Leukocytes [#/volume] in Blood by Automated count</td><td>6.1</td><td>3.6 - 10.5</td><td></td><td>10*3/uL</td></tr></table></div>"
        },
        "status": "final",
        "subject": {
          "reference": "urn:uuid:7da51479-324d-4c72-861d-7486730e7909",
          "display": "Timothy Smith"
        },
        "effectiveDateTime": "2024-07-01T15:48:21Z",
        "specimen": {
          "reference": "urn:uuid:64c15bf8-b782-4f6c-988b-483d1b592a4c"
        }
      }
    },
    {
      "fullUrl": "urn:uuid:b11a4cf0-e7f5-4d3c-b0db-c90307f8be68",
      "resource": {
        "resourceType": "Observation",
        "id": "b11a4cf0-e7f5-4d3c-b0db-c90307f8be68",
        "meta": {
          "profile": [
            "http://hl7.eu/fhir/laboratory/StructureDefinition/Observation-resultslab-eu-lab"
          ]
        },
        "performer": [
          {
            "display": "The Central European Lab"
          }
        ],
        "category": [
          {
            "coding": [
              {
                "system": "http://terminology.hl7.org/CodeSystem/observation-category",
                "code": "laboratory"
              }
            ]
          }
        ],
        "code": {
          "coding": [
            {
              "code": "789-8",
              "system": "http://loinc.org",
              "display": "Erythrocytes [#/volume] in Blood by Automated count"
            }
          ],
          "text": "Erythrocytes [#/volume] in Blood by Automated count"
        },
        "valueQuantity": {
          "system": "http://unitsofmeasure.org",
          "value": 4.9,
          "unit": "10*6/uL",
          "code": "10*6/uL"
        },
        "referenceRange": [
          {
            "low": {
              "value": 4.3,
              "code": "10*6/uL",
              "system": "http://unitsofmeasure.org"
            }
          },
          {
            "high": {
              "value": 6.1,
              "code": "10*6/uL",
              "system": "http://unitsofmeasure.org"
            }
          }
        ],
        "text": {
          "status": "generated",
          "div": "<div xmlns=\"http://www.w3.org/1999/xhtml\"><table class=\"hl7__eu__lab__report\"><tr><th>Test</th><th>01-Jul-2024</th><th>Reference&#xA0;Range</th><th>Unit</th></tr><tr><td>Erythrocytes [#/volume] in Blood by Automated count</td><td>4.9</td><td>4.3 - 6.1</td><td></td><td>10*6/uL</td></tr></table></div>"
        },
        "status": "final",
        "subject": {
          "reference": "urn:uuid:7da51479-324d-4c72-861d-7486730e7909",
          "display": "Timothy Smith"
        },
        "effectiveDateTime": "2024-07-01T15:48:21Z",
        "specimen": {
          "reference": "urn:uuid:64c15bf8-b782-4f6c-988b-483d1b592a4c"
        }
      }
    },
    {
      "fullUrl": "urn:uuid:954673d9-6a3b-484e-bdfa-13f288026fc5",
      "resource": {
        "resourceType": "Observation",
        "id": "954673d9-6a3b-484e-bdfa-13f288026fc5",
        "meta": {
          "profile": [
            "http://hl7.eu/fhir/laboratory/StructureDefinition/Observation-resultslab-eu-lab"
          ]
        },
        "performer": [
          {
            "display": "The Central European Lab"
          }
        ],
        "category": [
          {
            "coding": [
              {
                "system": "http://terminology.hl7.org/CodeSystem/observation-category",
                "code": "laboratory"
              }
            ]
          }
        ],
        "code": {
          "coding": [
            {
              "code": "718-7",
              "system": "http://loinc.org",
              "display": "Hemoglobin [Mass/volume] in Blood"
            }
          ],
          "text": "Hemoglobin [Mass/volume] in Blood"
        },
        "valueQuantity": {
          "system": "http://unitsofmeasure.org",
          "value": 12.4,
          "unit": "g/dL",
          "code": "g/dL"
        },
        "referenceRange": [
          {
            "low": {
              "value": 13.5,
              "code": "g/dL",
              "system": "http://unitsofmeasure.org"
            }
          },
          {
            "high": {
              "value": 17.5,
              "code": "g/dL",
              "system": "http://unitsofmeasure.org"
            }
          }
        ],
        "interpretation": [
          {
            "coding": [
              {
                "code": "L",
                "system": "http://terminology.hl7.org/CodeSystem/v3-ObservationInterpretation",
                "display": "Low"
              }
            ]
          }
        ],
        "text": {
          "status": "generated",
          "div": "<div xmlns=\"http://www.w3.org/1999/xhtml\"><table class=\"hl7__eu__lab__report\"><tr><th>Test</th><th>01-Jul-2024</th><th>Reference&#xA0;Range</th><th>Unit</th></tr><tr><td>Hemoglobin [Mass/volume] in Blood</td><td>12.4</td><td>13.5 - 17.5</td><td>L</td><td>g/dL</td></tr></table></div>"
        },
        "status": "final",
        "subject": {
          "reference": "urn:uuid:7da51479-324d-4c72-861d-7486730e7909",
          "display": "Timothy Smith"
        },
        "effectiveDateTime": "2024-07-01T15:48:21Z",
        "specimen": {
          "reference": "urn:uuid:64c15bf8-b782-4f6c-988b-483d1b592a4c"
        }
      }
    },
    {
      "fullUrl": "urn:uuid:4f53d4a1-34e5-4d2b-89f6-008d1d9c5ea3",
      "resource": {
        "resourceType": "Observation",
        "id": "4f53d4a1-34e5-4d2b-89f6-008d1d9c5ea3",
        "meta": {
          "profile": [
            "http://hl7.eu/fhir/laboratory/StructureDefinition/Observation-resultslab-eu-lab"
          ]
        },
        "performer": [
          {
            "display": "The Central European Lab"
          }
        ],
        "category": [
          {
            "coding": [
              {
                "system": "http://terminology.hl7.org/CodeSystem/observation-category",
                "code": "laboratory"
              }
            ]
          }
        ],
        "code": {
          "coding": [
            {
              "code": "4544-3",
              "system": "http://loinc.org",
              "display": "Hematocrit [Volume Fraction] of Blood by Automated count"
            }
          ],
          "text": "Hematocrit [Volume Fraction] of Blood by Automated count"
        },
        "valueQuantity": {
          "system": "http://unitsofmeasure.org",
          "value": 47,
          "unit": "%",
          "code": "%"
        },
        "referenceRange": [
          {
            "low": {
              "value": 38,
              "code": "%",
              "system": "http://unitsofmeasure.org"
            }
          },
          {
            "high": {
              "value": 50,
              "code": "%",
              "system": "http://unitsofmeasure.org"
            }
          }
        ],
        "text": {
          "status": "generated",
          "div": "<div xmlns=\"http://www.w3.org/1999/xhtml\"><table class=\"hl7__eu__lab__report\"><tr><th>Test</th><th>01-Jul-2024</th><th>Reference&#xA0;Range</th><th>Unit</th></tr><tr><td>Hematocrit [Volume Fraction] of Blood by Automated count</td><td>47.0</td><td>38 - 50</td><td></td><td>%</td></tr></table></div>"
        },
        "status": "final",
        "subject": {
          "reference": "urn:uuid:7da51479-324d-4c72-861d-7486730e7909",
          "display": "Timothy Smith"
        },
        "effectiveDateTime": "2024-07-01T15:48:21Z",
        "specimen": {
          "reference": "urn:uuid:64c15bf8-b782-4f6c-988b-483d1b592a4c"
        }
      }
    },
    {
      "fullUrl": "urn:uuid:87635833-66c4-463c-adbe-f2dfba80e46c",
      "resource": {
        "resourceType": "Observation",
        "id": "87635833-66c4-463c-adbe-f2dfba80e46c",
        "meta": {
          "profile": [
            "http://hl7.eu/fhir/laboratory/StructureDefinition/Observation-resultslab-eu-lab"
          ]
        },
        "performer": [
          {
            "display": "The Central European Lab"
          }
        ],
        "category": [
          {
            "coding": [
              {
                "system": "http://terminology.hl7.org/CodeSystem/observation-category",
                "code": "laboratory"
              }
            ]
          }
        ],
        "code": {
          "coding": [
            {
              "code": "787-2",
              "system": "http://loinc.org",
              "display": "MCV [Entitic volume] by Automated count"
            }
          ],
          "text": "MCV [Entitic volume] by Automated count"
        },
        "valueQuantity": {
          "system": "http://unitsofmeasure.org",
          "value": 80,
          "unit": "fL",
          "code": "fL"
        },
        "referenceRange": [
          {
            "low": {
              "value": 76,
              "code": "fL",
              "system": "http://unitsofmeasure.org"
            }
          },
          {
            "high": {
              "value": 98,
              "code": "fL",
              "system": "http://unitsofmeasure.org"
            }
          }
        ],
        "text": {
          "status": "generated",
          "div": "<div xmlns=\"http://www.w3.org/1999/xhtml\"><table class=\"hl7__eu__lab__report\"><tr><th>Test</th><th>01-Jul-2024</th><th>Reference&#xA0;Range</th><th>Unit</th></tr><tr><td>MCV [Entitic volume] by Automated count</td><td>80.0</td><td>76 - 98</td><td></td><td>fL</td></tr></table></div>"
        },
        "status": "final",
        "subject": {
          "reference": "urn:uuid:7da51479-324d-4c72-861d-7486730e7909",
          "display": "Timothy Smith"
        },
        "effectiveDateTime": "2024-07-01T15:48:21Z",
        "specimen": {
          "reference": "urn:uuid:64c15bf8-b782-4f6c-988b-483d1b592a4c"
        }
      }
    },
    {
      "fullUrl": "urn:uuid:a762125d-7de0-4024-b022-1f3933634dc8",
      "resource": {
        "resourceType": "Observation",
        "id": "a762125d-7de0-4024-b022-1f3933634dc8",
        "meta": {
          "profile": [
            "http://hl7.eu/fhir/laboratory/StructureDefinition/Observation-resultslab-eu-lab"
          ]
        },
        "performer": [
          {
            "display": "The Central European Lab"
          }
        ],
        "category": [
          {
            "coding": [
              {
                "system": "http://terminology.hl7.org/CodeSystem/observation-category",
                "code": "laboratory"
              }
            ]
          }
        ],
        "code": {
          "coding": [
            {
              "code": "785-6",
              "system": "http://loinc.org",
              "display": "MCH [Entitic mass] by Automated count"
            }
          ],
          "text": "MCH [Entitic mass] by Automated count"
        },
        "valueQuantity": {
          "system": "http://unitsofmeasure.org",
          "value": 31.2,
          "unit": "pg",
          "code": "pg"
        },
        "referenceRange": [
          {
            "low": {
              "value": 27,
              "code": "pg",
              "system": "http://unitsofmeasure.org"
            }
          },
          {
            "high": {
              "value": 33,
              "code": "pg",
              "system": "http://unitsofmeasure.org"
            }
          }
        ],
        "text": {
          "status": "generated",
          "div": "<div xmlns=\"http://www.w3.org/1999/xhtml\"><table class=\"hl7__eu__lab__report\"><tr><th>Test</th><th>01-Jul-2024</th><th>Reference&#xA0;Range</th><th>Unit</th></tr><tr><td>MCH [Entitic mass] by Automated count</td><td>31.2</td><td>27 - 33</td><td></td><td>pg</td></tr></table></div>"
        },
        "status": "final",
        "subject": {
          "reference": "urn:uuid:7da51479-324d-4c72-861d-7486730e7909",
          "display": "Timothy Smith"
        },
        "effectiveDateTime": "2024-07-01T15:48:21Z",
        "specimen": {
          "reference": "urn:uuid:64c15bf8-b782-4f6c-988b-483d1b592a4c"
        }
      }
    },
    {
      "fullUrl": "urn:uuid:ac926b34-1fe6-4111-9b65-9415340887c2",
      "resource": {
        "resourceType": "Observation",
        "id": "ac926b34-1fe6-4111-9b65-9415340887c2",
        "meta": {
          "profile": [
            "http://hl7.eu/fhir/laboratory/StructureDefinition/Observation-resultslab-eu-lab"
          ]
        },
        "performer": [
          {
            "display": "The Central European Lab"
          }
        ],
        "category": [
          {
            "coding": [
              {
                "system": "http://terminology.hl7.org/CodeSystem/observation-category",
                "code": "laboratory"
              }
            ]
          }
        ],
        "code": {
          "coding": [
            {
              "code": "786-4",
              "system": "http://loinc.org",
              "display": "MCHC [Mass/volume] by Automated count"
            }
          ],
          "text": "MCHC [Mass/volume] by Automated count"
        },
        "valueQuantity": {
          "system": "http://unitsofmeasure.org",
          "value": 35.4,
          "unit": "g/dL",
          "code": "g/dL"
        },
        "referenceRange": [
          {
            "low": {
              "value": 31,
              "code": "g/dL",
              "system": "http://unitsofmeasure.org"
            }
          },
          {
            "high": {
              "value": 37,
              "code": "g/dL",
              "system": "http://unitsofmeasure.org"
            }
          }
        ],
        "text": {
          "status": "generated",
          "div": "<div xmlns=\"http://www.w3.org/1999/xhtml\"><table class=\"hl7__eu__lab__report\"><tr><th>Test</th><th>01-Jul-2024</th><th>Reference&#xA0;Range</th><th>Unit</th></tr><tr><td>MCHC [Mass/volume] by Automated count</td><td>35.4</td><td>31 - 37</td><td></td><td>g/dL</td></tr></table></div>"
        },
        "status": "final",
        "subject": {
          "reference": "urn:uuid:7da51479-324d-4c72-861d-7486730e7909",
          "display": "Timothy Smith"
        },
        "effectiveDateTime": "2024-07-01T15:48:21Z",
        "specimen": {
          "reference": "urn:uuid:64c15bf8-b782-4f6c-988b-483d1b592a4c"
        }
      }
    },
    {
      "fullUrl": "urn:uuid:ea492354-5b8a-4958-ab4a-73b5fb142700",
      "resource": {
        "resourceType": "Observation",
        "id": "ea492354-5b8a-4958-ab4a-73b5fb142700",
        "meta": {
          "profile": [
            "http://hl7.eu/fhir/laboratory/StructureDefinition/Observation-resultslab-eu-lab"
          ]
        },
        "performer": [
          {
            "display": "The Central European Lab"
          }
        ],
        "category": [
          {
            "coding": [
              {
                "system": "http://terminology.hl7.org/CodeSystem/observation-category",
                "code": "laboratory"
              }
            ]
          }
        ],
        "code": {
          "coding": [
            {
              "code": "788-0",
              "system": "http://loinc.org",
              "display": "Erythrocyte distribution width [Ratio] by Automated count"
            }
          ],
          "text": "Erythrocyte distribution width [Ratio] by Automated count"
        },
        "valueQuantity": {
          "system": "http://unitsofmeasure.org",
          "value": 12.4,
          "unit": "%",
          "code": "%"
        },
        "referenceRange": [
          {
            "low": {
              "value": 11.6,
              "code": "%",
              "system": "http://unitsofmeasure.org"
            }
          },
          {
            "high": {
              "value": 16.5,
              "code": "%",
              "system": "http://unitsofmeasure.org"
            }
          }
        ],
        "text": {
          "status": "generated",
          "div": "<div xmlns=\"http://www.w3.org/1999/xhtml\"><table class=\"hl7__eu__lab__report\"><tr><th>Test</th><th>01-Jul-2024</th><th>Reference&#xA0;Range</th><th>Unit</th></tr><tr><td>Erythrocyte distribution width [Ratio] by Automated count</td><td>12.4</td><td>11.6 - 16.5</td><td></td><td>%</td></tr></table></div>"
        },
        "status": "final",
        "subject": {
          "reference": "urn:uuid:7da51479-324d-4c72-861d-7486730e7909",
          "display": "Timothy Smith"
        },
        "effectiveDateTime": "2024-07-01T15:48:21Z",
        "specimen": {
          "reference": "urn:uuid:64c15bf8-b782-4f6c-988b-483d1b592a4c"
        }
      }
    },
    {
      "fullUrl": "urn:uuid:159ee519-dc25-4190-95a4-d6c42095914c",
      "resource": {
        "resourceType": "Observation",
        "id": "159ee519-dc25-4190-95a4-d6c42095914c",
        "meta": {
          "profile": [
            "http://hl7.eu/fhir/laboratory/StructureDefinition/Observation-resultslab-eu-lab"
          ]
        },
        "performer": [
          {
            "display": "The Central European Lab"
          }
        ],
        "category": [
          {
            "coding": [
              {
                "system": "http://terminology.hl7.org/CodeSystem/observation-category",
                "code": "laboratory"
              }
            ]
          }
        ],
        "code": {
          "coding": [
            {
              "code": "777-3",
              "system": "http://loinc.org",
              "display": "Platelets [#/volume] in Blood by Automated count"
            }
          ],
          "text": "Platelets [#/volume] in Blood by Automated count"
        },
        "valueQuantity": {
          "system": "http://unitsofmeasure.org",
          "value": 381.9,
          "unit": "10*3/uL",
          "code": "10*3/uL"
        },
        "referenceRange": [
          {
            "low": {
              "value": 155,
              "code": "10*3/uL",
              "system": "http://unitsofmeasure.org"
            }
          },
          {
            "high": {
              "value": 415,
              "code": "10*3/uL",
              "system": "http://unitsofmeasure.org"
            }
          }
        ],
        "text": {
          "status": "generated",
          "div": "<div xmlns=\"http://www.w3.org/1999/xhtml\"><table class=\"hl7__eu__lab__report\"><tr><th>Test</th><th>01-Jul-2024</th><th>Reference&#xA0;Range</th><th>Unit</th></tr><tr><td>Platelets [#/volume] in Blood by Automated count</td><td>381.9</td><td>155 - 415</td><td></td><td>10*3/uL</td></tr></table></div>"
        },
        "status": "final",
        "subject": {
          "reference": "urn:uuid:7da51479-324d-4c72-861d-7486730e7909",
          "display": "Timothy Smith"
        },
        "effectiveDateTime": "2024-07-01T15:48:21Z",
        "specimen": {
          "reference": "urn:uuid:64c15bf8-b782-4f6c-988b-483d1b592a4c"
        }
      }
    },
    {
      "fullUrl": "urn:uuid:abd9f4fd-acfa-4282-837f-b723493f0761",
      "resource": {
        "resourceType": "Observation",
        "id": "abd9f4fd-acfa-4282-837f-b723493f0761",
        "meta": {
          "profile": [
            "http://hl7.eu/fhir/laboratory/StructureDefinition/Observation-resultslab-eu-lab"
          ]
        },
        "performer": [
          {
            "display": "The Central European Lab"
          }
        ],
        "category": [
          {
            "coding": [
              {
                "system": "http://terminology.hl7.org/CodeSystem/observation-category",
                "code": "laboratory"
              }
            ]
          }
        ],
        "code": {
          "coding": [
            {
              "code": "2345-7",
              "system": "http://loinc.org",
              "display": "Glucose [Mass/volume] in Serum or Plasma"
            }
          ],
          "text": "Glucose [Mass/volume] in Serum or Plasma"
        },
        "valueQuantity": {
          "system": "http://unitsofmeasure.org",
          "value": 192,
          "unit": "mg/dL",
          "code": "mg/dL"
        },
        "referenceRange": [
          {
            "low": {
              "value": 70,
              "code": "mg/dL",
              "system": "http://unitsofmeasure.org"
            }
          },
          {
            "high": {
              "value": 140,
              "code": "mg/dL",
              "system": "http://unitsofmeasure.org"
            }
          }
        ],
        "interpretation": [
          {
            "coding": [
              {
                "code": "H",
                "system": "http://terminology.hl7.org/CodeSystem/v3-ObservationInterpretation",
                "display": "High"
              }
            ]
          }
        ],
        "text": {
          "status": "generated",
          "div": "<div xmlns=\"http://www.w3.org/1999/xhtml\"><table class=\"hl7__eu__lab__report\"><tr><th>Test</th><th>01-Jul-2024</th><th>Reference&#xA0;Range</th><th>Unit</th></tr><tr><td>Glucose [Mass/volume] in Serum or Plasma</td><td>192.0</td><td>70 - 140</td><td>H</td><td>mg/dL</td></tr></table></div>"
        },
        "status": "final",
        "subject": {
          "reference": "urn:uuid:7da51479-324d-4c72-861d-7486730e7909",
          "display": "Timothy Smith"
        },
        "effectiveDateTime": "2024-07-01T15:48:21Z",
        "specimen": {
          "reference": "urn:uuid:d682e2c9-be3e-41d0-a1c0-5ad9da70590d"
        }
      }
    },
    {
      "fullUrl": "urn:uuid:7ab96855-9ab1-4aee-a441-58db0b0d841e",
      "resource": {
        "resourceType": "Observation",
        "id": "7ab96855-9ab1-4aee-a441-58db0b0d841e",
        "meta": {
          "profile": [
            "http://hl7.eu/fhir/laboratory/StructureDefinition/Observation-resultslab-eu-lab"
          ]
        },
        "performer": [
          {
            "display": "The Central European Lab"
          }
        ],
        "category": [
          {
            "coding": [
              {
                "system": "http://terminology.hl7.org/CodeSystem/observation-category",
                "code": "laboratory"
              }
            ]
          }
        ],
        "code": {
          "coding": [
            {
              "code": "3094-0",
              "system": "http://loinc.org",
              "display": "Urea nitrogen [Mass/volume] in Serum or Plasma"
            }
          ],
          "text": "Urea nitrogen [Mass/volume] in Serum or Plasma"
        },
        "valueQuantity": {
          "system": "http://unitsofmeasure.org",
          "value": 14.2,
          "unit": "mg/dL",
          "code": "mg/dL"
        },
        "referenceRange": [
          {
            "low": {
              "value": 7,
              "code": "mg/dL",
              "system": "http://unitsofmeasure.org"
            }
          },
          {
            "high": {
              "value": 50,
              "code": "mg/dL",
              "system": "http://unitsofmeasure.org"
            }
          }
        ],
        "text": {
          "status": "generated",
          "div": "<div xmlns=\"http://www.w3.org/1999/xhtml\"><table class=\"hl7__eu__lab__report\"><tr><th>Test</th><th>01-Jul-2024</th><th>Reference&#xA0;Range</th><th>Unit</th></tr><tr><td>Urea nitrogen [Mass/volume] in Serum or Plasma</td><td>14.2</td><td>7 - 50</td><td></td><td>mg/dL</td></tr></table></div>"
        },
        "status": "final",
        "subject": {
          "reference": "urn:uuid:7da51479-324d-4c72-861d-7486730e7909",
          "display": "Timothy Smith"
        },
        "effectiveDateTime": "2024-07-01T15:48:21Z",
        "specimen": {
          "reference": "urn:uuid:d682e2c9-be3e-41d0-a1c0-5ad9da70590d"
        }
      }
    },
    {
      "fullUrl": "urn:uuid:d23e5336-3f85-44c2-8e3a-d1c9f0fd9d8b",
      "resource": {
        "resourceType": "Observation",
        "id": "d23e5336-3f85-44c2-8e3a-d1c9f0fd9d8b",
        "meta": {
          "profile": [
            "http://hl7.eu/fhir/laboratory/StructureDefinition/Observation-resultslab-eu-lab"
          ]
        },
        "performer": [
          {
            "display": "The Central European Lab"
          }
        ],
        "category": [
          {
            "coding": [
              {
                "system": "http://terminology.hl7.org/CodeSystem/observation-category",
                "code": "laboratory"
              }
            ]
          }
        ],
        "code": {
          "coding": [
            {
              "code": "2160-0",
              "system": "http://loinc.org",
              "display": "Creatinine [Mass/volume] in Serum or Plasma"
            }
          ],
          "text": "Creatinine [Mass/volume] in Serum or Plasma"
        },
        "valueQuantity": {
          "system": "http://unitsofmeasure.org",
          "value": 0.7,
          "unit": "mg/dL",
          "code": "mg/dL"
        },
        "referenceRange": [
          {
            "low": {
              "value": 0.9,
              "code": "mg/dL",
              "system": "http://unitsofmeasure.org"
            }
          },
          {
            "high": {
              "value": 1.3,
              "code": "mg/dL",
              "system": "http://unitsofmeasure.org"
            }
          }
        ],
        "interpretation": [
          {
            "coding": [
              {
                "code": "L",
                "system": "http://terminology.hl7.org/CodeSystem/v3-ObservationInterpretation",
                "display": "Low"
              }
            ]
          }
        ],
        "text": {
          "status": "generated",
          "div": "<div xmlns=\"http://www.w3.org/1999/xhtml\"><table class=\"hl7__eu__lab__report\"><tr><th>Test</th><th>01-Jul-2024</th><th>Reference&#xA0;Range</th><th>Unit</th></tr><tr><td>Creatinine [Mass/volume] in Serum or Plasma</td><td>0.7</td><td>0.9 - 1.3</td><td>L</td><td>mg/dL</td></tr></table></div>"
        },
        "status": "final",
        "subject": {
          "reference": "urn:uuid:7da51479-324d-4c72-861d-7486730e7909",
          "display": "Timothy Smith"
        },
        "effectiveDateTime": "2024-07-01T15:48:21Z",
        "specimen": {
          "reference": "urn:uuid:d682e2c9-be3e-41d0-a1c0-5ad9da70590d"
        }
      }
    },
    {
      "fullUrl": "urn:uuid:bc832e9f-71f5-4722-86f1-f65eeb935e92",
      "resource": {
        "resourceType": "Observation",
        "id": "bc832e9f-71f5-4722-86f1-f65eeb935e92",
        "meta": {
          "profile": [
            "http://hl7.eu/fhir/laboratory/StructureDefinition/Observation-resultslab-eu-lab"
          ]
        },
        "performer": [
          {
            "display": "The Central European Lab"
          }
        ],
        "category": [
          {
            "coding": [
              {
                "system": "http://terminology.hl7.org/CodeSystem/observation-category",
                "code": "laboratory"
              }
            ]
          }
        ],
        "code": {
          "coding": [
            {
              "code": "17861-6",
              "system": "http://loinc.org",
              "display": "Calcium [Mass/volume] in Serum or Plasma"
            }
          ],
          "text": "Calcium [Mass/volume] in Serum or Plasma"
        },
        "valueQuantity": {
          "system": "http://unitsofmeasure.org",
          "value": 9.1,
          "unit": "mg/dL",
          "code": "mg/dL"
        },
        "referenceRange": [
          {
            "low": {
              "value": 8.5,
              "code": "mg/dL",
              "system": "http://unitsofmeasure.org"
            }
          },
          {
            "high": {
              "value": 10.5,
              "code": "mg/dL",
              "system": "http://unitsofmeasure.org"
            }
          }
        ],
        "text": {
          "status": "generated",
          "div": "<div xmlns=\"http://www.w3.org/1999/xhtml\"><table class=\"hl7__eu__lab__report\"><tr><th>Test</th><th>01-Jul-2024</th><th>Reference&#xA0;Range</th><th>Unit</th></tr><tr><td>Calcium [Mass/volume] in Serum or Plasma</td><td>9.1</td><td>8.5 - 10.5</td><td></td><td>mg/dL</td></tr></table></div>"
        },
        "status": "final",
        "subject": {
          "reference": "urn:uuid:7da51479-324d-4c72-861d-7486730e7909",
          "display": "Timothy Smith"
        },
        "effectiveDateTime": "2024-07-01T15:48:21Z",
        "specimen": {
          "reference": "urn:uuid:d682e2c9-be3e-41d0-a1c0-5ad9da70590d"
        }
      }
    },
    {
      "fullUrl": "urn:uuid:742481de-419f-4fa0-8e92-bc69c38b78e8",
      "resource": {
        "resourceType": "Observation",
        "id": "742481de-419f-4fa0-8e92-bc69c38b78e8",
        "meta": {
          "profile": [
            "http://hl7.eu/fhir/laboratory/StructureDefinition/Observation-resultslab-eu-lab"
          ]
        },
        "performer": [
          {
            "display": "The Central European Lab"
          }
        ],
        "category": [
          {
            "coding": [
              {
                "system": "http://terminology.hl7.org/CodeSystem/observation-category",
                "code": "laboratory"
              }
            ]
          }
        ],
        "code": {
          "coding": [
            {
              "code": "2951-2",
              "system": "http://loinc.org",
              "display": "Sodium [Moles/volume] in Serum or Plasma"
            }
          ],
          "text": "Sodium [Moles/volume] in Serum or Plasma"
        },
        "valueQuantity": {
          "system": "http://unitsofmeasure.org",
          "value": 140.6,
          "unit": "mmol/L",
          "code": "mmol/L"
        },
        "referenceRange": [
          {
            "low": {
              "value": 135,
              "code": "mmol/L",
              "system": "http://unitsofmeasure.org"
            }
          },
          {
            "high": {
              "value": 145,
              "code": "mmol/L",
              "system": "http://unitsofmeasure.org"
            }
          }
        ],
        "text": {
          "status": "generated",
          "div": "<div xmlns=\"http://www.w3.org/1999/xhtml\"><table class=\"hl7__eu__lab__report\"><tr><th>Test</th><th>01-Jul-2024</th><th>Reference&#xA0;Range</th><th>Unit</th></tr><tr><td>Sodium [Moles/volume] in Serum or Plasma</td><td>140.6</td><td>135 - 145</td><td></td><td>mmol/L</td></tr></table></div>"
        },
        "status": "final",
        "subject": {
          "reference": "urn:uuid:7da51479-324d-4c72-861d-7486730e7909",
          "display": "Timothy Smith"
        },
        "effectiveDateTime": "2024-07-01T15:48:21Z",
        "specimen": {
          "reference": "urn:uuid:d682e2c9-be3e-41d0-a1c0-5ad9da70590d"
        }
      }
    },
    {
      "fullUrl": "urn:uuid:55d721d4-0b44-4636-abf2-7fa81982e8d7",
      "resource": {
        "resourceType": "Observation",
        "id": "55d721d4-0b44-4636-abf2-7fa81982e8d7",
        "meta": {
          "profile": [
            "http://hl7.eu/fhir/laboratory/StructureDefinition/Observation-resultslab-eu-lab"
          ]
        },
        "performer": [
          {
            "display": "The Central European Lab"
          }
        ],
        "category": [
          {
            "coding": [
              {
                "system": "http://terminology.hl7.org/CodeSystem/observation-category",
                "code": "laboratory"
              }
            ]
          }
        ],
        "code": {
          "coding": [
            {
              "code": "2823-3",
              "system": "http://loinc.org",
              "display": "Potassium [Moles/volume] in Serum or Plasma"
            }
          ],
          "text": "Potassium [Moles/volume] in Serum or Plasma"
        },
        "valueQuantity": {
          "system": "http://unitsofmeasure.org",
          "value": 5,
          "unit": "mmol/L",
          "code": "mmol/L"
        },
        "referenceRange": [
          {
            "low": {
              "value": 3.5,
              "code": "mmol/L",
              "system": "http://unitsofmeasure.org"
            }
          },
          {
            "high": {
              "value": 5.1,
              "code": "mmol/L",
              "system": "http://unitsofmeasure.org"
            }
          }
        ],
        "text": {
          "status": "generated",
          "div": "<div xmlns=\"http://www.w3.org/1999/xhtml\"><table class=\"hl7__eu__lab__report\"><tr><th>Test</th><th>01-Jul-2024</th><th>Reference&#xA0;Range</th><th>Unit</th></tr><tr><td>Potassium [Moles/volume] in Serum or Plasma</td><td>5.0</td><td>3.5 - 5.1</td><td></td><td>mmol/L</td></tr></table></div>"
        },
        "status": "final",
        "subject": {
          "reference": "urn:uuid:7da51479-324d-4c72-861d-7486730e7909",
          "display": "Timothy Smith"
        },
        "effectiveDateTime": "2024-07-01T15:48:21Z",
        "specimen": {
          "reference": "urn:uuid:d682e2c9-be3e-41d0-a1c0-5ad9da70590d"
        }
      }
    },
    {
      "fullUrl": "urn:uuid:9f035698-dfc3-428e-b5bf-550b7d1516aa",
      "resource": {
        "resourceType": "Observation",
        "id": "9f035698-dfc3-428e-b5bf-550b7d1516aa",
        "meta": {
          "profile": [
            "http://hl7.eu/fhir/laboratory/StructureDefinition/Observation-resultslab-eu-lab"
          ]
        },
        "performer": [
          {
            "display": "The Central European Lab"
          }
        ],
        "category": [
          {
            "coding": [
              {
                "system": "http://terminology.hl7.org/CodeSystem/observation-category",
                "code": "laboratory"
              }
            ]
          }
        ],
        "code": {
          "coding": [
            {
              "code": "2075-0",
              "system": "http://loinc.org",
              "display": "Chloride [Moles/volume] in Serum or Plasma"
            }
          ],
          "text": "Chloride [Moles/volume] in Serum or Plasma"
        },
        "valueQuantity": {
          "system": "http://unitsofmeasure.org",
          "value": 102.8,
          "unit": "mmol/L",
          "code": "mmol/L"
        },
        "referenceRange": [
          {
            "low": {
              "value": 98,
              "code": "mmol/L",
              "system": "http://unitsofmeasure.org"
            }
          },
          {
            "high": {
              "value": 108,
              "code": "mmol/L",
              "system": "http://unitsofmeasure.org"
            }
          }
        ],
        "text": {
          "status": "generated",
          "div": "<div xmlns=\"http://www.w3.org/1999/xhtml\"><table class=\"hl7__eu__lab__report\"><tr><th>Test</th><th>01-Jul-2024</th><th>Reference&#xA0;Range</th><th>Unit</th></tr><tr><td>Chloride [Moles/volume] in Serum or Plasma</td><td>102.8</td><td>98 - 108</td><td></td><td>mmol/L</td></tr></table></div>"
        },
        "status": "final",
        "subject": {
          "reference": "urn:uuid:7da51479-324d-4c72-861d-7486730e7909",
          "display": "Timothy Smith"
        },
        "effectiveDateTime": "2024-07-01T15:48:21Z",
        "specimen": {
          "reference": "urn:uuid:d682e2c9-be3e-41d0-a1c0-5ad9da70590d"
        }
      }
    },
    {
      "fullUrl": "urn:uuid:eca51f2b-a292-43fa-8702-e42036fd77dc",
      "resource": {
        "resourceType": "Observation",
        "id": "eca51f2b-a292-43fa-8702-e42036fd77dc",
        "meta": {
          "profile": [
            "http://hl7.eu/fhir/laboratory/StructureDefinition/Observation-resultslab-eu-lab"
          ]
        },
        "performer": [
          {
            "display": "The Central European Lab"
          }
        ],
        "category": [
          {
            "coding": [
              {
                "system": "http://terminology.hl7.org/CodeSystem/observation-category",
                "code": "laboratory"
              }
            ]
          }
        ],
        "code": {
          "coding": [
            {
              "code": "2028-9",
              "system": "http://loinc.org",
              "display": "Carbon dioxide, total [Moles/volume] in Serum or Plasma"
            }
          ],
          "text": "Carbon dioxide, total [Moles/volume] in Serum or Plasma"
        },
        "valueQuantity": {
          "system": "http://unitsofmeasure.org",
          "value": 27,
          "unit": "mmol/L",
          "code": "mmol/L"
        },
        "referenceRange": [
          {
            "low": {
              "value": 22,
              "code": "mmol/L",
              "system": "http://unitsofmeasure.org"
            }
          },
          {
            "high": {
              "value": 32,
              "code": "mmol/L",
              "system": "http://unitsofmeasure.org"
            }
          }
        ],
        "text": {
          "status": "generated",
          "div": "<div xmlns=\"http://www.w3.org/1999/xhtml\"><table class=\"hl7__eu__lab__report\"><tr><th>Test</th><th>01-Jul-2024</th><th>Reference&#xA0;Range</th><th>Unit</th></tr><tr><td>Carbon dioxide, total [Moles/volume] in Serum or Plasma</td><td>27.0</td><td>22 - 32</td><td></td><td>mmol/L</td></tr></table></div>"
        },
        "status": "final",
        "subject": {
          "reference": "urn:uuid:7da51479-324d-4c72-861d-7486730e7909",
          "display": "Timothy Smith"
        },
        "effectiveDateTime": "2024-07-01T15:48:21Z",
        "specimen": {
          "reference": "urn:uuid:d682e2c9-be3e-41d0-a1c0-5ad9da70590d"
        }
      }
    },
    {
      "fullUrl": "urn:uuid:ed641955-3cca-49bc-a886-8ff6e3606866",
      "resource": {
        "resourceType": "Observation",
        "id": "ed641955-3cca-49bc-a886-8ff6e3606866",
        "meta": {
          "profile": [
            "http://hl7.eu/fhir/laboratory/StructureDefinition/Observation-resultslab-eu-lab"
          ]
        },
        "performer": [
          {
            "display": "The Central European Lab"
          }
        ],
        "category": [
          {
            "coding": [
              {
                "system": "http://terminology.hl7.org/CodeSystem/observation-category",
                "code": "laboratory"
              }
            ]
          }
        ],
        "code": {
          "coding": [
            {
              "code": "2885-2",
              "system": "http://loinc.org",
              "display": "Protein [Mass/volume] in Serum or Plasma"
            }
          ],
          "text": "Protein [Mass/volume] in Serum or Plasma"
        },
        "valueQuantity": {
          "system": "http://unitsofmeasure.org",
          "value": 6.9,
          "unit": "g/dL",
          "code": "g/dL"
        },
        "referenceRange": [
          {
            "low": {
              "value": 6,
              "code": "g/dL",
              "system": "http://unitsofmeasure.org"
            }
          },
          {
            "high": {
              "value": 8.3,
              "code": "g/dL",
              "system": "http://unitsofmeasure.org"
            }
          }
        ],
        "text": {
          "status": "generated",
          "div": "<div xmlns=\"http://www.w3.org/1999/xhtml\"><table class=\"hl7__eu__lab__report\"><tr><th>Test</th><th>01-Jul-2024</th><th>Reference&#xA0;Range</th><th>Unit</th></tr><tr><td>Protein [Mass/volume] in Serum or Plasma</td><td>6.9</td><td>6 - 8.3</td><td></td><td>g/dL</td></tr></table></div>"
        },
        "status": "final",
        "subject": {
          "reference": "urn:uuid:7da51479-324d-4c72-861d-7486730e7909",
          "display": "Timothy Smith"
        },
        "effectiveDateTime": "2024-07-01T15:48:21Z",
        "specimen": {
          "reference": "urn:uuid:d682e2c9-be3e-41d0-a1c0-5ad9da70590d"
        }
      }
    },
    {
      "fullUrl": "urn:uuid:ebdca275-5806-4f12-86aa-200dcebfeb83",
      "resource": {
        "resourceType": "Observation",
        "id": "ebdca275-5806-4f12-86aa-200dcebfeb83",
        "meta": {
          "profile": [
            "http://hl7.eu/fhir/laboratory/StructureDefinition/Observation-resultslab-eu-lab"
          ]
        },
        "performer": [
          {
            "display": "The Central European Lab"
          }
        ],
        "category": [
          {
            "coding": [
              {
                "system": "http://terminology.hl7.org/CodeSystem/observation-category",
                "code": "laboratory"
              }
            ]
          }
        ],
        "code": {
          "coding": [
            {
              "code": "1751-7",
              "system": "http://loinc.org",
              "display": "Albumin [Mass/volume] in Serum or Plasma"
            }
          ],
          "text": "Albumin [Mass/volume] in Serum or Plasma"
        },
        "valueQuantity": {
          "system": "http://unitsofmeasure.org",
          "value": 4.7,
          "unit": "g/dL",
          "code": "g/dL"
        },
        "referenceRange": [
          {
            "low": {
              "value": 3.5,
              "code": "g/dL",
              "system": "http://unitsofmeasure.org"
            }
          },
          {
            "high": {
              "value": 5.5,
              "code": "g/dL",
              "system": "http://unitsofmeasure.org"
            }
          }
        ],
        "text": {
          "status": "generated",
          "div": "<div xmlns=\"http://www.w3.org/1999/xhtml\"><table class=\"hl7__eu__lab__report\"><tr><th>Test</th><th>01-Jul-2024</th><th>Reference&#xA0;Range</th><th>Unit</th></tr><tr><td>Albumin [Mass/volume] in Serum or Plasma</td><td>4.7</td><td>3.5 - 5.5</td><td></td><td>g/dL</td></tr></table></div>"
        },
        "status": "final",
        "subject": {
          "reference": "urn:uuid:7da51479-324d-4c72-861d-7486730e7909",
          "display": "Timothy Smith"
        },
        "effectiveDateTime": "2024-07-01T15:48:21Z",
        "specimen": {
          "reference": "urn:uuid:d682e2c9-be3e-41d0-a1c0-5ad9da70590d"
        }
      }
    },
    {
      "fullUrl": "urn:uuid:4d57d254-2288-4338-90de-7c27f35c0b6b",
      "resource": {
        "resourceType": "Observation",
        "id": "4d57d254-2288-4338-90de-7c27f35c0b6b",
        "meta": {
          "profile": [
            "http://hl7.eu/fhir/laboratory/StructureDefinition/Observation-resultslab-eu-lab"
          ]
        },
        "performer": [
          {
            "display": "The Central European Lab"
          }
        ],
        "category": [
          {
            "coding": [
              {
                "system": "http://terminology.hl7.org/CodeSystem/observation-category",
                "code": "laboratory"
              }
            ]
          }
        ],
        "code": {
          "coding": [
            {
              "code": "1975-2",
              "system": "http://loinc.org",
              "display": "Bilirubin.total [Mass/volume] in Serum or Plasma"
            }
          ],
          "text": "Bilirubin.total [Mass/volume] in Serum or Plasma"
        },
        "valueQuantity": {
          "system": "http://unitsofmeasure.org",
          "value": 0.5,
          "unit": "mg/dL",
          "code": "mg/dL"
        },
        "referenceRange": [
          {
            "low": {
              "value": 0.3,
              "code": "mg/dL",
              "system": "http://unitsofmeasure.org"
            }
          },
          {
            "high": {
              "value": 1.2,
              "code": "mg/dL",
              "system": "http://unitsofmeasure.org"
            }
          }
        ],
        "text": {
          "status": "generated",
          "div": "<div xmlns=\"http://www.w3.org/1999/xhtml\"><table class=\"hl7__eu__lab__report\"><tr><th>Test</th><th>01-Jul-2024</th><th>Reference&#xA0;Range</th><th>Unit</th></tr><tr><td>Bilirubin.total [Mass/volume] in Serum or Plasma</td><td>0.5</td><td>0.3 - 1.2</td><td></td><td>mg/dL</td></tr></table></div>"
        },
        "status": "final",
        "subject": {
          "reference": "urn:uuid:7da51479-324d-4c72-861d-7486730e7909",
          "display": "Timothy Smith"
        },
        "effectiveDateTime": "2024-07-01T15:48:21Z",
        "specimen": {
          "reference": "urn:uuid:d682e2c9-be3e-41d0-a1c0-5ad9da70590d"
        }
      }
    },
    {
      "fullUrl": "urn:uuid:097a6bba-da1d-4b44-beb4-18be7017731a",
      "resource": {
        "resourceType": "Observation",
        "id": "097a6bba-da1d-4b44-beb4-18be7017731a",
        "meta": {
          "profile": [
            "http://hl7.eu/fhir/laboratory/StructureDefinition/Observation-resultslab-eu-lab"
          ]
        },
        "performer": [
          {
            "display": "The Central European Lab"
          }
        ],
        "category": [
          {
            "coding": [
              {
                "system": "http://terminology.hl7.org/CodeSystem/observation-category",
                "code": "laboratory"
              }
            ]
          }
        ],
        "code": {
          "coding": [
            {
              "code": "6768-6",
              "system": "http://loinc.org",
              "display": "Alkaline phosphatase [Enzymatic activity/volume] in Serum or Plasma"
            }
          ],
          "text": "Alkaline phosphatase [Enzymatic activity/volume] in Serum or Plasma"
        },
        "valueQuantity": {
          "system": "http://unitsofmeasure.org",
          "value": 75.8,
          "unit": "U/L",
          "code": "U/L"
        },
        "referenceRange": [
          {
            "low": {
              "value": 40,
              "code": "U/L",
              "system": "http://unitsofmeasure.org"
            }
          },
          {
            "high": {
              "value": 117,
              "code": "U/L",
              "system": "http://unitsofmeasure.org"
            }
          }
        ],
        "text": {
          "status": "generated",
          "div": "<div xmlns=\"http://www.w3.org/1999/xhtml\"><table class=\"hl7__eu__lab__report\"><tr><th>Test</th><th>01-Jul-2024</th><th>Reference&#xA0;Range</th><th>Unit</th></tr><tr><td>Alkaline phosphatase [Enzymatic activity/volume] in Serum or Plasma</td><td>75.8</td><td>40 - 117</td><td></td><td>U/L</td></tr></table></div>"
        },
        "status": "final",
        "subject": {
          "reference": "urn:uuid:7da51479-324d-4c72-861d-7486730e7909",
          "display": "Timothy Smith"
        },
        "effectiveDateTime": "2024-07-01T15:48:21Z",
        "specimen": {
          "reference": "urn:uuid:d682e2c9-be3e-41d0-a1c0-5ad9da70590d"
        }
      }
    },
    {
      "fullUrl": "urn:uuid:c0474bac-f5ec-4573-811e-cc1a66da54e1",
      "resource": {
        "resourceType": "Observation",
        "id": "c0474bac-f5ec-4573-811e-cc1a66da54e1",
        "meta": {
          "profile": [
            "http://hl7.eu/fhir/laboratory/StructureDefinition/Observation-resultslab-eu-lab"
          ]
        },
        "performer": [
          {
            "display": "The Central European Lab"
          }
        ],
        "category": [
          {
            "coding": [
              {
                "system": "http://terminology.hl7.org/CodeSystem/observation-category",
                "code": "laboratory"
              }
            ]
          }
        ],
        "code": {
          "coding": [
            {
              "code": "1742-6",
              "system": "http://loinc.org",
              "display": "Alanine aminotransferase [Enzymatic activity/volume] in Serum or Plasma"
            }
          ],
          "text": "Alanine aminotransferase [Enzymatic activity/volume] in Serum or Plasma"
        },
        "valueQuantity": {
          "system": "http://unitsofmeasure.org",
          "value": 10.9,
          "unit": "U/L",
          "code": "U/L"
        },
        "referenceRange": [
          {
            "low": {
              "value": 10,
              "code": "U/L",
              "system": "http://unitsofmeasure.org"
            }
          },
          {
            "high": {
              "value": 66,
              "code": "U/L",
              "system": "http://unitsofmeasure.org"
            }
          }
        ],
        "text": {
          "status": "generated",
          "div": "<div xmlns=\"http://www.w3.org/1999/xhtml\"><table class=\"hl7__eu__lab__report\"><tr><th>Test</th><th>01-Jul-2024</th><th>Reference&#xA0;Range</th><th>Unit</th></tr><tr><td>Alanine aminotransferase [Enzymatic activity/volume] in Serum or Plasma</td><td>10.9</td><td>10 - 66</td><td></td><td>U/L</td></tr></table></div>"
        },
        "status": "final",
        "subject": {
          "reference": "urn:uuid:7da51479-324d-4c72-861d-7486730e7909",
          "display": "Timothy Smith"
        },
        "effectiveDateTime": "2024-07-01T15:48:21Z",
        "specimen": {
          "reference": "urn:uuid:d682e2c9-be3e-41d0-a1c0-5ad9da70590d"
        }
      }
    },
    {
      "fullUrl": "urn:uuid:2a31980a-c920-4a84-bc94-442d3d8e3c0a",
      "resource": {
        "resourceType": "Observation",
        "id": "2a31980a-c920-4a84-bc94-442d3d8e3c0a",
        "meta": {
          "profile": [
            "http://hl7.eu/fhir/laboratory/StructureDefinition/Observation-resultslab-eu-lab"
          ]
        },
        "performer": [
          {
            "display": "The Central European Lab"
          }
        ],
        "category": [
          {
            "coding": [
              {
                "system": "http://terminology.hl7.org/CodeSystem/observation-category",
                "code": "laboratory"
              }
            ]
          }
        ],
        "code": {
          "coding": [
            {
              "code": "1920-8",
              "system": "http://loinc.org",
              "display": "Aspartate aminotransferase [Enzymatic activity/volume] in Serum or Plasma"
            }
          ],
          "text": "Aspartate aminotransferase [Enzymatic activity/volume] in Serum or Plasma"
        },
        "valueQuantity": {
          "system": "http://unitsofmeasure.org",
          "value": 23.5,
          "unit": "U/L",
          "code": "U/L"
        },
        "referenceRange": [
          {
            "low": {
              "value": 10,
              "code": "U/L",
              "system": "http://unitsofmeasure.org"
            }
          },
          {
            "high": {
              "value": 40,
              "code": "U/L",
              "system": "http://unitsofmeasure.org"
            }
          }
        ],
        "text": {
          "status": "generated",
          "div": "<div xmlns=\"http://www.w3.org/1999/xhtml\"><table class=\"hl7__eu__lab__report\"><tr><th>Test</th><th>01-Jul-2024</th><th>Reference&#xA0;Range</th><th>Unit</th></tr><tr><td>Aspartate aminotransferase [Enzymatic activity/volume] in Serum or Plasma</td><td>23.5</td><td>10 - 40</td><td></td><td>U/L</td></tr></table></div>"
        },
        "status": "final",
        "subject": {
          "reference": "urn:uuid:7da51479-324d-4c72-861d-7486730e7909",
          "display": "Timothy Smith"
        },
        "effectiveDateTime": "2024-07-01T15:48:21Z",
        "specimen": {
          "reference": "urn:uuid:d682e2c9-be3e-41d0-a1c0-5ad9da70590d"
        }
      }
    },
    {
      "fullUrl": "urn:uuid:ba41e477-f9a6-4dd0-85db-962dd10c743b",
      "resource": {
        "resourceType": "Observation",
        "id": "ba41e477-f9a6-4dd0-85db-962dd10c743b",
        "meta": {
          "profile": [
            "http://hl7.eu/fhir/laboratory/StructureDefinition/Observation-resultslab-eu-lab"
          ]
        },
        "performer": [
          {
            "display": "The Central European Lab"
          }
        ],
        "category": [
          {
            "coding": [
              {
                "system": "http://terminology.hl7.org/CodeSystem/observation-category",
                "code": "laboratory"
              }
            ]
          }
        ],
        "code": {
          "coding": [
            {
              "code": "19123-9",
              "system": "http://loinc.org",
              "display": "Magnesium [Mass/volume] in Serum or Plasma"
            }
          ],
          "text": "Magnesium [Mass/volume] in Serum or Plasma"
        },
        "valueQuantity": {
          "system": "http://unitsofmeasure.org",
          "value": 2.3,
          "unit": "mg/dL",
          "code": "mg/dL"
        },
        "referenceRange": [
          {
            "low": {
              "value": 1.6,
              "code": "mg/dL",
              "system": "http://unitsofmeasure.org"
            }
          },
          {
            "high": {
              "value": 2.6,
              "code": "mg/dL",
              "system": "http://unitsofmeasure.org"
            }
          }
        ],
        "text": {
          "status": "generated",
          "div": "<div xmlns=\"http://www.w3.org/1999/xhtml\"><table class=\"hl7__eu__lab__report\"><tr><th>Test</th><th>01-Jul-2024</th><th>Reference&#xA0;Range</th><th>Unit</th></tr><tr><td>Magnesium [Mass/volume] in Serum or Plasma</td><td>2.3</td><td>1.6 - 2.6</td><td></td><td>mg/dL</td></tr></table></div>"
        },
        "status": "final",
        "subject": {
          "reference": "urn:uuid:7da51479-324d-4c72-861d-7486730e7909",
          "display": "Timothy Smith"
        },
        "effectiveDateTime": "2024-07-01T15:48:21Z",
        "specimen": {
          "reference": "urn:uuid:d682e2c9-be3e-41d0-a1c0-5ad9da70590d"
        }
      }
    },
    {
      "fullUrl": "urn:uuid:3e913c34-7faa-45db-839b-1267f7632610",
      "resource": {
        "resourceType": "Observation",
        "id": "3e913c34-7faa-45db-839b-1267f7632610",
        "meta": {
          "profile": [
            "http://hl7.eu/fhir/laboratory/StructureDefinition/Observation-resultslab-eu-lab"
          ]
        },
        "performer": [
          {
            "display": "The Central European Lab"
          }
        ],
        "category": [
          {
            "coding": [
              {
                "system": "http://terminology.hl7.org/CodeSystem/observation-category",
                "code": "laboratory"
              }
            ]
          }
        ],
        "code": {
          "coding": [
            {
              "code": "2093-3",
              "system": "http://loinc.org",
              "display": "Cholesterol [Mass/volume] in Serum or Plasma"
            }
          ],
          "text": "Cholesterol [Mass/volume] in Serum or Plasma"
        },
        "valueQuantity": {
          "system": "http://unitsofmeasure.org",
          "value": 247.1,
          "unit": "mg/dL",
          "code": "mg/dL"
        },
        "referenceRange": [
          {
            "low": {
              "value": 0,
              "code": "mg/dL",
              "system": "http://unitsofmeasure.org"
            }
          },
          {
            "high": {
              "value": 200,
              "code": "mg/dL",
              "system": "http://unitsofmeasure.org"
            }
          }
        ],
        "interpretation": [
          {
            "coding": [
              {
                "code": "H",
                "system": "http://terminology.hl7.org/CodeSystem/v3-ObservationInterpretation",
                "display": "High"
              }
            ]
          }
        ],
        "text": {
          "status": "generated",
          "div": "<div xmlns=\"http://www.w3.org/1999/xhtml\"><table class=\"hl7__eu__lab__report\"><tr><th>Test</th><th>01-Jul-2024</th><th>Reference&#xA0;Range</th><th>Unit</th></tr><tr><td>Cholesterol [Mass/volume] in Serum or Plasma</td><td>247.1</td><td>0 - 200</td><td>H</td><td>mg/dL</td></tr></table></div>"
        },
        "status": "final",
        "subject": {
          "reference": "urn:uuid:7da51479-324d-4c72-861d-7486730e7909",
          "display": "Timothy Smith"
        },
        "effectiveDateTime": "2024-07-01T15:48:21Z",
        "specimen": {
          "reference": "urn:uuid:d682e2c9-be3e-41d0-a1c0-5ad9da70590d"
        }
      }
    },
    {
      "fullUrl": "urn:uuid:9812b8c3-c0f5-4cf4-bd36-b606a8beb6ac",
      "resource": {
        "resourceType": "Observation",
        "id": "9812b8c3-c0f5-4cf4-bd36-b606a8beb6ac",
        "meta": {
          "profile": [
            "http://hl7.eu/fhir/laboratory/StructureDefinition/Observation-resultslab-eu-lab"
          ]
        },
        "performer": [
          {
            "display": "The Central European Lab"
          }
        ],
        "category": [
          {
            "coding": [
              {
                "system": "http://terminology.hl7.org/CodeSystem/observation-category",
                "code": "laboratory"
              }
            ]
          }
        ],
        "code": {
          "coding": [
            {
              "code": "2571-8",
              "system": "http://loinc.org",
              "display": "Triglyceride [Mass/volume] in Serum or Plasma"
            }
          ],
          "text": "Triglyceride [Mass/volume] in Serum or Plasma"
        },
        "valueQuantity": {
          "system": "http://unitsofmeasure.org",
          "value": 426.7,
          "unit": "mg/dL",
          "code": "mg/dL"
        },
        "referenceRange": [
          {
            "low": {
              "value": 0,
              "code": "mg/dL",
              "system": "http://unitsofmeasure.org"
            }
          },
          {
            "high": {
              "value": 199,
              "code": "mg/dL",
              "system": "http://unitsofmeasure.org"
            }
          }
        ],
        "interpretation": [
          {
            "coding": [
              {
                "code": "H",
                "system": "http://terminology.hl7.org/CodeSystem/v3-ObservationInterpretation",
                "display": "High"
              }
            ]
          }
        ],
        "text": {
          "status": "generated",
          "div": "<div xmlns=\"http://www.w3.org/1999/xhtml\"><table class=\"hl7__eu__lab__report\"><tr><th>Test</th><th>01-Jul-2024</th><th>Reference&#xA0;Range</th><th>Unit</th></tr><tr><td>Triglyceride [Mass/volume] in Serum or Plasma</td><td>426.7</td><td>0 - 199</td><td>H</td><td>mg/dL</td></tr></table></div>"
        },
        "status": "final",
        "subject": {
          "reference": "urn:uuid:7da51479-324d-4c72-861d-7486730e7909",
          "display": "Timothy Smith"
        },
        "effectiveDateTime": "2024-07-01T15:48:21Z",
        "specimen": {
          "reference": "urn:uuid:d682e2c9-be3e-41d0-a1c0-5ad9da70590d"
        }
      }
    },
    {
      "fullUrl": "urn:uuid:ef22031f-44ba-4d6e-852b-3faf046ae133",
      "resource": {
        "resourceType": "Observation",
        "id": "ef22031f-44ba-4d6e-852b-3faf046ae133",
        "meta": {
          "profile": [
            "http://hl7.eu/fhir/laboratory/StructureDefinition/Observation-resultslab-eu-lab"
          ]
        },
        "performer": [
          {
            "display": "The Central European Lab"
          }
        ],
        "category": [
          {
            "coding": [
              {
                "system": "http://terminology.hl7.org/CodeSystem/observation-category",
                "code": "laboratory"
              }
            ]
          }
        ],
        "code": {
          "coding": [
            {
              "code": "18262-6",
              "system": "http://loinc.org",
              "display": "Cholesterol in LDL [Mass/volume] in Serum or Plasma by Direct assay"
            }
          ],
          "text": "Cholesterol in LDL [Mass/volume] in Serum or Plasma by Direct assay"
        },
        "valueQuantity": {
          "system": "http://unitsofmeasure.org",
          "value": 139,
          "unit": "mg/dL",
          "code": "mg/dL"
        },
        "referenceRange": [
          {
            "low": {
              "value": 0,
              "code": "mg/dL",
              "system": "http://unitsofmeasure.org"
            }
          },
          {
            "high": {
              "value": 130,
              "code": "mg/dL",
              "system": "http://unitsofmeasure.org"
            }
          }
        ],
        "interpretation": [
          {
            "coding": [
              {
                "code": "H",
                "system": "http://terminology.hl7.org/CodeSystem/v3-ObservationInterpretation",
                "display": "High"
              }
            ]
          }
        ],
        "text": {
          "status": "generated",
          "div": "<div xmlns=\"http://www.w3.org/1999/xhtml\"><table class=\"hl7__eu__lab__report\"><tr><th>Test</th><th>01-Jul-2024</th><th>Reference&#xA0;Range</th><th>Unit</th></tr><tr><td>Cholesterol in LDL [Mass/volume] in Serum or Plasma by Direct assay</td><td>139.0</td><td>0 - 130</td><td>H</td><td>mg/dL</td></tr></table></div>"
        },
        "status": "final",
        "subject": {
          "reference": "urn:uuid:7da51479-324d-4c72-861d-7486730e7909",
          "display": "Timothy Smith"
        },
        "effectiveDateTime": "2024-07-01T15:48:21Z",
        "specimen": {
          "reference": "urn:uuid:d682e2c9-be3e-41d0-a1c0-5ad9da70590d"
        }
      }
    },
    {
      "fullUrl": "urn:uuid:d983588d-001a-44b5-8311-f800c1986902",
      "resource": {
        "resourceType": "Observation",
        "id": "d983588d-001a-44b5-8311-f800c1986902",
        "meta": {
          "profile": [
            "http://hl7.eu/fhir/laboratory/StructureDefinition/Observation-resultslab-eu-lab"
          ]
        },
        "performer": [
          {
            "display": "The Central European Lab"
          }
        ],
        "category": [
          {
            "coding": [
              {
                "system": "http://terminology.hl7.org/CodeSystem/observation-category",
                "code": "laboratory"
              }
            ]
          }
        ],
        "code": {
          "coding": [
            {
              "code": "2085-9",
              "system": "http://loinc.org",
              "display": "Cholesterol in HDL [Mass/volume] in Serum or Plasma"
            }
          ],
          "text": "Cholesterol in HDL [Mass/volume] in Serum or Plasma"
        },
        "valueQuantity": {
          "system": "http://unitsofmeasure.org",
          "value": 22.8,
          "unit": "mg/dL",
          "code": "mg/dL"
        },
        "referenceRange": [
          {
            "low": {
              "value": 40,
              "code": "mg/dL",
              "system": "http://unitsofmeasure.org"
            }
          },
          {
            "high": {
              "value": 100,
              "code": "mg/dL",
              "system": "http://unitsofmeasure.org"
            }
          }
        ],
        "interpretation": [
          {
            "coding": [
              {
                "code": "L",
                "system": "http://terminology.hl7.org/CodeSystem/v3-ObservationInterpretation",
                "display": "Low"
              }
            ]
          }
        ],
        "text": {
          "status": "generated",
          "div": "<div xmlns=\"http://www.w3.org/1999/xhtml\"><table class=\"hl7__eu__lab__report\"><tr><th>Test</th><th>01-Jul-2024</th><th>Reference&#xA0;Range</th><th>Unit</th></tr><tr><td>Cholesterol in HDL [Mass/volume] in Serum or Plasma</td><td>22.8</td><td>40 - 100</td><td>L</td><td>mg/dL</td></tr></table></div>"
        },
        "status": "final",
        "subject": {
          "reference": "urn:uuid:7da51479-324d-4c72-861d-7486730e7909",
          "display": "Timothy Smith"
        },
        "effectiveDateTime": "2024-07-01T15:48:21Z",
        "specimen": {
          "reference": "urn:uuid:d682e2c9-be3e-41d0-a1c0-5ad9da70590d"
        }
      }
    },
    {
      "fullUrl": "urn:uuid:eea23d81-e99b-4196-aea6-772a47eb024f",
      "resource": {
        "resourceType": "Observation",
        "id": "eea23d81-e99b-4196-aea6-772a47eb024f",
        "meta": {
          "profile": [
            "http://hl7.eu/fhir/laboratory/StructureDefinition/Observation-resultslab-eu-lab"
          ]
        },
        "performer": [
          {
            "display": "The Central European Lab"
          }
        ],
        "category": [
          {
            "coding": [
              {
                "system": "http://terminology.hl7.org/CodeSystem/observation-category",
                "code": "laboratory"
              }
            ]
          }
        ],
        "code": {
          "coding": [
            {
              "code": "4548-4",
              "system": "http://loinc.org",
              "display": "Hemoglobin A1c/Hemoglobin.total in Blood"
            }
          ],
          "text": "Hemoglobin A1c/Hemoglobin.total in Blood"
        },
        "valueQuantity": {
          "system": "http://unitsofmeasure.org",
          "value": 5.5,
          "unit": "%",
          "code": "%"
        },
        "referenceRange": [
          {
            "low": {
              "value": 4.5,
              "code": "%",
              "system": "http://unitsofmeasure.org"
            }
          },
          {
            "high": {
              "value": 6.4,
              "code": "%",
              "system": "http://unitsofmeasure.org"
            }
          }
        ],
        "text": {
          "status": "generated",
          "div": "<div xmlns=\"http://www.w3.org/1999/xhtml\"><table class=\"hl7__eu__lab__report\"><tr><th>Test</th><th>01-Jul-2024</th><th>Reference&#xA0;Range</th><th>Unit</th></tr><tr><td>Hemoglobin A1c/Hemoglobin.total in Blood</td><td>5.5</td><td>4.5 - 6.4</td><td></td><td>%</td></tr></table></div>"
        },
        "status": "final",
        "subject": {
          "reference": "urn:uuid:7da51479-324d-4c72-861d-7486730e7909",
          "display": "Timothy Smith"
        },
        "effectiveDateTime": "2024-07-01T15:48:21Z",
        "specimen": {
          "reference": "urn:uuid:64c15bf8-b782-4f6c-988b-483d1b592a4c"
        }
      }
    },
    {
      "fullUrl": "urn:uuid:b2f39138-ef2d-4d5e-8b4c-5a4ab7507d2b",
      "resource": {
        "resourceType": "Observation",
        "id": "b2f39138-ef2d-4d5e-8b4c-5a4ab7507d2b",
        "meta": {
          "profile": [
            "http://hl7.eu/fhir/laboratory/StructureDefinition/Observation-resultslab-eu-lab"
          ]
        },
        "performer": [
          {
            "display": "The Central European Lab"
          }
        ],
        "category": [
          {
            "coding": [
              {
                "system": "http://terminology.hl7.org/CodeSystem/observation-category",
                "code": "laboratory"
              }
            ]
          }
        ],
        "code": {
          "coding": [
            {
              "code": "89579-7",
              "system": "http://loinc.org",
              "display": "Troponin I.cardiac [Mass/volume] in Serum or Plasma by High sensitivity method"
            }
          ],
          "text": "Troponin I.cardiac [Mass/volume] in Serum or Plasma by High sensitivity method"
        },
        "valueQuantity": {
          "system": "http://unitsofmeasure.org",
          "value": 0,
          "unit": "pg/mL",
          "code": "pg/mL"
        },
        "referenceRange": [
          {
            "low": {
              "value": 0,
              "code": "pg/mL",
              "system": "http://unitsofmeasure.org"
            }
          },
          {
            "high": {
              "value": 19.9,
              "code": "pg/mL",
              "system": "http://unitsofmeasure.org"
            }
          }
        ],
        "text": {
          "status": "generated",
          "div": "<div xmlns=\"http://www.w3.org/1999/xhtml\"><table class=\"hl7__eu__lab__report\"><tr><th>Test</th><th>01-Jul-2024</th><th>Reference&#xA0;Range</th><th>Unit</th></tr><tr><td>Troponin I.cardiac [Mass/volume] in Serum or Plasma by High sensitivity method</td><td>0.0</td><td>0 - 19.9</td><td></td><td>pg/mL</td></tr></table></div>"
        },
        "status": "final",
        "subject": {
          "reference": "urn:uuid:7da51479-324d-4c72-861d-7486730e7909",
          "display": "Timothy Smith"
        },
        "effectiveDateTime": "2024-07-01T15:48:21Z",
        "specimen": {
          "reference": "urn:uuid:d682e2c9-be3e-41d0-a1c0-5ad9da70590d"
        }
      }
    },
    {
      "fullUrl": "urn:uuid:7b3ac34f-45af-410c-a6cd-dd4488d6ba94",
      "resource": {
        "resourceType": "Observation",
        "id": "7b3ac34f-45af-410c-a6cd-dd4488d6ba94",
        "meta": {
          "profile": [
            "http://hl7.eu/fhir/laboratory/StructureDefinition/Observation-resultslab-eu-lab"
          ]
        },
        "performer": [
          {
            "display": "The Central European Lab"
          }
        ],
        "category": [
          {
            "coding": [
              {
                "system": "http://terminology.hl7.org/CodeSystem/observation-category",
                "code": "laboratory"
              }
            ]
          }
        ],
        "code": {
          "coding": [
            {
              "code": "2276-4",
              "system": "http://loinc.org",
              "display": "Ferritin [Mass/volume] in Serum or Plasma"
            }
          ],
          "text": "Ferritin [Mass/volume] in Serum or Plasma"
        },
        "valueQuantity": {
          "system": "http://unitsofmeasure.org",
          "value": 138.9,
          "unit": "ug/L",
          "code": "ug/L"
        },
        "referenceRange": [
          {
            "low": {
              "value": 30,
              "code": "ug/L",
              "system": "http://unitsofmeasure.org"
            }
          },
          {
            "high": {
              "value": 300,
              "code": "ug/L",
              "system": "http://unitsofmeasure.org"
            }
          }
        ],
        "text": {
          "status": "generated",
          "div": "<div xmlns=\"http://www.w3.org/1999/xhtml\"><table class=\"hl7__eu__lab__report\"><tr><th>Test</th><th>01-Jul-2024</th><th>Reference&#xA0;Range</th><th>Unit</th></tr><tr><td>Ferritin [Mass/volume] in Serum or Plasma</td><td>138.9</td><td>30 - 300</td><td></td><td>ug/L</td></tr></table></div>"
        },
        "status": "final",
        "subject": {
          "reference": "urn:uuid:7da51479-324d-4c72-861d-7486730e7909",
          "display": "Timothy Smith"
        },
        "effectiveDateTime": "2024-07-01T15:48:21Z",
        "specimen": {
          "reference": "urn:uuid:d682e2c9-be3e-41d0-a1c0-5ad9da70590d"
        }
      }
    },
    {
      "fullUrl": "urn:uuid:f4b87256-6fca-4ff5-b7a9-2b5420da3de7",
      "resource": {
        "resourceType": "Observation",
        "id": "f4b87256-6fca-4ff5-b7a9-2b5420da3de7",
        "meta": {
          "profile": [
            "http://hl7.eu/fhir/laboratory/StructureDefinition/Observation-resultslab-eu-lab"
          ]
        },
        "performer": [
          {
            "display": "The Central European Lab"
          }
        ],
        "category": [
          {
            "coding": [
              {
                "system": "http://terminology.hl7.org/CodeSystem/observation-category",
                "code": "laboratory"
              }
            ]
          }
        ],
        "code": {
          "coding": [
            {
              "code": "2498-4",
              "system": "http://loinc.org",
              "display": "Iron [Mass/volume] in Serum or Plasma"
            }
          ],
          "text": "Iron [Mass/volume] in Serum or Plasma"
        },
        "valueQuantity": {
          "system": "http://unitsofmeasure.org",
          "value": 154.7,
          "unit": "ug/dL",
          "code": "ug/dL"
        },
        "referenceRange": [
          {
            "low": {
              "value": 65,
              "code": "ug/dL",
              "system": "http://unitsofmeasure.org"
            }
          },
          {
            "high": {
              "value": 300,
              "code": "ug/dL",
              "system": "http://unitsofmeasure.org"
            }
          }
        ],
        "text": {
          "status": "generated",
          "div": "<div xmlns=\"http://www.w3.org/1999/xhtml\"><table class=\"hl7__eu__lab__report\"><tr><th>Test</th><th>01-Jul-2024</th><th>Reference&#xA0;Range</th><th>Unit</th></tr><tr><td>Iron [Mass/volume] in Serum or Plasma</td><td>154.7</td><td>65 - 300</td><td></td><td>ug/dL</td></tr></table></div>"
        },
        "status": "final",
        "subject": {
          "reference": "urn:uuid:7da51479-324d-4c72-861d-7486730e7909",
          "display": "Timothy Smith"
        },
        "effectiveDateTime": "2024-07-01T15:48:21Z",
        "specimen": {
          "reference": "urn:uuid:d682e2c9-be3e-41d0-a1c0-5ad9da70590d"
        }
      }
    },
    {
      "fullUrl": "urn:uuid:f8337f0c-d8c5-47fe-b46a-b5df4f686364",
      "resource": {
        "resourceType": "Observation",
        "id": "f8337f0c-d8c5-47fe-b46a-b5df4f686364",
        "meta": {
          "profile": [
            "http://hl7.eu/fhir/laboratory/StructureDefinition/Observation-resultslab-eu-lab"
          ]
        },
        "performer": [
          {
            "display": "The Central European Lab"
          }
        ],
        "category": [
          {
            "coding": [
              {
                "system": "http://terminology.hl7.org/CodeSystem/observation-category",
                "code": "laboratory"
              }
            ]
          }
        ],
        "code": {
          "coding": [
            {
              "code": "2500-7",
              "system": "http://loinc.org",
              "display": "Iron binding capacity [Mass/volume] in Serum or Plasma"
            }
          ],
          "text": "Iron binding capacity [Mass/volume] in Serum or Plasma"
        },
        "valueQuantity": {
          "system": "http://unitsofmeasure.org",
          "value": 335.9,
          "unit": "ug/dL",
          "code": "ug/dL"
        },
        "referenceRange": [
          {
            "low": {
              "value": 250,
              "code": "ug/dL",
              "system": "http://unitsofmeasure.org"
            }
          },
          {
            "high": {
              "value": 450,
              "code": "ug/dL",
              "system": "http://unitsofmeasure.org"
            }
          }
        ],
        "text": {
          "status": "generated",
          "div": "<div xmlns=\"http://www.w3.org/1999/xhtml\"><table class=\"hl7__eu__lab__report\"><tr><th>Test</th><th>01-Jul-2024</th><th>Reference&#xA0;Range</th><th>Unit</th></tr><tr><td>Iron binding capacity [Mass/volume] in Serum or Plasma</td><td>335.9</td><td>250 - 450</td><td></td><td>ug/dL</td></tr></table></div>"
        },
        "status": "final",
        "subject": {
          "reference": "urn:uuid:7da51479-324d-4c72-861d-7486730e7909",
          "display": "Timothy Smith"
        },
        "effectiveDateTime": "2024-07-01T15:48:21Z",
        "specimen": {
          "reference": "urn:uuid:d682e2c9-be3e-41d0-a1c0-5ad9da70590d"
        }
      }
    },
    {
      "fullUrl": "urn:uuid:5e6111c2-95fb-4373-8c87-2074606ed0cb",
      "resource": {
        "resourceType": "Observation",
        "id": "5e6111c2-95fb-4373-8c87-2074606ed0cb",
        "meta": {
          "profile": [
            "http://hl7.eu/fhir/laboratory/StructureDefinition/Observation-resultslab-eu-lab"
          ]
        },
        "performer": [
          {
            "display": "The Central European Lab"
          }
        ],
        "category": [
          {
            "coding": [
              {
                "system": "http://terminology.hl7.org/CodeSystem/observation-category",
                "code": "laboratory"
              }
            ]
          }
        ],
        "code": {
          "coding": [
            {
              "code": "2502-3",
              "system": "http://loinc.org",
              "display": "Iron saturation [Mass Fraction] in Serum or Plasma"
            }
          ],
          "text": "Iron saturation [Mass Fraction] in Serum or Plasma"
        },
        "valueQuantity": {
          "system": "http://unitsofmeasure.org",
          "value": 40,
          "unit": "%",
          "code": "%"
        },
        "referenceRange": [
          {
            "low": {
              "value": 15,
              "code": "%",
              "system": "http://unitsofmeasure.org"
            }
          },
          {
            "high": {
              "value": 45,
              "code": "%",
              "system": "http://unitsofmeasure.org"
            }
          }
        ],
        "text": {
          "status": "generated",
          "div": "<div xmlns=\"http://www.w3.org/1999/xhtml\"><table class=\"hl7__eu__lab__report\"><tr><th>Test</th><th>01-Jul-2024</th><th>Reference&#xA0;Range</th><th>Unit</th></tr><tr><td>Iron saturation [Mass Fraction] in Serum or Plasma</td><td>40.0</td><td>15 - 45</td><td></td><td>%</td></tr></table></div>"
        },
        "status": "final",
        "subject": {
          "reference": "urn:uuid:7da51479-324d-4c72-861d-7486730e7909",
          "display": "Timothy Smith"
        },
        "effectiveDateTime": "2024-07-01T15:48:21Z",
        "specimen": {
          "reference": "urn:uuid:d682e2c9-be3e-41d0-a1c0-5ad9da70590d"
        }
      }
    },
    {
      "fullUrl": "urn:uuid:defd8485-4aba-4e06-bb5d-4157f45039d9",
      "resource": {
        "resourceType": "Device",
        "id": "defd8485-4aba-4e06-bb5d-4157f45039d9",
        "deviceName": [
          {
            "name": "SYNDERAI Synthetic Generator",
            "type": "manufacturer-name"
          }
        ],
        "version": [
          {
            "value": "5.0"
          }
        ],
        "text": {
          "status": "generated",
          "div": "<div xmlns=\"http://www.w3.org/1999/xhtml\">SYNDERAI Synthetic Generator v5.0</div>"
        },
        "status": "active\"",
        "distinctIdentifier": "synderai-generator-50",
        "manufacturer": "SYNDERAI Project"
      }
    },
    {
      "fullUrl": "urn:uuid:795c94ff-bbe7-4f6c-8841-f8399f2ca574",
      "resource": {
        "resourceType": "Provenance",
        "id": "795c94ff-bbe7-4f6c-8841-f8399f2ca574",
        "target": [
          {
            "reference": "Patient/7da51479-324d-4c72-861d-7486730e7909"
          },
          {
            "reference": "Bundle/4f31c292-8980-495e-8f91-2791da796aa3"
          },
          {
            "reference": "Composition/14860df8-85f4-44a2-be83-ef046fd7c4b4"
          },
          {
            "reference": "PractitionerRole/d4695568-055f-4ca4-9ca9-e23cc913050c"
          },
          {
            "reference": "Practitioner/7040a78a-3bd7-4652-874e-f4b47a82e28f"
          },
          {
            "reference": "PractitionerRole/b60d4ff2-002c-42da-8938-84b6639f30b3"
          },
          {
            "reference": "Organization/e68c1deb-2fcd-4613-9728-9cf061f9d012"
          }
        ],
        "activity": {
          "text": "Synthetic Example Data Generation"
        },
        "policy": [
          "https://synderai.net/synderai-synthetic-data-policy"
        ],
        "agent": [
          {
            "type": {
              "text": "author"
            },
            "who": {
              "reference": "Device/defd8485-4aba-4e06-bb5d-4157f45039d9"
            }
          }
        ],
        "reason": [
          {
            "text": "Interoperability Testing and Training (non-clinical use)"
          }
        ],
        "text": {
          "status": "generated",
          "div": "<div xmlns=\"http://www.w3.org/1999/xhtml\">Provenance for SYNDERAI Synthetic Example Data Resource</div>"
        },
        "recorded": "2024-07-01T17:48:21Z"
      }
    },
    {
      "fullUrl": "urn:uuid:d4695568-055f-4ca4-9ca9-e23cc913050c",
      "resource": {
        "resourceType": "PractitionerRole",
        "id": "d4695568-055f-4ca4-9ca9-e23cc913050c",
        "meta": {
          "profile": [
            "http://hl7.eu/fhir/base/StructureDefinition/practitionerRole-eu"
          ]
        },
        "text": {
          "status": "generated",
          "div": "<div xmlns=\"http://www.w3.org/1999/xhtml\">Laboratory Role Id: d4695568-055f-4ca4-9ca9-e23cc913050c</div>"
        },
        "practitioner": {
          "reference": "urn:uuid:7040a78a-3bd7-4652-874e-f4b47a82e28f"
        }
      }
    },
    {
      "fullUrl": "urn:uuid:7040a78a-3bd7-4652-874e-f4b47a82e28f",
      "resource": {
        "resourceType": "Practitioner",
        "id": "7040a78a-3bd7-4652-874e-f4b47a82e28f",
        "meta": {
          "profile": [
            "http://hl7.eu/fhir/base/StructureDefinition/practitioner-eu"
          ]
        },
        "identifier": [
          {
            "assigner": {
              "display": "HL7 Europe"
            },
            "system": "urn:oid:2.16.840.1.113883.2.51.999",
            "value": "1437ce24-d026-4259-904e-92cdfe2c9bc3"
          }
        ],
        "name": [
          {
            "prefix": [
              "dr"
            ],
            "given": [
              "Ex"
            ],
            "family": "Ample"
          }
        ],
        "address": [
          {
            "line": [
              "Laboratoire Central Europenne",
              "Boulevard du Jardin Botanique 32"
            ],
            "postalCode": "1000",
            "city": "Brussels",
            "country": "Belgium"
          }
        ],
        "text": {
          "status": "generated",
          "div": "<div xmlns=\"http://www.w3.org/1999/xhtml\">Laboratory: Laboratoire Central Europenne, 1000 Brussels, Belgium</div>"
        }
      }
    }
  ],
  "type": "document",
  "timestamp": "2024-07-01T17:48:21Z"
}
