{
  "resourceType": "Bundle",
  "id": "166b48a0-1278-4335-84fa-2d7a26479406",
  "meta": {
    "profile": [
      "http://hl7.eu/fhir/laboratory/StructureDefinition/Bundle-eu-lab"
    ]
  },
  "identifier": {
    "assigner": {
      "display": "HL7 Europe"
    },
    "system": "urn:oid:2.16.840.1.113883.2.51.999",
    "value": "668d87cb-9bb2-44f4-adf1-0e6700f661bd"
  },
  "entry": [
    {
      "fullUrl": "urn:uuid:69d7e9fe-7c68-4c1b-808b-a60a974dbde3",
      "resource": {
        "resourceType": "Composition",
        "id": "69d7e9fe-7c68-4c1b-808b-a60a974dbde3",
        "meta": {
          "profile": [
            "http://hl7.eu/fhir/laboratory/StructureDefinition/Composition-eu-lab"
          ]
        },
        "identifier": {
          "assigner": {
            "display": "HL7 Europe"
          },
          "system": "urn:oid:2.16.840.1.113883.2.51.999",
          "value": "23a0c862-bdba-431e-9aed-63d31a04b305"
        },
        "author": [
          {
            "reference": "urn:uuid:7489940b-c378-4555-be96-c34d78cc4a93"
          }
        ],
        "category": [
          {
            "coding": [
              {
                "code": "26436-6",
                "system": "http://loinc.org",
                "display": "Laboratory studies (set)"
              }
            ]
          }
        ],
        "type": {
          "coding": [
            {
              "code": "11502-2",
              "system": "http://loinc.org",
              "display": "Laboratory report"
            }
          ],
          "text": "Laboratory Report"
        },
        "section": [
          {
            "code": {
              "coding": [
                {
                  "code": "26436-6",
                  "system": "http://loinc.org",
                  "display": "Laboratory studies (set)"
                }
              ],
              "text": "Laboratory studies"
            },
            "section": [
              {
                "code": {
                  "coding": [
                    {
                      "code": "$18719-5",
                      "system": "http://loinc.org",
                      "display": "Chemistry studies (set)"
                    }
                  ],
                  "text": "Chemistry"
                },
                "entry": [
                  {
                    "reference": "urn:uuid:ca0c1351-1688-471e-ade4-0bf3e5454255"
                  },
                  {
                    "reference": "urn:uuid:b5326513-e43a-430b-a2ec-3bcc7c12376f"
                  },
                  {
                    "reference": "urn:uuid:40fade67-eb2b-48bb-9610-fa7105529757"
                  },
                  {
                    "reference": "urn:uuid:60ca56c1-a4f7-4f02-a60f-48dbf060a1e7"
                  },
                  {
                    "reference": "urn:uuid:1a4d4a7d-7ed3-405c-b4f2-02f14039c300"
                  },
                  {
                    "reference": "urn:uuid:67156c6f-5593-4d0e-a268-35ae22524a58"
                  },
                  {
                    "reference": "urn:uuid:eda91161-3f0b-44a2-a15b-be4e496fcf06"
                  },
                  {
                    "reference": "urn:uuid:3af261d2-7ccb-460a-9ca0-1a10eaab4236"
                  },
                  {
                    "reference": "urn:uuid:e9eb76e2-c954-48cb-8036-848bfe2ba17b"
                  }
                ],
                "text": {
                  "status": "generated",
                  "div": "<div xmlns=\"http://www.w3.org/1999/xhtml\"><h3>Chemistry</h3><table class=\"hl7__eu__lab__report\"><thead><tr><th>Test</th><th>03-JUL-2016</th><th>Reference&#xA0;Range</th><th>Unit</th></tr></thead><tbody><tr><td>Hemoglobin A1c/Hemoglobin.total in Blood</td><td>5.9</td><td>4.5 - 6.4</td><td>%</td></tr><tr><td>Glucose [Mass/volume] in Blood</td><td>84.5</td><td>70 - 140</td><td>mg/dL</td></tr><tr><td>Urea nitrogen [Mass/volume] in Blood</td><td>11.2</td><td>7 - 25</td><td>mg/dL</td></tr><tr><td>Creatinine [Mass/volume] in Blood</td><td>0.6</td><td>0.6 - 1.1</td><td>mg/dL</td></tr><tr><td>Calcium [Mass/volume] in Blood</td><td>9.4</td><td>8.6 - 10.4</td><td>mg/dL</td></tr><tr><td>Sodium [Moles/volume] in Blood</td><td>143.3</td><td>135 - 145</td><td>mmol/L</td></tr><tr><td>Potassium [Moles/volume] in Blood</td><td>4.0</td><td>3.5 - 5.3</td><td>mmol/L</td></tr><tr><td>Chloride [Moles/volume] in Blood</td><td><strong>108.3 H</strong></td><td>98 - 108</td><td>mmol/L</td></tr><tr><td>Carbon dioxide, total [Moles/volume] in Blood</td><td>28.8</td><td>22 - 32</td><td>mmol/L</td></tr></tbody></table></div>"
                },
                "title": "Chemistry"
              }
            ],
            "title": "Laboratory Report"
          },
          {
            "text": {
              "status": "generated",
              "div": "<div xmlns=\"http://www.w3.org/1999/xhtml\"><h3>Annotation</h3><table class=\"hl7__eu__lab__report\"><tr><th>Conclusion and Recommendations based on this report and previous findings known to us</th></tr><tr><td>All measured parameters are within or very close to normal ranges, except for a minimally elevated chloride, which is likely not clinically significant in isolation. Renal function, glucose metabolism, and electrolyte balance appear stable. No acute laboratory abnormalities detected; recommend clinical correlation and routine monitoring.</td></tr></table></div>"
            },
            "code": {
              "coding": [
                {
                  "system": "http://loinc.org",
                  "code": "48767-8",
                  "display": "Annotation comment"
                }
              ]
            },
            "title": "Annotation comment"
          }
        ],
        "status": "final",
        "subject": {
          "reference": "urn:uuid:6be1e1bb-1b46-4afa-a2c5-8b2d7d687864",
          "display": "Helene Andresen"
        },
        "date": "2016-07-03T00:53:36Z",
        "title": "Laboratory Report",
        "confidentiality": "N"
      }
    },
    {
      "fullUrl": "urn:uuid:2b3f8837-114f-49ff-8b96-b4275fef8621",
      "resource": {
        "resourceType": "DiagnosticReport",
        "id": "2b3f8837-114f-49ff-8b96-b4275fef8621",
        "meta": {
          "profile": [
            "http://hl7.eu/fhir/laboratory/StructureDefinition/DiagnosticReport-eu-lab"
          ]
        },
        "identifier": [
          {
            "assigner": {
              "display": "HL7 Europe"
            },
            "system": "urn:oid:2.16.840.1.113883.2.51.999",
            "value": "cf7d70ec-6d24-4413-a51b-56388ad420a3"
          }
        ],
        "extension": [
          {
            "url": "http://hl7.org/fhir/5.0/StructureDefinition/extension-DiagnosticReport.composition",
            "valueReference": {
              "reference": "urn:uuid:23a0c862-bdba-431e-9aed-63d31a04b305"
            }
          }
        ],
        "category": [
          {
            "coding": [
              {
                "code": "26436-6",
                "system": "http://loinc.org",
                "display": "Laboratory studies (set)"
              }
            ]
          }
        ],
        "specimen": [
          {
            "reference": "urn:uuid:2a2b61f1-8ba1-4210-8597-3476b3927918"
          }
        ],
        "result": [
          {
            "reference": "urn:uuid:ca0c1351-1688-471e-ade4-0bf3e5454255"
          },
          {
            "reference": "urn:uuid:b5326513-e43a-430b-a2ec-3bcc7c12376f"
          },
          {
            "reference": "urn:uuid:40fade67-eb2b-48bb-9610-fa7105529757"
          },
          {
            "reference": "urn:uuid:60ca56c1-a4f7-4f02-a60f-48dbf060a1e7"
          },
          {
            "reference": "urn:uuid:1a4d4a7d-7ed3-405c-b4f2-02f14039c300"
          },
          {
            "reference": "urn:uuid:67156c6f-5593-4d0e-a268-35ae22524a58"
          },
          {
            "reference": "urn:uuid:eda91161-3f0b-44a2-a15b-be4e496fcf06"
          },
          {
            "reference": "urn:uuid:3af261d2-7ccb-460a-9ca0-1a10eaab4236"
          },
          {
            "reference": "urn:uuid:e9eb76e2-c954-48cb-8036-848bfe2ba17b"
          }
        ],
        "status": "registered",
        "code": {
          "coding": [
            {
              "code": "11502-2",
              "system": "http://loinc.org",
              "display": "Laboratory report"
            }
          ]
        },
        "subject": {
          "reference": "urn:uuid:6be1e1bb-1b46-4afa-a2c5-8b2d7d687864",
          "display": "Helene Andresen"
        }
      }
    },
    {
      "fullUrl": "urn:uuid:6be1e1bb-1b46-4afa-a2c5-8b2d7d687864",
      "resource": {
        "resourceType": "Patient",
        "id": "6be1e1bb-1b46-4afa-a2c5-8b2d7d687864",
        "meta": {
          "security": [
            {
              "system": "http://terminology.hl7.org/CodeSystem/v3-ActReason",
              "code": "HTEST"
            },
            {
              "system": "http://terminology.hl7.org/CodeSystem/v3-ActReason",
              "code": "TRAIN"
            }
          ],
          "tag": [
            {
              "system": "https://synderai.net/fhir/CodeSystem/tags",
              "code": "synthetic",
              "display": "SYNDERAI Synthetic data"
            }
          ],
          "profile": [
            "http://hl7.eu/fhir/base/StructureDefinition/patient-eu-core"
          ]
        },
        "identifier": [
          {
            "type": {
              "coding": [
                {
                  "code": "PT",
                  "system": "http://terminology.hl7.org/CodeSystem/v2-0203"
                }
              ]
            },
            "system": "http://ec.europa.eu/identifier/eci",
            "value": "3450-170343-2"
          },
          {
            "type": {
              "coding": [
                {
                  "code": "MR",
                  "system": "http://terminology.hl7.org/CodeSystem/v2-0203"
                }
              ]
            },
            "system": "http://local.setting.eu/identifier",
            "value": "72e91c9c-0b01-42b0-a6a0-6dcc70aeec49"
          }
        ],
        "name": [
          {
            "family": "Andresen"
          },
          {
            "given": [
              "Helene"
            ]
          },
          {
            "text": "Helene Andresen"
          }
        ],
        "address": [
          {
            "line": [
              "Kristiansenberget 2"
            ],
            "use": "home",
            "type": "physical",
            "postalCode": "0172",
            "city": "Sørensen",
            "country": "Norway"
          }
        ],
        "telecom": [
          {
            "system": "phone",
            "value": "53 98 86 24"
          }
        ],
        "extension": [
          {
            "url": "http://hl7.org/fhir/StructureDefinition/patient-nationality",
            "valueCodeableConcept": {
              "coding": [
                {
                  "code": "NO",
                  "system": "http://hl7.org/fhir/ValueSet/country"
                }
              ]
            }
          }
        ],
        "text": {
          "status": "generated",
          "div": "<div xmlns=\"http://www.w3.org/1999/xhtml\"><table class=\"hl7__ips\"><tr><td>Helene Andresen</td><td>female</td><td>17-Oct-1939</td></tr></table></div>"
        },
        "gender": "female",
        "birthDate": "1939-10-17"
      }
    },
    {
      "fullUrl": "urn:uuid:474f6ae2-92db-40b4-8cc0-e69816addc6c",
      "resource": {
        "resourceType": "ServiceRequest",
        "id": "474f6ae2-92db-40b4-8cc0-e69816addc6c",
        "meta": {
          "profile": [
            "http://hl7.eu/fhir/laboratory/StructureDefinition/ServiceRequest-eu-lab"
          ]
        },
        "identifier": [
          {
            "system": "http://example.org",
            "value": "5c461109-c38b-4018-ae05-e43fd5607cb0"
          }
        ],
        "specimen": [
          {
            "reference": "urn:uuid:2a2b61f1-8ba1-4210-8597-3476b3927918"
          }
        ],
        "reasonCode": [
          {
            "coding": [
              {
                "code": "64859006",
                "system": "http://snomed.info/sct",
                "display": "Osteoporosis"
              }
            ]
          },
          {
            "coding": [
              {
                "code": "40055000",
                "system": "http://snomed.info/sct",
                "display": "Chronic sinusitis"
              }
            ]
          },
          {
            "coding": [
              {
                "code": "55822004",
                "system": "http://snomed.info/sct",
                "display": "Hyperlipidemia"
              }
            ]
          },
          {
            "coding": [
              {
                "code": "271737000",
                "system": "http://snomed.info/sct",
                "display": "Anemia"
              }
            ]
          },
          {
            "coding": [
              {
                "code": "15777000",
                "system": "http://snomed.info/sct",
                "display": "Prediabetes"
              }
            ]
          },
          {
            "coding": [
              {
                "code": "128613002",
                "system": "http://snomed.info/sct",
                "display": "Seizure disorder"
              }
            ]
          }
        ],
        "status": "active",
        "intent": "order",
        "code": {
          "coding": [
            {
              "code": "108252007",
              "system": "http://snomed.info/sct",
              "display": "Laboratory procedure"
            }
          ]
        },
        "subject": {
          "reference": "urn:uuid:6be1e1bb-1b46-4afa-a2c5-8b2d7d687864",
          "display": "Helene Andresen"
        },
        "requester": {
          "reference": "urn:uuid:93522a97-1ea5-4002-9b85-0e3b15258831"
        }
      }
    },
    {
      "fullUrl": "urn:uuid:93522a97-1ea5-4002-9b85-0e3b15258831",
      "resource": {
        "resourceType": "PractitionerRole",
        "id": "93522a97-1ea5-4002-9b85-0e3b15258831",
        "meta": {
          "profile": [
            "http://hl7.eu/fhir/base/StructureDefinition/practitionerRole-eu"
          ]
        },
        "text": {
          "status": "generated",
          "div": "<div xmlns=\"http://www.w3.org/1999/xhtml\">Provider Role Id: 93522a97-1ea5-4002-9b85-0e3b15258831</div>"
        },
        "organization": {
          "reference": "urn:uuid:4497a7eb-879b-415c-9f4d-a997b2ad01f4"
        }
      }
    },
    {
      "fullUrl": "urn:uuid:4497a7eb-879b-415c-9f4d-a997b2ad01f4",
      "resource": {
        "resourceType": "Organization",
        "id": "4497a7eb-879b-415c-9f4d-a997b2ad01f4",
        "meta": {
          "profile": [
            "http://hl7.eu/fhir/base/StructureDefinition/organization-eu"
          ]
        },
        "identifier": [
          {
            "assigner": {
              "display": "HL7 Europe"
            },
            "system": "urn:oid:2.16.840.1.113883.2.51.999",
            "value": "3e5da030-2c98-4383-ac57-e9d3d8a0f814"
          }
        ],
        "address": [
          {
            "city": "Oslo",
            "postalCode": "0155",
            "country": "Norway"
          }
        ],
        "text": {
          "status": "generated",
          "div": "<div xmlns=\"http://www.w3.org/1999/xhtml\">Provider Organization: Oslo universitetssykehus (Ullevål)</div>"
        },
        "name": "Oslo universitetssykehus (Ullevål)"
      }
    },
    {
      "fullUrl": "urn:uuid:2a2b61f1-8ba1-4210-8597-3476b3927918",
      "resource": {
        "resourceType": "Specimen",
        "id": "2a2b61f1-8ba1-4210-8597-3476b3927918",
        "meta": {
          "profile": [
            "http://hl7.eu/fhir/laboratory/StructureDefinition/Specimen-eu-lab"
          ]
        },
        "collection": {
          "collectedDateTime": "2016-07-02"
        },
        "text": {
          "status": "generated",
          "div": "<div xmlns=\"http://www.w3.org/1999/xhtml\"><table class=\"hl7__eu__lab__report\"><tr><th>Specimen</th><th>Collection Date</th></tr><tr><td>Whole blood specimen (specimen)</td><td><span class=\"nb\">02-Jul-2016</span></td></tr></table></div>"
        },
        "type": {
          "coding": [
            {
              "code": "258580003",
              "system": "http://snomed.info/sct",
              "display": "Whole blood specimen (specimen)"
            }
          ]
        }
      }
    },
    {
      "fullUrl": "urn:uuid:ca0c1351-1688-471e-ade4-0bf3e5454255",
      "resource": {
        "resourceType": "Observation",
        "id": "ca0c1351-1688-471e-ade4-0bf3e5454255",
        "meta": {
          "profile": [
            "http://hl7.eu/fhir/laboratory/StructureDefinition/Observation-resultslab-eu-lab"
          ]
        },
        "performer": [
          {
            "display": "The Central European Lab"
          }
        ],
        "category": [
          {
            "coding": [
              {
                "system": "http://terminology.hl7.org/CodeSystem/observation-category",
                "code": "laboratory"
              }
            ]
          }
        ],
        "code": {
          "coding": [
            {
              "code": "4548-4",
              "system": "http://loinc.org",
              "display": "Hemoglobin A1c/Hemoglobin.total in Blood"
            }
          ],
          "text": "Hemoglobin A1c/Hemoglobin.total in Blood"
        },
        "valueQuantity": {
          "system": "http://unitsofmeasure.org",
          "value": 5.9,
          "unit": "%",
          "code": "%"
        },
        "referenceRange": [
          {
            "low": {
              "value": 4.5,
              "code": "%",
              "system": "http://unitsofmeasure.org"
            }
          },
          {
            "high": {
              "value": 6.4,
              "code": "%",
              "system": "http://unitsofmeasure.org"
            }
          }
        ],
        "text": {
          "status": "generated",
          "div": "<div xmlns=\"http://www.w3.org/1999/xhtml\"><table class=\"hl7__eu__lab__report\"><tr><th>Test</th><th>03-Jul-2016</th><th>Reference&#xA0;Range</th><th>Unit</th></tr><tr><td>Hemoglobin A1c/Hemoglobin.total in Blood</td><td>5.9</td><td>4.5 - 6.4</td><td></td><td>%</td></tr></table></div>"
        },
        "status": "final",
        "subject": {
          "reference": "urn:uuid:6be1e1bb-1b46-4afa-a2c5-8b2d7d687864",
          "display": "Helene Andresen"
        },
        "effectiveDateTime": "2016-07-02T22:53:36Z",
        "specimen": {
          "reference": "urn:uuid:2a2b61f1-8ba1-4210-8597-3476b3927918"
        }
      }
    },
    {
      "fullUrl": "urn:uuid:b5326513-e43a-430b-a2ec-3bcc7c12376f",
      "resource": {
        "resourceType": "Observation",
        "id": "b5326513-e43a-430b-a2ec-3bcc7c12376f",
        "meta": {
          "profile": [
            "http://hl7.eu/fhir/laboratory/StructureDefinition/Observation-resultslab-eu-lab"
          ]
        },
        "performer": [
          {
            "display": "The Central European Lab"
          }
        ],
        "category": [
          {
            "coding": [
              {
                "system": "http://terminology.hl7.org/CodeSystem/observation-category",
                "code": "laboratory"
              }
            ]
          }
        ],
        "code": {
          "coding": [
            {
              "code": "2339-0",
              "system": "http://loinc.org",
              "display": "Glucose [Mass/volume] in Blood"
            }
          ],
          "text": "Glucose [Mass/volume] in Blood"
        },
        "valueQuantity": {
          "system": "http://unitsofmeasure.org",
          "value": 84.5,
          "unit": "mg/dL",
          "code": "mg/dL"
        },
        "referenceRange": [
          {
            "low": {
              "value": 70,
              "code": "mg/dL",
              "system": "http://unitsofmeasure.org"
            }
          },
          {
            "high": {
              "value": 140,
              "code": "mg/dL",
              "system": "http://unitsofmeasure.org"
            }
          }
        ],
        "text": {
          "status": "generated",
          "div": "<div xmlns=\"http://www.w3.org/1999/xhtml\"><table class=\"hl7__eu__lab__report\"><tr><th>Test</th><th>03-Jul-2016</th><th>Reference&#xA0;Range</th><th>Unit</th></tr><tr><td>Glucose [Mass/volume] in Blood</td><td>84.5</td><td>70 - 140</td><td></td><td>mg/dL</td></tr></table></div>"
        },
        "status": "final",
        "subject": {
          "reference": "urn:uuid:6be1e1bb-1b46-4afa-a2c5-8b2d7d687864",
          "display": "Helene Andresen"
        },
        "effectiveDateTime": "2016-07-02T22:53:36Z",
        "specimen": {
          "reference": "urn:uuid:2a2b61f1-8ba1-4210-8597-3476b3927918"
        }
      }
    },
    {
      "fullUrl": "urn:uuid:40fade67-eb2b-48bb-9610-fa7105529757",
      "resource": {
        "resourceType": "Observation",
        "id": "40fade67-eb2b-48bb-9610-fa7105529757",
        "meta": {
          "profile": [
            "http://hl7.eu/fhir/laboratory/StructureDefinition/Observation-resultslab-eu-lab"
          ]
        },
        "performer": [
          {
            "display": "The Central European Lab"
          }
        ],
        "category": [
          {
            "coding": [
              {
                "system": "http://terminology.hl7.org/CodeSystem/observation-category",
                "code": "laboratory"
              }
            ]
          }
        ],
        "code": {
          "coding": [
            {
              "code": "6299-2",
              "system": "http://loinc.org",
              "display": "Urea nitrogen [Mass/volume] in Blood"
            }
          ],
          "text": "Urea nitrogen [Mass/volume] in Blood"
        },
        "valueQuantity": {
          "system": "http://unitsofmeasure.org",
          "value": 11.2,
          "unit": "mg/dL",
          "code": "mg/dL"
        },
        "referenceRange": [
          {
            "low": {
              "value": 7,
              "code": "mg/dL",
              "system": "http://unitsofmeasure.org"
            }
          },
          {
            "high": {
              "value": 25,
              "code": "mg/dL",
              "system": "http://unitsofmeasure.org"
            }
          }
        ],
        "text": {
          "status": "generated",
          "div": "<div xmlns=\"http://www.w3.org/1999/xhtml\"><table class=\"hl7__eu__lab__report\"><tr><th>Test</th><th>03-Jul-2016</th><th>Reference&#xA0;Range</th><th>Unit</th></tr><tr><td>Urea nitrogen [Mass/volume] in Blood</td><td>11.2</td><td>7 - 25</td><td></td><td>mg/dL</td></tr></table></div>"
        },
        "status": "final",
        "subject": {
          "reference": "urn:uuid:6be1e1bb-1b46-4afa-a2c5-8b2d7d687864",
          "display": "Helene Andresen"
        },
        "effectiveDateTime": "2016-07-02T22:53:36Z",
        "specimen": {
          "reference": "urn:uuid:2a2b61f1-8ba1-4210-8597-3476b3927918"
        }
      }
    },
    {
      "fullUrl": "urn:uuid:60ca56c1-a4f7-4f02-a60f-48dbf060a1e7",
      "resource": {
        "resourceType": "Observation",
        "id": "60ca56c1-a4f7-4f02-a60f-48dbf060a1e7",
        "meta": {
          "profile": [
            "http://hl7.eu/fhir/laboratory/StructureDefinition/Observation-resultslab-eu-lab"
          ]
        },
        "performer": [
          {
            "display": "The Central European Lab"
          }
        ],
        "category": [
          {
            "coding": [
              {
                "system": "http://terminology.hl7.org/CodeSystem/observation-category",
                "code": "laboratory"
              }
            ]
          }
        ],
        "code": {
          "coding": [
            {
              "code": "38483-4",
              "system": "http://loinc.org",
              "display": "Creatinine [Mass/volume] in Blood"
            }
          ],
          "text": "Creatinine [Mass/volume] in Blood"
        },
        "valueQuantity": {
          "system": "http://unitsofmeasure.org",
          "value": 0.6,
          "unit": "mg/dL",
          "code": "mg/dL"
        },
        "referenceRange": [
          {
            "low": {
              "value": 0.6,
              "code": "mg/dL",
              "system": "http://unitsofmeasure.org"
            }
          },
          {
            "high": {
              "value": 1.1,
              "code": "mg/dL",
              "system": "http://unitsofmeasure.org"
            }
          }
        ],
        "text": {
          "status": "generated",
          "div": "<div xmlns=\"http://www.w3.org/1999/xhtml\"><table class=\"hl7__eu__lab__report\"><tr><th>Test</th><th>03-Jul-2016</th><th>Reference&#xA0;Range</th><th>Unit</th></tr><tr><td>Creatinine [Mass/volume] in Blood</td><td>0.6</td><td>0.6 - 1.1</td><td></td><td>mg/dL</td></tr></table></div>"
        },
        "status": "final",
        "subject": {
          "reference": "urn:uuid:6be1e1bb-1b46-4afa-a2c5-8b2d7d687864",
          "display": "Helene Andresen"
        },
        "effectiveDateTime": "2016-07-02T22:53:36Z",
        "specimen": {
          "reference": "urn:uuid:2a2b61f1-8ba1-4210-8597-3476b3927918"
        }
      }
    },
    {
      "fullUrl": "urn:uuid:1a4d4a7d-7ed3-405c-b4f2-02f14039c300",
      "resource": {
        "resourceType": "Observation",
        "id": "1a4d4a7d-7ed3-405c-b4f2-02f14039c300",
        "meta": {
          "profile": [
            "http://hl7.eu/fhir/laboratory/StructureDefinition/Observation-resultslab-eu-lab"
          ]
        },
        "performer": [
          {
            "display": "The Central European Lab"
          }
        ],
        "category": [
          {
            "coding": [
              {
                "system": "http://terminology.hl7.org/CodeSystem/observation-category",
                "code": "laboratory"
              }
            ]
          }
        ],
        "code": {
          "coding": [
            {
              "code": "49765-1",
              "system": "http://loinc.org",
              "display": "Calcium [Mass/volume] in Blood"
            }
          ],
          "text": "Calcium [Mass/volume] in Blood"
        },
        "valueQuantity": {
          "system": "http://unitsofmeasure.org",
          "value": 9.4,
          "unit": "mg/dL",
          "code": "mg/dL"
        },
        "referenceRange": [
          {
            "low": {
              "value": 8.6,
              "code": "mg/dL",
              "system": "http://unitsofmeasure.org"
            }
          },
          {
            "high": {
              "value": 10.4,
              "code": "mg/dL",
              "system": "http://unitsofmeasure.org"
            }
          }
        ],
        "text": {
          "status": "generated",
          "div": "<div xmlns=\"http://www.w3.org/1999/xhtml\"><table class=\"hl7__eu__lab__report\"><tr><th>Test</th><th>03-Jul-2016</th><th>Reference&#xA0;Range</th><th>Unit</th></tr><tr><td>Calcium [Mass/volume] in Blood</td><td>9.4</td><td>8.6 - 10.4</td><td></td><td>mg/dL</td></tr></table></div>"
        },
        "status": "final",
        "subject": {
          "reference": "urn:uuid:6be1e1bb-1b46-4afa-a2c5-8b2d7d687864",
          "display": "Helene Andresen"
        },
        "effectiveDateTime": "2016-07-02T22:53:36Z",
        "specimen": {
          "reference": "urn:uuid:2a2b61f1-8ba1-4210-8597-3476b3927918"
        }
      }
    },
    {
      "fullUrl": "urn:uuid:67156c6f-5593-4d0e-a268-35ae22524a58",
      "resource": {
        "resourceType": "Observation",
        "id": "67156c6f-5593-4d0e-a268-35ae22524a58",
        "meta": {
          "profile": [
            "http://hl7.eu/fhir/laboratory/StructureDefinition/Observation-resultslab-eu-lab"
          ]
        },
        "performer": [
          {
            "display": "The Central European Lab"
          }
        ],
        "category": [
          {
            "coding": [
              {
                "system": "http://terminology.hl7.org/CodeSystem/observation-category",
                "code": "laboratory"
              }
            ]
          }
        ],
        "code": {
          "coding": [
            {
              "code": "2947-0",
              "system": "http://loinc.org",
              "display": "Sodium [Moles/volume] in Blood"
            }
          ],
          "text": "Sodium [Moles/volume] in Blood"
        },
        "valueQuantity": {
          "system": "http://unitsofmeasure.org",
          "value": 143.3,
          "unit": "mmol/L",
          "code": "mmol/L"
        },
        "referenceRange": [
          {
            "low": {
              "value": 135,
              "code": "mmol/L",
              "system": "http://unitsofmeasure.org"
            }
          },
          {
            "high": {
              "value": 145,
              "code": "mmol/L",
              "system": "http://unitsofmeasure.org"
            }
          }
        ],
        "text": {
          "status": "generated",
          "div": "<div xmlns=\"http://www.w3.org/1999/xhtml\"><table class=\"hl7__eu__lab__report\"><tr><th>Test</th><th>03-Jul-2016</th><th>Reference&#xA0;Range</th><th>Unit</th></tr><tr><td>Sodium [Moles/volume] in Blood</td><td>143.3</td><td>135 - 145</td><td></td><td>mmol/L</td></tr></table></div>"
        },
        "status": "final",
        "subject": {
          "reference": "urn:uuid:6be1e1bb-1b46-4afa-a2c5-8b2d7d687864",
          "display": "Helene Andresen"
        },
        "effectiveDateTime": "2016-07-02T22:53:36Z",
        "specimen": {
          "reference": "urn:uuid:2a2b61f1-8ba1-4210-8597-3476b3927918"
        }
      }
    },
    {
      "fullUrl": "urn:uuid:eda91161-3f0b-44a2-a15b-be4e496fcf06",
      "resource": {
        "resourceType": "Observation",
        "id": "eda91161-3f0b-44a2-a15b-be4e496fcf06",
        "meta": {
          "profile": [
            "http://hl7.eu/fhir/laboratory/StructureDefinition/Observation-resultslab-eu-lab"
          ]
        },
        "performer": [
          {
            "display": "The Central European Lab"
          }
        ],
        "category": [
          {
            "coding": [
              {
                "system": "http://terminology.hl7.org/CodeSystem/observation-category",
                "code": "laboratory"
              }
            ]
          }
        ],
        "code": {
          "coding": [
            {
              "code": "6298-4",
              "system": "http://loinc.org",
              "display": "Potassium [Moles/volume] in Blood"
            }
          ],
          "text": "Potassium [Moles/volume] in Blood"
        },
        "valueQuantity": {
          "system": "http://unitsofmeasure.org",
          "value": 4,
          "unit": "mmol/L",
          "code": "mmol/L"
        },
        "referenceRange": [
          {
            "low": {
              "value": 3.5,
              "code": "mmol/L",
              "system": "http://unitsofmeasure.org"
            }
          },
          {
            "high": {
              "value": 5.3,
              "code": "mmol/L",
              "system": "http://unitsofmeasure.org"
            }
          }
        ],
        "text": {
          "status": "generated",
          "div": "<div xmlns=\"http://www.w3.org/1999/xhtml\"><table class=\"hl7__eu__lab__report\"><tr><th>Test</th><th>03-Jul-2016</th><th>Reference&#xA0;Range</th><th>Unit</th></tr><tr><td>Potassium [Moles/volume] in Blood</td><td>4.0</td><td>3.5 - 5.3</td><td></td><td>mmol/L</td></tr></table></div>"
        },
        "status": "final",
        "subject": {
          "reference": "urn:uuid:6be1e1bb-1b46-4afa-a2c5-8b2d7d687864",
          "display": "Helene Andresen"
        },
        "effectiveDateTime": "2016-07-02T22:53:36Z",
        "specimen": {
          "reference": "urn:uuid:2a2b61f1-8ba1-4210-8597-3476b3927918"
        }
      }
    },
    {
      "fullUrl": "urn:uuid:3af261d2-7ccb-460a-9ca0-1a10eaab4236",
      "resource": {
        "resourceType": "Observation",
        "id": "3af261d2-7ccb-460a-9ca0-1a10eaab4236",
        "meta": {
          "profile": [
            "http://hl7.eu/fhir/laboratory/StructureDefinition/Observation-resultslab-eu-lab"
          ]
        },
        "performer": [
          {
            "display": "The Central European Lab"
          }
        ],
        "category": [
          {
            "coding": [
              {
                "system": "http://terminology.hl7.org/CodeSystem/observation-category",
                "code": "laboratory"
              }
            ]
          }
        ],
        "code": {
          "coding": [
            {
              "code": "2069-3",
              "system": "http://loinc.org",
              "display": "Chloride [Moles/volume] in Blood"
            }
          ],
          "text": "Chloride [Moles/volume] in Blood"
        },
        "valueQuantity": {
          "system": "http://unitsofmeasure.org",
          "value": 108.3,
          "unit": "mmol/L",
          "code": "mmol/L"
        },
        "referenceRange": [
          {
            "low": {
              "value": 98,
              "code": "mmol/L",
              "system": "http://unitsofmeasure.org"
            }
          },
          {
            "high": {
              "value": 108,
              "code": "mmol/L",
              "system": "http://unitsofmeasure.org"
            }
          }
        ],
        "interpretation": [
          {
            "coding": [
              {
                "code": "H",
                "system": "http://terminology.hl7.org/CodeSystem/v3-ObservationInterpretation",
                "display": "High"
              }
            ]
          }
        ],
        "text": {
          "status": "generated",
          "div": "<div xmlns=\"http://www.w3.org/1999/xhtml\"><table class=\"hl7__eu__lab__report\"><tr><th>Test</th><th>03-Jul-2016</th><th>Reference&#xA0;Range</th><th>Unit</th></tr><tr><td>Chloride [Moles/volume] in Blood</td><td>108.3</td><td>98 - 108</td><td>H</td><td>mmol/L</td></tr></table></div>"
        },
        "status": "final",
        "subject": {
          "reference": "urn:uuid:6be1e1bb-1b46-4afa-a2c5-8b2d7d687864",
          "display": "Helene Andresen"
        },
        "effectiveDateTime": "2016-07-02T22:53:36Z",
        "specimen": {
          "reference": "urn:uuid:2a2b61f1-8ba1-4210-8597-3476b3927918"
        }
      }
    },
    {
      "fullUrl": "urn:uuid:e9eb76e2-c954-48cb-8036-848bfe2ba17b",
      "resource": {
        "resourceType": "Observation",
        "id": "e9eb76e2-c954-48cb-8036-848bfe2ba17b",
        "meta": {
          "profile": [
            "http://hl7.eu/fhir/laboratory/StructureDefinition/Observation-resultslab-eu-lab"
          ]
        },
        "performer": [
          {
            "display": "The Central European Lab"
          }
        ],
        "category": [
          {
            "coding": [
              {
                "system": "http://terminology.hl7.org/CodeSystem/observation-category",
                "code": "laboratory"
              }
            ]
          }
        ],
        "code": {
          "coding": [
            {
              "code": "20565-8",
              "system": "http://loinc.org",
              "display": "Carbon dioxide, total [Moles/volume] in Blood"
            }
          ],
          "text": "Carbon dioxide, total [Moles/volume] in Blood"
        },
        "valueQuantity": {
          "system": "http://unitsofmeasure.org",
          "value": 28.8,
          "unit": "mmol/L",
          "code": "mmol/L"
        },
        "referenceRange": [
          {
            "low": {
              "value": 22,
              "code": "mmol/L",
              "system": "http://unitsofmeasure.org"
            }
          },
          {
            "high": {
              "value": 32,
              "code": "mmol/L",
              "system": "http://unitsofmeasure.org"
            }
          }
        ],
        "text": {
          "status": "generated",
          "div": "<div xmlns=\"http://www.w3.org/1999/xhtml\"><table class=\"hl7__eu__lab__report\"><tr><th>Test</th><th>03-Jul-2016</th><th>Reference&#xA0;Range</th><th>Unit</th></tr><tr><td>Carbon dioxide, total [Moles/volume] in Blood</td><td>28.8</td><td>22 - 32</td><td></td><td>mmol/L</td></tr></table></div>"
        },
        "status": "final",
        "subject": {
          "reference": "urn:uuid:6be1e1bb-1b46-4afa-a2c5-8b2d7d687864",
          "display": "Helene Andresen"
        },
        "effectiveDateTime": "2016-07-02T22:53:36Z",
        "specimen": {
          "reference": "urn:uuid:2a2b61f1-8ba1-4210-8597-3476b3927918"
        }
      }
    },
    {
      "fullUrl": "urn:uuid:44740a4c-21d6-4fc9-94c2-148df95377a8",
      "resource": {
        "resourceType": "Device",
        "id": "44740a4c-21d6-4fc9-94c2-148df95377a8",
        "deviceName": [
          {
            "name": "SYNDERAI Synthetic Generator",
            "type": "manufacturer-name"
          }
        ],
        "version": [
          {
            "value": "5.0"
          }
        ],
        "text": {
          "status": "generated",
          "div": "<div xmlns=\"http://www.w3.org/1999/xhtml\">SYNDERAI Synthetic Generator v5.0</div>"
        },
        "status": "active\"",
        "distinctIdentifier": "synderai-generator-50",
        "manufacturer": "SYNDERAI Project"
      }
    },
    {
      "fullUrl": "urn:uuid:87eb37f2-3f58-4313-b921-60d6fb534769",
      "resource": {
        "resourceType": "Provenance",
        "id": "87eb37f2-3f58-4313-b921-60d6fb534769",
        "target": [
          {
            "reference": "Patient/6be1e1bb-1b46-4afa-a2c5-8b2d7d687864"
          },
          {
            "reference": "Bundle/166b48a0-1278-4335-84fa-2d7a26479406"
          },
          {
            "reference": "Composition/69d7e9fe-7c68-4c1b-808b-a60a974dbde3"
          },
          {
            "reference": "PractitionerRole/7489940b-c378-4555-be96-c34d78cc4a93"
          },
          {
            "reference": "Practitioner/c625fc55-c9ec-4661-a38a-29553a85325c"
          },
          {
            "reference": "PractitionerRole/93522a97-1ea5-4002-9b85-0e3b15258831"
          },
          {
            "reference": "Organization/4497a7eb-879b-415c-9f4d-a997b2ad01f4"
          }
        ],
        "activity": {
          "text": "Synthetic Example Data Generation"
        },
        "policy": [
          "https://synderai.net/synderai-synthetic-data-policy"
        ],
        "agent": [
          {
            "type": {
              "text": "author"
            },
            "who": {
              "reference": "Device/44740a4c-21d6-4fc9-94c2-148df95377a8"
            }
          }
        ],
        "reason": [
          {
            "text": "Interoperability Testing and Training (non-clinical use)"
          }
        ],
        "text": {
          "status": "generated",
          "div": "<div xmlns=\"http://www.w3.org/1999/xhtml\">Provenance for SYNDERAI Synthetic Example Data Resource</div>"
        },
        "recorded": "2016-07-03T00:53:36Z"
      }
    },
    {
      "fullUrl": "urn:uuid:7489940b-c378-4555-be96-c34d78cc4a93",
      "resource": {
        "resourceType": "PractitionerRole",
        "id": "7489940b-c378-4555-be96-c34d78cc4a93",
        "meta": {
          "profile": [
            "http://hl7.eu/fhir/base/StructureDefinition/practitionerRole-eu"
          ]
        },
        "text": {
          "status": "generated",
          "div": "<div xmlns=\"http://www.w3.org/1999/xhtml\">Laboratory Role Id: 7489940b-c378-4555-be96-c34d78cc4a93</div>"
        },
        "practitioner": {
          "reference": "urn:uuid:c625fc55-c9ec-4661-a38a-29553a85325c"
        }
      }
    },
    {
      "fullUrl": "urn:uuid:c625fc55-c9ec-4661-a38a-29553a85325c",
      "resource": {
        "resourceType": "Practitioner",
        "id": "c625fc55-c9ec-4661-a38a-29553a85325c",
        "meta": {
          "profile": [
            "http://hl7.eu/fhir/base/StructureDefinition/practitioner-eu"
          ]
        },
        "identifier": [
          {
            "assigner": {
              "display": "HL7 Europe"
            },
            "system": "urn:oid:2.16.840.1.113883.2.51.999",
            "value": "2c0438b0-fd1c-4d0f-9839-239ab1e6f584"
          }
        ],
        "name": [
          {
            "prefix": [
              "dr"
            ],
            "given": [
              "Ex"
            ],
            "family": "Ample"
          }
        ],
        "address": [
          {
            "line": [
              "Laboratoire Central Européenne",
              "Boulevard du Jardin Botanique 32"
            ],
            "postalCode": "1000",
            "city": "Brussels",
            "country": "Belgium"
          }
        ],
        "text": {
          "status": "generated",
          "div": "<div xmlns=\"http://www.w3.org/1999/xhtml\">Laboratory: Laboratoire Central Européenne, 1000 Brussels, Belgium</div>"
        }
      }
    }
  ],
  "type": "document",
  "timestamp": "2016-07-03T00:53:36Z"
}
