{
  "resourceType": "Bundle",
  "id": "43a8e14a-8096-436f-8179-447c52c32b6f",
  "meta": {
    "profile": [
      "http://hl7.eu/fhir/laboratory/StructureDefinition/Bundle-eu-lab"
    ]
  },
  "identifier": {
    "assigner": {
      "display": "HL7 Europe"
    },
    "system": "urn:oid:2.16.840.1.113883.2.51.999",
    "value": "608b0949-f20c-471e-a5ec-3d2a0d7afc28"
  },
  "entry": [
    {
      "fullUrl": "urn:uuid:c045b88b-457d-47ef-b85e-1352e721e721",
      "resource": {
        "resourceType": "Composition",
        "id": "c045b88b-457d-47ef-b85e-1352e721e721",
        "meta": {
          "profile": [
            "http://hl7.eu/fhir/laboratory/StructureDefinition/Composition-eu-lab"
          ]
        },
        "identifier": {
          "assigner": {
            "display": "HL7 Europe"
          },
          "system": "urn:oid:2.16.840.1.113883.2.51.999",
          "value": "7a21055b-26b0-42fe-abc9-911e8d51a7ce"
        },
        "author": [
          {
            "reference": "urn:uuid:d6f1873f-3c21-4de0-9c74-4a53d513dbae"
          }
        ],
        "category": [
          {
            "coding": [
              {
                "code": "26436-6",
                "system": "http://loinc.org",
                "display": "Laboratory studies (set)"
              }
            ]
          }
        ],
        "type": {
          "coding": [
            {
              "code": "11502-2",
              "system": "http://loinc.org",
              "display": "Laboratory report"
            }
          ],
          "text": "Laboratory Report"
        },
        "section": [
          {
            "code": {
              "coding": [
                {
                  "code": "26436-6",
                  "system": "http://loinc.org",
                  "display": "Laboratory studies (set)"
                }
              ],
              "text": "Laboratory studies"
            },
            "section": [
              {
                "code": {
                  "coding": [
                    {
                      "code": "$18719-5",
                      "system": "http://loinc.org",
                      "display": "Chemistry studies (set)"
                    }
                  ],
                  "text": "Chemistry"
                },
                "entry": [
                  {
                    "reference": "urn:uuid:6f601f32-ed8a-435b-ac89-61fb4f98e8e6"
                  },
                  {
                    "reference": "urn:uuid:087abbb9-8292-4233-a292-ee27a7e6239c"
                  },
                  {
                    "reference": "urn:uuid:0320c954-0979-47a4-82ab-64bfaa42aed4"
                  },
                  {
                    "reference": "urn:uuid:f0d5bd7e-9124-4917-87f3-9bbe5086b27c"
                  },
                  {
                    "reference": "urn:uuid:6b229ebc-71b7-4b77-bccd-9717c135ce9d"
                  },
                  {
                    "reference": "urn:uuid:b9500fc8-8150-4b97-9b0e-c8322c2859f6"
                  },
                  {
                    "reference": "urn:uuid:cc3f8cab-16cb-4d80-9759-15db90aec38b"
                  },
                  {
                    "reference": "urn:uuid:310a8658-1e96-4be7-be83-48916ce8518b"
                  },
                  {
                    "reference": "urn:uuid:a65ae1a0-1632-4315-b07f-96b2606358ab"
                  },
                  {
                    "reference": "urn:uuid:ec6e1f09-c8a5-42b4-b434-2f9aea458f90"
                  },
                  {
                    "reference": "urn:uuid:f13d109a-9ee9-4c6c-83fc-6f48d42a88fb"
                  },
                  {
                    "reference": "urn:uuid:351b0c84-4dfa-4554-ab12-49507341facf"
                  },
                  {
                    "reference": "urn:uuid:031c22d8-d0af-427f-9976-f9d0685c736b"
                  },
                  {
                    "reference": "urn:uuid:4bd43c4d-ef5c-4748-b3b4-c194baf802f4"
                  },
                  {
                    "reference": "urn:uuid:b7595e42-8f7b-48b0-976c-84052e5eafb9"
                  },
                  {
                    "reference": "urn:uuid:7e735e5f-25dc-4037-b52a-42a8bdea8e46"
                  },
                  {
                    "reference": "urn:uuid:99844941-4be3-4e26-88c1-e63a3a81d1fc"
                  },
                  {
                    "reference": "urn:uuid:ba97319a-70d2-4da6-be12-65d2606dbf0d"
                  }
                ],
                "text": {
                  "status": "generated",
                  "div": "<div xmlns=\"http://www.w3.org/1999/xhtml\"><h3>Chemistry</h3><table class=\"hl7__eu__lab__report\"><thead><tr><th>Test</th><th>09-NOV-2015</th><th>Reference&#xA0;Range</th><th>Unit</th></tr></thead><tbody><tr><td>Glucose [Mass/volume] in Serum or Plasma</td><td>71.8</td><td>70 - 99</td><td>mg/dL</td></tr><tr><td>Urea nitrogen [Mass/volume] in Serum or Plasma</td><td>15.8</td><td>7 - 50</td><td>mg/dL</td></tr><tr><td>Creatinine [Mass/volume] in Serum or Plasma</td><td><strong>1.9 H</strong></td><td>0.6 - 1.1</td><td>mg/dL</td></tr><tr><td>Calcium [Mass/volume] in Serum or Plasma</td><td>10.1</td><td>8.6 - 10.4</td><td>mg/dL</td></tr><tr><td>Sodium [Moles/volume] in Serum or Plasma</td><td>140.4</td><td>135 - 145</td><td>mmol/L</td></tr><tr><td>Potassium [Moles/volume] in Serum or Plasma</td><td>4.4</td><td>3.5 - 5.1</td><td>mmol/L</td></tr><tr><td>Chloride [Moles/volume] in Serum or Plasma</td><td>101.9</td><td>98 - 108</td><td>mmol/L</td></tr><tr><td>Carbon dioxide, total [Moles/volume] in Serum or Plasma</td><td>27.4</td><td>22 - 32</td><td>mmol/L</td></tr><tr><td>Ketones [Presence] in Urine by Test strip</td><td>Urine ketone test = +</td><td></td><td></td></tr><tr><td>Hemoglobin A1c/Hemoglobin.total in Blood</td><td><strong>3.3 L</strong></td><td>4 - 6.4</td><td>%</td></tr><tr><td>Glucose [Mass/volume] in Blood</td><td>71.8</td><td>70 - 100</td><td>mg/dL</td></tr><tr><td>Urea nitrogen [Mass/volume] in Blood</td><td>15.8</td><td>7 - 43</td><td>mg/dL</td></tr><tr><td>Creatinine [Mass/volume] in Blood</td><td><strong>1.6 H</strong></td><td>0.6 - 1.1</td><td>mg/dL</td></tr><tr><td>Calcium [Mass/volume] in Blood</td><td>10.1</td><td>8.5 - 10.5</td><td>mg/dL</td></tr><tr><td>Sodium [Moles/volume] in Blood</td><td>140.4</td><td>135 - 145</td><td>mmol/L</td></tr><tr><td>Potassium [Moles/volume] in Blood</td><td>4.4</td><td>3.5 - 5.1</td><td>mmol/L</td></tr><tr><td>Chloride [Moles/volume] in Blood</td><td>101.9</td><td>98 - 108</td><td>mmol/L</td></tr><tr><td>Carbon dioxide, total [Moles/volume] in Blood</td><td>27.4</td><td>22 - 29</td><td>mmol/L</td></tr></tbody></table></div>"
                },
                "title": "Chemistry"
              },
              {
                "code": {
                  "coding": [
                    {
                      "code": "$18729-4",
                      "system": "http://loinc.org",
                      "display": "Urinalysis studies (set)"
                    }
                  ],
                  "text": "Urinalysis"
                },
                "entry": [
                  {
                    "reference": "urn:uuid:6d1612dc-47ec-4b07-9862-709664b2b9cc"
                  },
                  {
                    "reference": "urn:uuid:af904dc3-54ee-4247-93f8-341a6c40b08e"
                  },
                  {
                    "reference": "urn:uuid:cbd082a6-537c-44e9-be42-52f9be296444"
                  },
                  {
                    "reference": "urn:uuid:c17c0fca-b231-4eba-aa0b-0a29b023ccd2"
                  },
                  {
                    "reference": "urn:uuid:bd53f91f-622b-45f2-81b9-a57ee67a9916"
                  },
                  {
                    "reference": "urn:uuid:401e389a-f7f0-4fa7-838b-057b80c7edc8"
                  },
                  {
                    "reference": "urn:uuid:e3ed8ccd-93e8-4320-b550-b5ead9d4cabf"
                  },
                  {
                    "reference": "urn:uuid:592c87d0-968b-4874-9bf8-156a88e6580d"
                  },
                  {
                    "reference": "urn:uuid:4a6d880f-b8b3-42eb-804b-c696690a419c"
                  },
                  {
                    "reference": "urn:uuid:0ddaf79e-4f8b-4ca6-a16f-efc55b2f17bb"
                  },
                  {
                    "reference": "urn:uuid:ed497897-ce16-40f6-a63c-843102bcfc68"
                  },
                  {
                    "reference": "urn:uuid:a982a971-1426-48fd-8e4b-4f5ab8a6cd3d"
                  }
                ],
                "text": {
                  "status": "generated",
                  "div": "<div xmlns=\"http://www.w3.org/1999/xhtml\"><h3>Urinalysis</h3><table class=\"hl7__eu__lab__report\"><thead><tr><th>Test</th><th>09-NOV-2015</th><th>Reference&#xA0;Range</th><th>Unit</th></tr></thead><tbody><tr><td>Glucose [Mass/volume] in Urine by Test strip</td><td><strong>1.8 H</strong></td><td>0.8 - 0</td><td>mg/dL</td></tr><tr><td>Glucose [Presence] in Urine by Test strip</td><td>++</td><td></td><td></td></tr><tr><td>Bilirubin.total [Mass/volume] in Urine by Test strip</td><td>0.8</td><td>0 - 1</td><td>mg/dL</td></tr><tr><td>Bilirubin.total [Presence] in Urine by Test strip</td><td>Finding of bilirubin in urine</td><td></td><td></td></tr><tr><td>Ketones [Mass/volume] in Urine by Test strip</td><td><strong>12.6 H</strong></td><td>0 - 4</td><td>mg/dL</td></tr><tr><td>Specific gravity of Urine by Test strip</td><td><strong>1.0 L</strong></td><td>1.005 - 1.03</td><td>{nominal}</td></tr><tr><td>pH of Urine by Test strip</td><td>5.2</td><td>4.6 - 7</td><td>pH</td></tr><tr><td>Protein [Mass/volume] in Urine by Test strip</td><td><strong>240.1 H</strong></td><td>0 - 14</td><td>mg/dL</td></tr><tr><td>Protein [Presence] in Urine by Test strip</td><td>Urine protein test = ++</td><td></td><td></td></tr><tr><td>Nitrite [Presence] in Urine by Test strip</td><td>Urine nitrite negative</td><td></td><td></td></tr><tr><td>Hemoglobin [Presence] in Urine by Test strip</td><td>Urine blood test = negative</td><td></td><td></td></tr><tr><td>Leukocyte esterase [Presence] in Urine by Test strip</td><td>Urine leukocyte test negative</td><td></td><td></td></tr></tbody></table></div>"
                },
                "title": "Urinalysis"
              },
              {
                "code": {
                  "coding": [
                    {
                      "code": "$LP7846-1",
                      "system": "http://loinc.org",
                      "display": "Specimen information"
                    }
                  ],
                  "text": "Specimen information"
                },
                "entry": [
                  {
                    "reference": "urn:uuid:be16f38d-f173-4dd4-8604-db5bc8a0940c"
                  },
                  {
                    "reference": "urn:uuid:4486a881-e3e2-46f5-8f39-4ef68a4cae58"
                  },
                  {
                    "reference": "urn:uuid:8d6702ea-cab5-4229-90e7-d2918cdc9128"
                  },
                  {
                    "reference": "urn:uuid:c168bd30-5b41-4b67-bcb2-6dcb70453d95"
                  }
                ],
                "text": {
                  "status": "generated",
                  "div": "<div xmlns=\"http://www.w3.org/1999/xhtml\"><h3>Specimen information</h3><table class=\"hl7__eu__lab__report\"><thead><tr><th>Test</th><th>09-NOV-2015</th><th>Specimen</th><th></th></tr></thead><tbody><tr><td>Appearance of Urine</td><td>Cloudy urine</td><td>Urine</td><td></td></tr><tr><td>Odor of Urine</td><td>Urine smell ammoniacal</td><td>Urine</td><td></td></tr><tr><td>Clarity of Urine</td><td>Translucent</td><td>Urine</td><td></td></tr><tr><td>Color of Urine</td><td>Brown color</td><td>Urine</td><td></td></tr></tbody></table></div>"
                },
                "title": "Specimen information"
              }
            ],
            "title": "Laboratory Report"
          },
          {
            "text": {
              "status": "generated",
              "div": "<div xmlns=\"http://www.w3.org/1999/xhtml\"><h3>Annotation</h3><table class=\"hl7__eu__lab__report\"><tr><th>Conclusion and Recommendations based on this report and previous findings known to us</th></tr><tr><td>The patient shows elevated creatinine, significant proteinuria, glucosuria, and ketonuria, with low urine specific gravity and normal blood glucose. These findings suggest possible renal impairment (likely chronic kidney disease) and impaired tubular function. The presence of ketones and glucose in urine despite normal blood glucose and low HbA1c may indicate a non-diabetic cause, such as starvation or another metabolic disorder. Urine abnormalities (cloudy, brown, ammoniacal) further support renal pathology. Recommend nephrology evaluation and further workup.</td></tr></table></div>"
            },
            "code": {
              "coding": [
                {
                  "system": "http://loinc.org",
                  "code": "48767-8",
                  "display": "Annotation comment"
                }
              ]
            },
            "title": "Annotation comment"
          }
        ],
        "status": "final",
        "subject": {
          "reference": "urn:uuid:3d8e7c88-efcd-48c5-b359-3031b2e5da90",
          "display": "Meaghan Neary"
        },
        "date": "2015-11-09T23:11:04Z",
        "title": "Laboratory Report",
        "confidentiality": "N"
      }
    },
    {
      "fullUrl": "urn:uuid:d823e5ef-9f28-4ed7-ae25-ae7731bb0396",
      "resource": {
        "resourceType": "DiagnosticReport",
        "id": "d823e5ef-9f28-4ed7-ae25-ae7731bb0396",
        "meta": {
          "profile": [
            "http://hl7.eu/fhir/laboratory/StructureDefinition/DiagnosticReport-eu-lab"
          ]
        },
        "identifier": [
          {
            "assigner": {
              "display": "HL7 Europe"
            },
            "system": "urn:oid:2.16.840.1.113883.2.51.999",
            "value": "fc51141b-5b21-437e-9c61-a0aeb7688f81"
          }
        ],
        "extension": [
          {
            "url": "http://hl7.org/fhir/5.0/StructureDefinition/extension-DiagnosticReport.composition",
            "valueReference": {
              "reference": "urn:uuid:7a21055b-26b0-42fe-abc9-911e8d51a7ce"
            }
          }
        ],
        "category": [
          {
            "coding": [
              {
                "code": "26436-6",
                "system": "http://loinc.org",
                "display": "Laboratory studies (set)"
              }
            ]
          }
        ],
        "specimen": [
          {
            "reference": "urn:uuid:1ace820a-8f8b-4d25-b20e-ccc79d03493c"
          },
          {
            "reference": "urn:uuid:5dbe0d7e-4e7f-49d2-8b19-166ff7101c06"
          },
          {
            "reference": "urn:uuid:89820050-ad22-44a3-80f9-2acb1d62145d"
          }
        ],
        "result": [
          {
            "reference": "urn:uuid:6f601f32-ed8a-435b-ac89-61fb4f98e8e6"
          },
          {
            "reference": "urn:uuid:087abbb9-8292-4233-a292-ee27a7e6239c"
          },
          {
            "reference": "urn:uuid:0320c954-0979-47a4-82ab-64bfaa42aed4"
          },
          {
            "reference": "urn:uuid:f0d5bd7e-9124-4917-87f3-9bbe5086b27c"
          },
          {
            "reference": "urn:uuid:6b229ebc-71b7-4b77-bccd-9717c135ce9d"
          },
          {
            "reference": "urn:uuid:b9500fc8-8150-4b97-9b0e-c8322c2859f6"
          },
          {
            "reference": "urn:uuid:cc3f8cab-16cb-4d80-9759-15db90aec38b"
          },
          {
            "reference": "urn:uuid:310a8658-1e96-4be7-be83-48916ce8518b"
          },
          {
            "reference": "urn:uuid:be16f38d-f173-4dd4-8604-db5bc8a0940c"
          },
          {
            "reference": "urn:uuid:4486a881-e3e2-46f5-8f39-4ef68a4cae58"
          },
          {
            "reference": "urn:uuid:8d6702ea-cab5-4229-90e7-d2918cdc9128"
          },
          {
            "reference": "urn:uuid:c168bd30-5b41-4b67-bcb2-6dcb70453d95"
          },
          {
            "reference": "urn:uuid:6d1612dc-47ec-4b07-9862-709664b2b9cc"
          },
          {
            "reference": "urn:uuid:af904dc3-54ee-4247-93f8-341a6c40b08e"
          },
          {
            "reference": "urn:uuid:cbd082a6-537c-44e9-be42-52f9be296444"
          },
          {
            "reference": "urn:uuid:c17c0fca-b231-4eba-aa0b-0a29b023ccd2"
          },
          {
            "reference": "urn:uuid:bd53f91f-622b-45f2-81b9-a57ee67a9916"
          },
          {
            "reference": "urn:uuid:a65ae1a0-1632-4315-b07f-96b2606358ab"
          },
          {
            "reference": "urn:uuid:401e389a-f7f0-4fa7-838b-057b80c7edc8"
          },
          {
            "reference": "urn:uuid:e3ed8ccd-93e8-4320-b550-b5ead9d4cabf"
          },
          {
            "reference": "urn:uuid:592c87d0-968b-4874-9bf8-156a88e6580d"
          },
          {
            "reference": "urn:uuid:4a6d880f-b8b3-42eb-804b-c696690a419c"
          },
          {
            "reference": "urn:uuid:0ddaf79e-4f8b-4ca6-a16f-efc55b2f17bb"
          },
          {
            "reference": "urn:uuid:ed497897-ce16-40f6-a63c-843102bcfc68"
          },
          {
            "reference": "urn:uuid:a982a971-1426-48fd-8e4b-4f5ab8a6cd3d"
          },
          {
            "reference": "urn:uuid:ec6e1f09-c8a5-42b4-b434-2f9aea458f90"
          },
          {
            "reference": "urn:uuid:f13d109a-9ee9-4c6c-83fc-6f48d42a88fb"
          },
          {
            "reference": "urn:uuid:351b0c84-4dfa-4554-ab12-49507341facf"
          },
          {
            "reference": "urn:uuid:031c22d8-d0af-427f-9976-f9d0685c736b"
          },
          {
            "reference": "urn:uuid:4bd43c4d-ef5c-4748-b3b4-c194baf802f4"
          },
          {
            "reference": "urn:uuid:b7595e42-8f7b-48b0-976c-84052e5eafb9"
          },
          {
            "reference": "urn:uuid:7e735e5f-25dc-4037-b52a-42a8bdea8e46"
          },
          {
            "reference": "urn:uuid:99844941-4be3-4e26-88c1-e63a3a81d1fc"
          },
          {
            "reference": "urn:uuid:ba97319a-70d2-4da6-be12-65d2606dbf0d"
          }
        ],
        "status": "registered",
        "code": {
          "coding": [
            {
              "code": "11502-2",
              "system": "http://loinc.org",
              "display": "Laboratory report"
            }
          ]
        },
        "subject": {
          "reference": "urn:uuid:3d8e7c88-efcd-48c5-b359-3031b2e5da90",
          "display": "Meaghan Neary"
        }
      }
    },
    {
      "fullUrl": "urn:uuid:3d8e7c88-efcd-48c5-b359-3031b2e5da90",
      "resource": {
        "resourceType": "Patient",
        "id": "3d8e7c88-efcd-48c5-b359-3031b2e5da90",
        "meta": {
          "security": [
            {
              "system": "http://terminology.hl7.org/CodeSystem/v3-ActReason",
              "code": "HTEST"
            },
            {
              "system": "http://terminology.hl7.org/CodeSystem/v3-ActReason",
              "code": "TRAIN"
            }
          ],
          "tag": [
            {
              "system": "https://synderai.net/fhir/CodeSystem/tags",
              "code": "synthetic",
              "display": "SYNDERAI Synthetic data"
            }
          ],
          "profile": [
            "http://hl7.eu/fhir/base/StructureDefinition/patient-eu-core"
          ]
        },
        "identifier": [
          {
            "type": {
              "coding": [
                {
                  "code": "PT",
                  "system": "http://terminology.hl7.org/CodeSystem/v2-0203"
                }
              ]
            },
            "system": "http://ec.europa.eu/identifier/eci",
            "value": "1586-567257-8"
          },
          {
            "type": {
              "coding": [
                {
                  "code": "MR",
                  "system": "http://terminology.hl7.org/CodeSystem/v2-0203"
                }
              ]
            },
            "system": "http://local.setting.eu/identifier",
            "value": "443e6379-f231-b364-3ccb-644740a1aa2a"
          }
        ],
        "name": [
          {
            "family": "Neary"
          },
          {
            "given": [
              "Meaghan"
            ]
          },
          {
            "text": "Meaghan Neary"
          }
        ],
        "address": [
          {
            "line": [
              "64 Linskey Street"
            ],
            "use": "home",
            "type": "physical",
            "postalCode": "D02",
            "city": "Dublin",
            "country": "Ireland"
          }
        ],
        "telecom": [
          {
            "system": "phone",
            "value": "001-967-573-0911x465"
          }
        ],
        "extension": [
          {
            "url": "http://hl7.org/fhir/StructureDefinition/patient-nationality",
            "valueCodeableConcept": {
              "coding": [
                {
                  "code": "IE",
                  "system": "http://hl7.org/fhir/ValueSet/country"
                }
              ]
            }
          }
        ],
        "text": {
          "status": "generated",
          "div": "<div xmlns=\"http://www.w3.org/1999/xhtml\"><table class=\"hl7__ips\"><tr><td>Meaghan Neary</td><td>female</td><td>19-Dec-1960</td></tr></table></div>"
        },
        "gender": "female",
        "birthDate": "1960-12-19"
      }
    },
    {
      "fullUrl": "urn:uuid:e1417afa-3cb5-4c3b-815c-627b90d14457",
      "resource": {
        "resourceType": "ServiceRequest",
        "id": "e1417afa-3cb5-4c3b-815c-627b90d14457",
        "meta": {
          "profile": [
            "http://hl7.eu/fhir/laboratory/StructureDefinition/ServiceRequest-eu-lab"
          ]
        },
        "identifier": [
          {
            "system": "http://example.org",
            "value": "2403f6a4-ad54-4cdb-bf7c-8c6922c05e9b"
          }
        ],
        "specimen": [
          {
            "reference": "urn:uuid:1ace820a-8f8b-4d25-b20e-ccc79d03493c"
          },
          {
            "reference": "urn:uuid:5dbe0d7e-4e7f-49d2-8b19-166ff7101c06"
          },
          {
            "reference": "urn:uuid:89820050-ad22-44a3-80f9-2acb1d62145d"
          }
        ],
        "reasonCode": [
          {
            "coding": [
              {
                "code": "55822004",
                "system": "http://snomed.info/sct",
                "display": "Hyperlipidemia"
              }
            ]
          },
          {
            "coding": [
              {
                "code": "433144002",
                "system": "http://snomed.info/sct",
                "display": "Chronic kidney disease stage 3"
              }
            ]
          },
          {
            "coding": [
              {
                "code": "157141000119108",
                "system": "http://snomed.info/sct",
                "display": "Proteinuria due to type 2 diabetes mellitus"
              }
            ]
          },
          {
            "coding": [
              {
                "code": "431856006",
                "system": "http://snomed.info/sct",
                "display": "Chronic kidney disease stage 2"
              }
            ]
          },
          {
            "coding": [
              {
                "code": "90781000119102",
                "system": "http://snomed.info/sct",
                "display": "Microalbuminuria due to type 2 diabetes mellitus"
              }
            ]
          },
          {
            "coding": [
              {
                "code": "127013003",
                "system": "http://snomed.info/sct",
                "display": "Disorder of kidney due to diabetes mellitus"
              }
            ]
          },
          {
            "coding": [
              {
                "code": "431855005",
                "system": "http://snomed.info/sct",
                "display": "Chronic kidney disease stage 1"
              }
            ]
          },
          {
            "coding": [
              {
                "code": "237602007",
                "system": "http://snomed.info/sct",
                "display": "Metabolic syndrome X"
              }
            ]
          },
          {
            "coding": [
              {
                "code": "271737000",
                "system": "http://snomed.info/sct",
                "display": "Anemia"
              }
            ]
          },
          {
            "coding": [
              {
                "code": "15777000",
                "system": "http://snomed.info/sct",
                "display": "Prediabetes"
              }
            ]
          },
          {
            "coding": [
              {
                "code": "59621000",
                "system": "http://snomed.info/sct",
                "display": "Essential hypertension"
              }
            ]
          }
        ],
        "status": "active",
        "intent": "order",
        "code": {
          "coding": [
            {
              "code": "108252007",
              "system": "http://snomed.info/sct",
              "display": "Laboratory procedure"
            }
          ]
        },
        "subject": {
          "reference": "urn:uuid:3d8e7c88-efcd-48c5-b359-3031b2e5da90",
          "display": "Meaghan Neary"
        },
        "requester": {
          "reference": "urn:uuid:d27a5ad0-dca2-49e4-a4db-367ab35a96da"
        }
      }
    },
    {
      "fullUrl": "urn:uuid:d27a5ad0-dca2-49e4-a4db-367ab35a96da",
      "resource": {
        "resourceType": "PractitionerRole",
        "id": "d27a5ad0-dca2-49e4-a4db-367ab35a96da",
        "meta": {
          "profile": [
            "http://hl7.eu/fhir/base/StructureDefinition/practitionerRole-eu"
          ]
        },
        "text": {
          "status": "generated",
          "div": "<div xmlns=\"http://www.w3.org/1999/xhtml\">Provider Role Id: d27a5ad0-dca2-49e4-a4db-367ab35a96da</div>"
        },
        "organization": {
          "reference": "urn:uuid:1e9a82e2-6325-4651-858a-9abf01993374"
        }
      }
    },
    {
      "fullUrl": "urn:uuid:1e9a82e2-6325-4651-858a-9abf01993374",
      "resource": {
        "resourceType": "Organization",
        "id": "1e9a82e2-6325-4651-858a-9abf01993374",
        "meta": {
          "profile": [
            "http://hl7.eu/fhir/base/StructureDefinition/organization-eu"
          ]
        },
        "identifier": [
          {
            "assigner": {
              "display": "HL7 Europe"
            },
            "system": "urn:oid:2.16.840.1.113883.2.51.999",
            "value": "c13814ef-0161-4678-8cfb-2eb20e2d63fb"
          }
        ],
        "address": [
          {
            "line": [
              "Parnell Square West nan"
            ],
            "city": "Dublin",
            "postalCode": "D01",
            "country": "Ireland"
          }
        ],
        "text": {
          "status": "generated",
          "div": "<div xmlns=\"http://www.w3.org/1999/xhtml\">Provider Organization: Rotunda Hospital</div>"
        },
        "name": "Rotunda Hospital"
      }
    },
    {
      "fullUrl": "urn:uuid:1ace820a-8f8b-4d25-b20e-ccc79d03493c",
      "resource": {
        "resourceType": "Specimen",
        "id": "1ace820a-8f8b-4d25-b20e-ccc79d03493c",
        "meta": {
          "profile": [
            "http://hl7.eu/fhir/laboratory/StructureDefinition/Specimen-eu-lab"
          ]
        },
        "collection": {
          "collectedDateTime": "2015-11-09"
        },
        "text": {
          "status": "generated",
          "div": "<div xmlns=\"http://www.w3.org/1999/xhtml\"><table class=\"hl7__eu__lab__report\"><tr><th>Specimen</th><th>Collection Date</th></tr><tr><td>Acellular blood (serum or plasma) specimen</td><td><span class=\"nb\">09-Nov-2015</span></td></tr></table></div>"
        },
        "type": {
          "coding": [
            {
              "code": "122592007",
              "system": "http://snomed.info/sct",
              "display": "Acellular blood (serum or plasma) specimen"
            }
          ]
        }
      }
    },
    {
      "fullUrl": "urn:uuid:5dbe0d7e-4e7f-49d2-8b19-166ff7101c06",
      "resource": {
        "resourceType": "Specimen",
        "id": "5dbe0d7e-4e7f-49d2-8b19-166ff7101c06",
        "meta": {
          "profile": [
            "http://hl7.eu/fhir/laboratory/StructureDefinition/Specimen-eu-lab"
          ]
        },
        "collection": {
          "collectedDateTime": "2015-11-09"
        },
        "text": {
          "status": "generated",
          "div": "<div xmlns=\"http://www.w3.org/1999/xhtml\"><table class=\"hl7__eu__lab__report\"><tr><th>Specimen</th><th>Collection Date</th></tr><tr><td>Urine specimen</td><td><span class=\"nb\">09-Nov-2015</span></td></tr></table></div>"
        },
        "type": {
          "coding": [
            {
              "code": "122575003",
              "system": "http://snomed.info/sct",
              "display": "Urine specimen"
            }
          ]
        }
      }
    },
    {
      "fullUrl": "urn:uuid:89820050-ad22-44a3-80f9-2acb1d62145d",
      "resource": {
        "resourceType": "Specimen",
        "id": "89820050-ad22-44a3-80f9-2acb1d62145d",
        "meta": {
          "profile": [
            "http://hl7.eu/fhir/laboratory/StructureDefinition/Specimen-eu-lab"
          ]
        },
        "collection": {
          "collectedDateTime": "2015-11-09"
        },
        "text": {
          "status": "generated",
          "div": "<div xmlns=\"http://www.w3.org/1999/xhtml\"><table class=\"hl7__eu__lab__report\"><tr><th>Specimen</th><th>Collection Date</th></tr><tr><td>Whole blood specimen (specimen)</td><td><span class=\"nb\">09-Nov-2015</span></td></tr></table></div>"
        },
        "type": {
          "coding": [
            {
              "code": "258580003",
              "system": "http://snomed.info/sct",
              "display": "Whole blood specimen (specimen)"
            }
          ]
        }
      }
    },
    {
      "fullUrl": "urn:uuid:6f601f32-ed8a-435b-ac89-61fb4f98e8e6",
      "resource": {
        "resourceType": "Observation",
        "id": "6f601f32-ed8a-435b-ac89-61fb4f98e8e6",
        "meta": {
          "profile": [
            "http://hl7.eu/fhir/laboratory/StructureDefinition/Observation-resultslab-eu-lab"
          ]
        },
        "performer": [
          {
            "display": "The Central European Lab"
          }
        ],
        "category": [
          {
            "coding": [
              {
                "system": "http://terminology.hl7.org/CodeSystem/observation-category",
                "code": "laboratory"
              }
            ]
          }
        ],
        "code": {
          "coding": [
            {
              "code": "2345-7",
              "system": "http://loinc.org",
              "display": "Glucose [Mass/volume] in Serum or Plasma"
            }
          ],
          "text": "Glucose [Mass/volume] in Serum or Plasma"
        },
        "valueQuantity": {
          "system": "http://unitsofmeasure.org",
          "value": 71.8,
          "unit": "mg/dL",
          "code": "mg/dL"
        },
        "referenceRange": [
          {
            "low": {
              "value": 70,
              "code": "mg/dL",
              "system": "http://unitsofmeasure.org"
            }
          },
          {
            "high": {
              "value": 99,
              "code": "mg/dL",
              "system": "http://unitsofmeasure.org"
            }
          }
        ],
        "text": {
          "status": "generated",
          "div": "<div xmlns=\"http://www.w3.org/1999/xhtml\"><table class=\"hl7__eu__lab__report\"><tr><th>Test</th><th>09-Nov-2015</th><th>Reference&#xA0;Range</th><th>Unit</th></tr><tr><td>Glucose [Mass/volume] in Serum or Plasma</td><td>71.8</td><td>70 - 99</td><td></td><td>mg/dL</td></tr></table></div>"
        },
        "status": "final",
        "subject": {
          "reference": "urn:uuid:3d8e7c88-efcd-48c5-b359-3031b2e5da90",
          "display": "Meaghan Neary"
        },
        "effectiveDateTime": "2015-11-09T22:11:04Z",
        "specimen": {
          "reference": "urn:uuid:1ace820a-8f8b-4d25-b20e-ccc79d03493c"
        }
      }
    },
    {
      "fullUrl": "urn:uuid:087abbb9-8292-4233-a292-ee27a7e6239c",
      "resource": {
        "resourceType": "Observation",
        "id": "087abbb9-8292-4233-a292-ee27a7e6239c",
        "meta": {
          "profile": [
            "http://hl7.eu/fhir/laboratory/StructureDefinition/Observation-resultslab-eu-lab"
          ]
        },
        "performer": [
          {
            "display": "The Central European Lab"
          }
        ],
        "category": [
          {
            "coding": [
              {
                "system": "http://terminology.hl7.org/CodeSystem/observation-category",
                "code": "laboratory"
              }
            ]
          }
        ],
        "code": {
          "coding": [
            {
              "code": "3094-0",
              "system": "http://loinc.org",
              "display": "Urea nitrogen [Mass/volume] in Serum or Plasma"
            }
          ],
          "text": "Urea nitrogen [Mass/volume] in Serum or Plasma"
        },
        "valueQuantity": {
          "system": "http://unitsofmeasure.org",
          "value": 15.8,
          "unit": "mg/dL",
          "code": "mg/dL"
        },
        "referenceRange": [
          {
            "low": {
              "value": 7,
              "code": "mg/dL",
              "system": "http://unitsofmeasure.org"
            }
          },
          {
            "high": {
              "value": 50,
              "code": "mg/dL",
              "system": "http://unitsofmeasure.org"
            }
          }
        ],
        "text": {
          "status": "generated",
          "div": "<div xmlns=\"http://www.w3.org/1999/xhtml\"><table class=\"hl7__eu__lab__report\"><tr><th>Test</th><th>09-Nov-2015</th><th>Reference&#xA0;Range</th><th>Unit</th></tr><tr><td>Urea nitrogen [Mass/volume] in Serum or Plasma</td><td>15.8</td><td>7 - 50</td><td></td><td>mg/dL</td></tr></table></div>"
        },
        "status": "final",
        "subject": {
          "reference": "urn:uuid:3d8e7c88-efcd-48c5-b359-3031b2e5da90",
          "display": "Meaghan Neary"
        },
        "effectiveDateTime": "2015-11-09T22:11:04Z",
        "specimen": {
          "reference": "urn:uuid:1ace820a-8f8b-4d25-b20e-ccc79d03493c"
        }
      }
    },
    {
      "fullUrl": "urn:uuid:0320c954-0979-47a4-82ab-64bfaa42aed4",
      "resource": {
        "resourceType": "Observation",
        "id": "0320c954-0979-47a4-82ab-64bfaa42aed4",
        "meta": {
          "profile": [
            "http://hl7.eu/fhir/laboratory/StructureDefinition/Observation-resultslab-eu-lab"
          ]
        },
        "performer": [
          {
            "display": "The Central European Lab"
          }
        ],
        "category": [
          {
            "coding": [
              {
                "system": "http://terminology.hl7.org/CodeSystem/observation-category",
                "code": "laboratory"
              }
            ]
          }
        ],
        "code": {
          "coding": [
            {
              "code": "2160-0",
              "system": "http://loinc.org",
              "display": "Creatinine [Mass/volume] in Serum or Plasma"
            }
          ],
          "text": "Creatinine [Mass/volume] in Serum or Plasma"
        },
        "valueQuantity": {
          "system": "http://unitsofmeasure.org",
          "value": 1.9,
          "unit": "mg/dL",
          "code": "mg/dL"
        },
        "referenceRange": [
          {
            "low": {
              "value": 0.6,
              "code": "mg/dL",
              "system": "http://unitsofmeasure.org"
            }
          },
          {
            "high": {
              "value": 1.1,
              "code": "mg/dL",
              "system": "http://unitsofmeasure.org"
            }
          }
        ],
        "interpretation": [
          {
            "coding": [
              {
                "code": "H",
                "system": "http://terminology.hl7.org/CodeSystem/v3-ObservationInterpretation",
                "display": "High"
              }
            ]
          }
        ],
        "text": {
          "status": "generated",
          "div": "<div xmlns=\"http://www.w3.org/1999/xhtml\"><table class=\"hl7__eu__lab__report\"><tr><th>Test</th><th>09-Nov-2015</th><th>Reference&#xA0;Range</th><th>Unit</th></tr><tr><td>Creatinine [Mass/volume] in Serum or Plasma</td><td>1.9</td><td>0.6 - 1.1</td><td>H</td><td>mg/dL</td></tr></table></div>"
        },
        "status": "final",
        "subject": {
          "reference": "urn:uuid:3d8e7c88-efcd-48c5-b359-3031b2e5da90",
          "display": "Meaghan Neary"
        },
        "effectiveDateTime": "2015-11-09T22:11:04Z",
        "specimen": {
          "reference": "urn:uuid:1ace820a-8f8b-4d25-b20e-ccc79d03493c"
        }
      }
    },
    {
      "fullUrl": "urn:uuid:f0d5bd7e-9124-4917-87f3-9bbe5086b27c",
      "resource": {
        "resourceType": "Observation",
        "id": "f0d5bd7e-9124-4917-87f3-9bbe5086b27c",
        "meta": {
          "profile": [
            "http://hl7.eu/fhir/laboratory/StructureDefinition/Observation-resultslab-eu-lab"
          ]
        },
        "performer": [
          {
            "display": "The Central European Lab"
          }
        ],
        "category": [
          {
            "coding": [
              {
                "system": "http://terminology.hl7.org/CodeSystem/observation-category",
                "code": "laboratory"
              }
            ]
          }
        ],
        "code": {
          "coding": [
            {
              "code": "17861-6",
              "system": "http://loinc.org",
              "display": "Calcium [Mass/volume] in Serum or Plasma"
            }
          ],
          "text": "Calcium [Mass/volume] in Serum or Plasma"
        },
        "valueQuantity": {
          "system": "http://unitsofmeasure.org",
          "value": 10.1,
          "unit": "mg/dL",
          "code": "mg/dL"
        },
        "referenceRange": [
          {
            "low": {
              "value": 8.6,
              "code": "mg/dL",
              "system": "http://unitsofmeasure.org"
            }
          },
          {
            "high": {
              "value": 10.4,
              "code": "mg/dL",
              "system": "http://unitsofmeasure.org"
            }
          }
        ],
        "text": {
          "status": "generated",
          "div": "<div xmlns=\"http://www.w3.org/1999/xhtml\"><table class=\"hl7__eu__lab__report\"><tr><th>Test</th><th>09-Nov-2015</th><th>Reference&#xA0;Range</th><th>Unit</th></tr><tr><td>Calcium [Mass/volume] in Serum or Plasma</td><td>10.1</td><td>8.6 - 10.4</td><td></td><td>mg/dL</td></tr></table></div>"
        },
        "status": "final",
        "subject": {
          "reference": "urn:uuid:3d8e7c88-efcd-48c5-b359-3031b2e5da90",
          "display": "Meaghan Neary"
        },
        "effectiveDateTime": "2015-11-09T22:11:04Z",
        "specimen": {
          "reference": "urn:uuid:1ace820a-8f8b-4d25-b20e-ccc79d03493c"
        }
      }
    },
    {
      "fullUrl": "urn:uuid:6b229ebc-71b7-4b77-bccd-9717c135ce9d",
      "resource": {
        "resourceType": "Observation",
        "id": "6b229ebc-71b7-4b77-bccd-9717c135ce9d",
        "meta": {
          "profile": [
            "http://hl7.eu/fhir/laboratory/StructureDefinition/Observation-resultslab-eu-lab"
          ]
        },
        "performer": [
          {
            "display": "The Central European Lab"
          }
        ],
        "category": [
          {
            "coding": [
              {
                "system": "http://terminology.hl7.org/CodeSystem/observation-category",
                "code": "laboratory"
              }
            ]
          }
        ],
        "code": {
          "coding": [
            {
              "code": "2951-2",
              "system": "http://loinc.org",
              "display": "Sodium [Moles/volume] in Serum or Plasma"
            }
          ],
          "text": "Sodium [Moles/volume] in Serum or Plasma"
        },
        "valueQuantity": {
          "system": "http://unitsofmeasure.org",
          "value": 140.4,
          "unit": "mmol/L",
          "code": "mmol/L"
        },
        "referenceRange": [
          {
            "low": {
              "value": 135,
              "code": "mmol/L",
              "system": "http://unitsofmeasure.org"
            }
          },
          {
            "high": {
              "value": 145,
              "code": "mmol/L",
              "system": "http://unitsofmeasure.org"
            }
          }
        ],
        "text": {
          "status": "generated",
          "div": "<div xmlns=\"http://www.w3.org/1999/xhtml\"><table class=\"hl7__eu__lab__report\"><tr><th>Test</th><th>09-Nov-2015</th><th>Reference&#xA0;Range</th><th>Unit</th></tr><tr><td>Sodium [Moles/volume] in Serum or Plasma</td><td>140.4</td><td>135 - 145</td><td></td><td>mmol/L</td></tr></table></div>"
        },
        "status": "final",
        "subject": {
          "reference": "urn:uuid:3d8e7c88-efcd-48c5-b359-3031b2e5da90",
          "display": "Meaghan Neary"
        },
        "effectiveDateTime": "2015-11-09T22:11:04Z",
        "specimen": {
          "reference": "urn:uuid:1ace820a-8f8b-4d25-b20e-ccc79d03493c"
        }
      }
    },
    {
      "fullUrl": "urn:uuid:b9500fc8-8150-4b97-9b0e-c8322c2859f6",
      "resource": {
        "resourceType": "Observation",
        "id": "b9500fc8-8150-4b97-9b0e-c8322c2859f6",
        "meta": {
          "profile": [
            "http://hl7.eu/fhir/laboratory/StructureDefinition/Observation-resultslab-eu-lab"
          ]
        },
        "performer": [
          {
            "display": "The Central European Lab"
          }
        ],
        "category": [
          {
            "coding": [
              {
                "system": "http://terminology.hl7.org/CodeSystem/observation-category",
                "code": "laboratory"
              }
            ]
          }
        ],
        "code": {
          "coding": [
            {
              "code": "2823-3",
              "system": "http://loinc.org",
              "display": "Potassium [Moles/volume] in Serum or Plasma"
            }
          ],
          "text": "Potassium [Moles/volume] in Serum or Plasma"
        },
        "valueQuantity": {
          "system": "http://unitsofmeasure.org",
          "value": 4.4,
          "unit": "mmol/L",
          "code": "mmol/L"
        },
        "referenceRange": [
          {
            "low": {
              "value": 3.5,
              "code": "mmol/L",
              "system": "http://unitsofmeasure.org"
            }
          },
          {
            "high": {
              "value": 5.1,
              "code": "mmol/L",
              "system": "http://unitsofmeasure.org"
            }
          }
        ],
        "text": {
          "status": "generated",
          "div": "<div xmlns=\"http://www.w3.org/1999/xhtml\"><table class=\"hl7__eu__lab__report\"><tr><th>Test</th><th>09-Nov-2015</th><th>Reference&#xA0;Range</th><th>Unit</th></tr><tr><td>Potassium [Moles/volume] in Serum or Plasma</td><td>4.4</td><td>3.5 - 5.1</td><td></td><td>mmol/L</td></tr></table></div>"
        },
        "status": "final",
        "subject": {
          "reference": "urn:uuid:3d8e7c88-efcd-48c5-b359-3031b2e5da90",
          "display": "Meaghan Neary"
        },
        "effectiveDateTime": "2015-11-09T22:11:04Z",
        "specimen": {
          "reference": "urn:uuid:1ace820a-8f8b-4d25-b20e-ccc79d03493c"
        }
      }
    },
    {
      "fullUrl": "urn:uuid:cc3f8cab-16cb-4d80-9759-15db90aec38b",
      "resource": {
        "resourceType": "Observation",
        "id": "cc3f8cab-16cb-4d80-9759-15db90aec38b",
        "meta": {
          "profile": [
            "http://hl7.eu/fhir/laboratory/StructureDefinition/Observation-resultslab-eu-lab"
          ]
        },
        "performer": [
          {
            "display": "The Central European Lab"
          }
        ],
        "category": [
          {
            "coding": [
              {
                "system": "http://terminology.hl7.org/CodeSystem/observation-category",
                "code": "laboratory"
              }
            ]
          }
        ],
        "code": {
          "coding": [
            {
              "code": "2075-0",
              "system": "http://loinc.org",
              "display": "Chloride [Moles/volume] in Serum or Plasma"
            }
          ],
          "text": "Chloride [Moles/volume] in Serum or Plasma"
        },
        "valueQuantity": {
          "system": "http://unitsofmeasure.org",
          "value": 101.9,
          "unit": "mmol/L",
          "code": "mmol/L"
        },
        "referenceRange": [
          {
            "low": {
              "value": 98,
              "code": "mmol/L",
              "system": "http://unitsofmeasure.org"
            }
          },
          {
            "high": {
              "value": 108,
              "code": "mmol/L",
              "system": "http://unitsofmeasure.org"
            }
          }
        ],
        "text": {
          "status": "generated",
          "div": "<div xmlns=\"http://www.w3.org/1999/xhtml\"><table class=\"hl7__eu__lab__report\"><tr><th>Test</th><th>09-Nov-2015</th><th>Reference&#xA0;Range</th><th>Unit</th></tr><tr><td>Chloride [Moles/volume] in Serum or Plasma</td><td>101.9</td><td>98 - 108</td><td></td><td>mmol/L</td></tr></table></div>"
        },
        "status": "final",
        "subject": {
          "reference": "urn:uuid:3d8e7c88-efcd-48c5-b359-3031b2e5da90",
          "display": "Meaghan Neary"
        },
        "effectiveDateTime": "2015-11-09T22:11:04Z",
        "specimen": {
          "reference": "urn:uuid:1ace820a-8f8b-4d25-b20e-ccc79d03493c"
        }
      }
    },
    {
      "fullUrl": "urn:uuid:310a8658-1e96-4be7-be83-48916ce8518b",
      "resource": {
        "resourceType": "Observation",
        "id": "310a8658-1e96-4be7-be83-48916ce8518b",
        "meta": {
          "profile": [
            "http://hl7.eu/fhir/laboratory/StructureDefinition/Observation-resultslab-eu-lab"
          ]
        },
        "performer": [
          {
            "display": "The Central European Lab"
          }
        ],
        "category": [
          {
            "coding": [
              {
                "system": "http://terminology.hl7.org/CodeSystem/observation-category",
                "code": "laboratory"
              }
            ]
          }
        ],
        "code": {
          "coding": [
            {
              "code": "2028-9",
              "system": "http://loinc.org",
              "display": "Carbon dioxide, total [Moles/volume] in Serum or Plasma"
            }
          ],
          "text": "Carbon dioxide, total [Moles/volume] in Serum or Plasma"
        },
        "valueQuantity": {
          "system": "http://unitsofmeasure.org",
          "value": 27.4,
          "unit": "mmol/L",
          "code": "mmol/L"
        },
        "referenceRange": [
          {
            "low": {
              "value": 22,
              "code": "mmol/L",
              "system": "http://unitsofmeasure.org"
            }
          },
          {
            "high": {
              "value": 32,
              "code": "mmol/L",
              "system": "http://unitsofmeasure.org"
            }
          }
        ],
        "text": {
          "status": "generated",
          "div": "<div xmlns=\"http://www.w3.org/1999/xhtml\"><table class=\"hl7__eu__lab__report\"><tr><th>Test</th><th>09-Nov-2015</th><th>Reference&#xA0;Range</th><th>Unit</th></tr><tr><td>Carbon dioxide, total [Moles/volume] in Serum or Plasma</td><td>27.4</td><td>22 - 32</td><td></td><td>mmol/L</td></tr></table></div>"
        },
        "status": "final",
        "subject": {
          "reference": "urn:uuid:3d8e7c88-efcd-48c5-b359-3031b2e5da90",
          "display": "Meaghan Neary"
        },
        "effectiveDateTime": "2015-11-09T22:11:04Z",
        "specimen": {
          "reference": "urn:uuid:1ace820a-8f8b-4d25-b20e-ccc79d03493c"
        }
      }
    },
    {
      "fullUrl": "urn:uuid:be16f38d-f173-4dd4-8604-db5bc8a0940c",
      "resource": {
        "resourceType": "Observation",
        "id": "be16f38d-f173-4dd4-8604-db5bc8a0940c",
        "meta": {
          "profile": [
            "http://hl7.eu/fhir/laboratory/StructureDefinition/Observation-resultslab-eu-lab"
          ]
        },
        "performer": [
          {
            "display": "The Central European Lab"
          }
        ],
        "category": [
          {
            "coding": [
              {
                "system": "http://terminology.hl7.org/CodeSystem/observation-category",
                "code": "laboratory"
              }
            ]
          }
        ],
        "code": {
          "coding": [
            {
              "code": "5767-9",
              "system": "http://loinc.org",
              "display": "Appearance of Urine"
            }
          ],
          "text": "Appearance of Urine"
        },
        "text": {
          "status": "generated",
          "div": "<div xmlns=\"http://www.w3.org/1999/xhtml\"><table class=\"hl7__eu__lab__report\"><tr><th>Test</th><th>09-Nov-2015</th><th>Reference&#xA0;Range</th><th>Unit</th></tr><tr><td>Appearance of Urine</td></tr></table></div>"
        },
        "status": "final",
        "subject": {
          "reference": "urn:uuid:3d8e7c88-efcd-48c5-b359-3031b2e5da90",
          "display": "Meaghan Neary"
        },
        "effectiveDateTime": "2015-11-09T22:11:04Z",
        "specimen": {
          "reference": "urn:uuid:5dbe0d7e-4e7f-49d2-8b19-166ff7101c06"
        }
      }
    },
    {
      "fullUrl": "urn:uuid:4486a881-e3e2-46f5-8f39-4ef68a4cae58",
      "resource": {
        "resourceType": "Observation",
        "id": "4486a881-e3e2-46f5-8f39-4ef68a4cae58",
        "meta": {
          "profile": [
            "http://hl7.eu/fhir/laboratory/StructureDefinition/Observation-resultslab-eu-lab"
          ]
        },
        "performer": [
          {
            "display": "The Central European Lab"
          }
        ],
        "category": [
          {
            "coding": [
              {
                "system": "http://terminology.hl7.org/CodeSystem/observation-category",
                "code": "laboratory"
              }
            ]
          }
        ],
        "code": {
          "coding": [
            {
              "code": "34533-0",
              "system": "http://loinc.org",
              "display": "Odor of Urine"
            }
          ],
          "text": "Odor of Urine"
        },
        "text": {
          "status": "generated",
          "div": "<div xmlns=\"http://www.w3.org/1999/xhtml\"><table class=\"hl7__eu__lab__report\"><tr><th>Test</th><th>09-Nov-2015</th><th>Reference&#xA0;Range</th><th>Unit</th></tr><tr><td>Odor of Urine</td></tr></table></div>"
        },
        "status": "final",
        "subject": {
          "reference": "urn:uuid:3d8e7c88-efcd-48c5-b359-3031b2e5da90",
          "display": "Meaghan Neary"
        },
        "effectiveDateTime": "2015-11-09T22:11:04Z",
        "specimen": {
          "reference": "urn:uuid:5dbe0d7e-4e7f-49d2-8b19-166ff7101c06"
        }
      }
    },
    {
      "fullUrl": "urn:uuid:8d6702ea-cab5-4229-90e7-d2918cdc9128",
      "resource": {
        "resourceType": "Observation",
        "id": "8d6702ea-cab5-4229-90e7-d2918cdc9128",
        "meta": {
          "profile": [
            "http://hl7.eu/fhir/laboratory/StructureDefinition/Observation-resultslab-eu-lab"
          ]
        },
        "performer": [
          {
            "display": "The Central European Lab"
          }
        ],
        "category": [
          {
            "coding": [
              {
                "system": "http://terminology.hl7.org/CodeSystem/observation-category",
                "code": "laboratory"
              }
            ]
          }
        ],
        "code": {
          "coding": [
            {
              "code": "32167-9",
              "system": "http://loinc.org",
              "display": "Clarity of Urine"
            }
          ],
          "text": "Clarity of Urine"
        },
        "text": {
          "status": "generated",
          "div": "<div xmlns=\"http://www.w3.org/1999/xhtml\"><table class=\"hl7__eu__lab__report\"><tr><th>Test</th><th>09-Nov-2015</th><th>Reference&#xA0;Range</th><th>Unit</th></tr><tr><td>Clarity of Urine</td></tr></table></div>"
        },
        "status": "final",
        "subject": {
          "reference": "urn:uuid:3d8e7c88-efcd-48c5-b359-3031b2e5da90",
          "display": "Meaghan Neary"
        },
        "effectiveDateTime": "2015-11-09T22:11:04Z",
        "specimen": {
          "reference": "urn:uuid:5dbe0d7e-4e7f-49d2-8b19-166ff7101c06"
        }
      }
    },
    {
      "fullUrl": "urn:uuid:c168bd30-5b41-4b67-bcb2-6dcb70453d95",
      "resource": {
        "resourceType": "Observation",
        "id": "c168bd30-5b41-4b67-bcb2-6dcb70453d95",
        "meta": {
          "profile": [
            "http://hl7.eu/fhir/laboratory/StructureDefinition/Observation-resultslab-eu-lab"
          ]
        },
        "performer": [
          {
            "display": "The Central European Lab"
          }
        ],
        "category": [
          {
            "coding": [
              {
                "system": "http://terminology.hl7.org/CodeSystem/observation-category",
                "code": "laboratory"
              }
            ]
          }
        ],
        "code": {
          "coding": [
            {
              "code": "5778-6",
              "system": "http://loinc.org",
              "display": "Color of Urine"
            }
          ],
          "text": "Color of Urine"
        },
        "text": {
          "status": "generated",
          "div": "<div xmlns=\"http://www.w3.org/1999/xhtml\"><table class=\"hl7__eu__lab__report\"><tr><th>Test</th><th>09-Nov-2015</th><th>Reference&#xA0;Range</th><th>Unit</th></tr><tr><td>Color of Urine</td></tr></table></div>"
        },
        "status": "final",
        "subject": {
          "reference": "urn:uuid:3d8e7c88-efcd-48c5-b359-3031b2e5da90",
          "display": "Meaghan Neary"
        },
        "effectiveDateTime": "2015-11-09T22:11:04Z",
        "specimen": {
          "reference": "urn:uuid:5dbe0d7e-4e7f-49d2-8b19-166ff7101c06"
        }
      }
    },
    {
      "fullUrl": "urn:uuid:6d1612dc-47ec-4b07-9862-709664b2b9cc",
      "resource": {
        "resourceType": "Observation",
        "id": "6d1612dc-47ec-4b07-9862-709664b2b9cc",
        "meta": {
          "profile": [
            "http://hl7.eu/fhir/laboratory/StructureDefinition/Observation-resultslab-eu-lab"
          ]
        },
        "performer": [
          {
            "display": "The Central European Lab"
          }
        ],
        "category": [
          {
            "coding": [
              {
                "system": "http://terminology.hl7.org/CodeSystem/observation-category",
                "code": "laboratory"
              }
            ]
          }
        ],
        "code": {
          "coding": [
            {
              "code": "5792-7",
              "system": "http://loinc.org",
              "display": "Glucose [Mass/volume] in Urine by Test strip"
            }
          ],
          "text": "Glucose [Mass/volume] in Urine by Test strip"
        },
        "valueQuantity": {
          "system": "http://unitsofmeasure.org",
          "value": 1.8,
          "unit": "mg/dL",
          "code": "mg/dL"
        },
        "referenceRange": [
          {
            "low": {
              "value": 0.8,
              "code": "mg/dL",
              "system": "http://unitsofmeasure.org"
            }
          },
          {
            "high": {
              "value": 0,
              "code": "mg/dL",
              "system": "http://unitsofmeasure.org"
            }
          }
        ],
        "interpretation": [
          {
            "coding": [
              {
                "code": "H",
                "system": "http://terminology.hl7.org/CodeSystem/v3-ObservationInterpretation",
                "display": "High"
              }
            ]
          }
        ],
        "text": {
          "status": "generated",
          "div": "<div xmlns=\"http://www.w3.org/1999/xhtml\"><table class=\"hl7__eu__lab__report\"><tr><th>Test</th><th>09-Nov-2015</th><th>Reference&#xA0;Range</th><th>Unit</th></tr><tr><td>Glucose [Mass/volume] in Urine by Test strip</td><td>1.8</td><td>0.8 - 0</td><td>H</td><td>mg/dL</td></tr></table></div>"
        },
        "status": "final",
        "subject": {
          "reference": "urn:uuid:3d8e7c88-efcd-48c5-b359-3031b2e5da90",
          "display": "Meaghan Neary"
        },
        "effectiveDateTime": "2015-11-09T22:11:04Z",
        "specimen": {
          "reference": "urn:uuid:5dbe0d7e-4e7f-49d2-8b19-166ff7101c06"
        }
      }
    },
    {
      "fullUrl": "urn:uuid:af904dc3-54ee-4247-93f8-341a6c40b08e",
      "resource": {
        "resourceType": "Observation",
        "id": "af904dc3-54ee-4247-93f8-341a6c40b08e",
        "meta": {
          "profile": [
            "http://hl7.eu/fhir/laboratory/StructureDefinition/Observation-resultslab-eu-lab"
          ]
        },
        "performer": [
          {
            "display": "The Central European Lab"
          }
        ],
        "category": [
          {
            "coding": [
              {
                "system": "http://terminology.hl7.org/CodeSystem/observation-category",
                "code": "laboratory"
              }
            ]
          }
        ],
        "code": {
          "coding": [
            {
              "code": "25428-4",
              "system": "http://loinc.org",
              "display": "Glucose [Presence] in Urine by Test strip"
            }
          ],
          "text": "Glucose [Presence] in Urine by Test strip"
        },
        "text": {
          "status": "generated",
          "div": "<div xmlns=\"http://www.w3.org/1999/xhtml\"><table class=\"hl7__eu__lab__report\"><tr><th>Test</th><th>09-Nov-2015</th><th>Reference&#xA0;Range</th><th>Unit</th></tr><tr><td>Glucose [Presence] in Urine by Test strip</td></tr></table></div>"
        },
        "status": "final",
        "subject": {
          "reference": "urn:uuid:3d8e7c88-efcd-48c5-b359-3031b2e5da90",
          "display": "Meaghan Neary"
        },
        "effectiveDateTime": "2015-11-09T22:11:04Z",
        "specimen": {
          "reference": "urn:uuid:5dbe0d7e-4e7f-49d2-8b19-166ff7101c06"
        }
      }
    },
    {
      "fullUrl": "urn:uuid:cbd082a6-537c-44e9-be42-52f9be296444",
      "resource": {
        "resourceType": "Observation",
        "id": "cbd082a6-537c-44e9-be42-52f9be296444",
        "meta": {
          "profile": [
            "http://hl7.eu/fhir/laboratory/StructureDefinition/Observation-resultslab-eu-lab"
          ]
        },
        "performer": [
          {
            "display": "The Central European Lab"
          }
        ],
        "category": [
          {
            "coding": [
              {
                "system": "http://terminology.hl7.org/CodeSystem/observation-category",
                "code": "laboratory"
              }
            ]
          }
        ],
        "code": {
          "coding": [
            {
              "code": "20505-4",
              "system": "http://loinc.org",
              "display": "Bilirubin.total [Mass/volume] in Urine by Test strip"
            }
          ],
          "text": "Bilirubin.total [Mass/volume] in Urine by Test strip"
        },
        "valueQuantity": {
          "system": "http://unitsofmeasure.org",
          "value": 0.8,
          "unit": "mg/dL",
          "code": "mg/dL"
        },
        "referenceRange": [
          {
            "low": {
              "value": 0,
              "code": "mg/dL",
              "system": "http://unitsofmeasure.org"
            }
          },
          {
            "high": {
              "value": 1,
              "code": "mg/dL",
              "system": "http://unitsofmeasure.org"
            }
          }
        ],
        "text": {
          "status": "generated",
          "div": "<div xmlns=\"http://www.w3.org/1999/xhtml\"><table class=\"hl7__eu__lab__report\"><tr><th>Test</th><th>09-Nov-2015</th><th>Reference&#xA0;Range</th><th>Unit</th></tr><tr><td>Bilirubin.total [Mass/volume] in Urine by Test strip</td><td>0.8</td><td>0 - 1</td><td></td><td>mg/dL</td></tr></table></div>"
        },
        "status": "final",
        "subject": {
          "reference": "urn:uuid:3d8e7c88-efcd-48c5-b359-3031b2e5da90",
          "display": "Meaghan Neary"
        },
        "effectiveDateTime": "2015-11-09T22:11:04Z",
        "specimen": {
          "reference": "urn:uuid:5dbe0d7e-4e7f-49d2-8b19-166ff7101c06"
        }
      }
    },
    {
      "fullUrl": "urn:uuid:c17c0fca-b231-4eba-aa0b-0a29b023ccd2",
      "resource": {
        "resourceType": "Observation",
        "id": "c17c0fca-b231-4eba-aa0b-0a29b023ccd2",
        "meta": {
          "profile": [
            "http://hl7.eu/fhir/laboratory/StructureDefinition/Observation-resultslab-eu-lab"
          ]
        },
        "performer": [
          {
            "display": "The Central European Lab"
          }
        ],
        "category": [
          {
            "coding": [
              {
                "system": "http://terminology.hl7.org/CodeSystem/observation-category",
                "code": "laboratory"
              }
            ]
          }
        ],
        "code": {
          "coding": [
            {
              "code": "5770-3",
              "system": "http://loinc.org",
              "display": "Bilirubin.total [Presence] in Urine by Test strip"
            }
          ],
          "text": "Bilirubin.total [Presence] in Urine by Test strip"
        },
        "text": {
          "status": "generated",
          "div": "<div xmlns=\"http://www.w3.org/1999/xhtml\"><table class=\"hl7__eu__lab__report\"><tr><th>Test</th><th>09-Nov-2015</th><th>Reference&#xA0;Range</th><th>Unit</th></tr><tr><td>Bilirubin.total [Presence] in Urine by Test strip</td></tr></table></div>"
        },
        "status": "final",
        "subject": {
          "reference": "urn:uuid:3d8e7c88-efcd-48c5-b359-3031b2e5da90",
          "display": "Meaghan Neary"
        },
        "effectiveDateTime": "2015-11-09T22:11:04Z",
        "specimen": {
          "reference": "urn:uuid:5dbe0d7e-4e7f-49d2-8b19-166ff7101c06"
        }
      }
    },
    {
      "fullUrl": "urn:uuid:bd53f91f-622b-45f2-81b9-a57ee67a9916",
      "resource": {
        "resourceType": "Observation",
        "id": "bd53f91f-622b-45f2-81b9-a57ee67a9916",
        "meta": {
          "profile": [
            "http://hl7.eu/fhir/laboratory/StructureDefinition/Observation-resultslab-eu-lab"
          ]
        },
        "performer": [
          {
            "display": "The Central European Lab"
          }
        ],
        "category": [
          {
            "coding": [
              {
                "system": "http://terminology.hl7.org/CodeSystem/observation-category",
                "code": "laboratory"
              }
            ]
          }
        ],
        "code": {
          "coding": [
            {
              "code": "5797-6",
              "system": "http://loinc.org",
              "display": "Ketones [Mass/volume] in Urine by Test strip"
            }
          ],
          "text": "Ketones [Mass/volume] in Urine by Test strip"
        },
        "valueQuantity": {
          "system": "http://unitsofmeasure.org",
          "value": 12.6,
          "unit": "mg/dL",
          "code": "mg/dL"
        },
        "referenceRange": [
          {
            "low": {
              "value": 0,
              "code": "mg/dL",
              "system": "http://unitsofmeasure.org"
            }
          },
          {
            "high": {
              "value": 4,
              "code": "mg/dL",
              "system": "http://unitsofmeasure.org"
            }
          }
        ],
        "interpretation": [
          {
            "coding": [
              {
                "code": "H",
                "system": "http://terminology.hl7.org/CodeSystem/v3-ObservationInterpretation",
                "display": "High"
              }
            ]
          }
        ],
        "text": {
          "status": "generated",
          "div": "<div xmlns=\"http://www.w3.org/1999/xhtml\"><table class=\"hl7__eu__lab__report\"><tr><th>Test</th><th>09-Nov-2015</th><th>Reference&#xA0;Range</th><th>Unit</th></tr><tr><td>Ketones [Mass/volume] in Urine by Test strip</td><td>12.6</td><td>0 - 4</td><td>H</td><td>mg/dL</td></tr></table></div>"
        },
        "status": "final",
        "subject": {
          "reference": "urn:uuid:3d8e7c88-efcd-48c5-b359-3031b2e5da90",
          "display": "Meaghan Neary"
        },
        "effectiveDateTime": "2015-11-09T22:11:04Z",
        "specimen": {
          "reference": "urn:uuid:5dbe0d7e-4e7f-49d2-8b19-166ff7101c06"
        }
      }
    },
    {
      "fullUrl": "urn:uuid:a65ae1a0-1632-4315-b07f-96b2606358ab",
      "resource": {
        "resourceType": "Observation",
        "id": "a65ae1a0-1632-4315-b07f-96b2606358ab",
        "meta": {
          "profile": [
            "http://hl7.eu/fhir/laboratory/StructureDefinition/Observation-resultslab-eu-lab"
          ]
        },
        "performer": [
          {
            "display": "The Central European Lab"
          }
        ],
        "category": [
          {
            "coding": [
              {
                "system": "http://terminology.hl7.org/CodeSystem/observation-category",
                "code": "laboratory"
              }
            ]
          }
        ],
        "code": {
          "coding": [
            {
              "code": "2514-8",
              "system": "http://loinc.org",
              "display": "Ketones [Presence] in Urine by Test strip"
            }
          ],
          "text": "Ketones [Presence] in Urine by Test strip"
        },
        "text": {
          "status": "generated",
          "div": "<div xmlns=\"http://www.w3.org/1999/xhtml\"><table class=\"hl7__eu__lab__report\"><tr><th>Test</th><th>09-Nov-2015</th><th>Reference&#xA0;Range</th><th>Unit</th></tr><tr><td>Ketones [Presence] in Urine by Test strip</td></tr></table></div>"
        },
        "status": "final",
        "subject": {
          "reference": "urn:uuid:3d8e7c88-efcd-48c5-b359-3031b2e5da90",
          "display": "Meaghan Neary"
        },
        "effectiveDateTime": "2015-11-09T22:11:04Z",
        "specimen": {
          "reference": "urn:uuid:5dbe0d7e-4e7f-49d2-8b19-166ff7101c06"
        }
      }
    },
    {
      "fullUrl": "urn:uuid:401e389a-f7f0-4fa7-838b-057b80c7edc8",
      "resource": {
        "resourceType": "Observation",
        "id": "401e389a-f7f0-4fa7-838b-057b80c7edc8",
        "meta": {
          "profile": [
            "http://hl7.eu/fhir/laboratory/StructureDefinition/Observation-resultslab-eu-lab"
          ]
        },
        "performer": [
          {
            "display": "The Central European Lab"
          }
        ],
        "category": [
          {
            "coding": [
              {
                "system": "http://terminology.hl7.org/CodeSystem/observation-category",
                "code": "laboratory"
              }
            ]
          }
        ],
        "code": {
          "coding": [
            {
              "code": "5811-5",
              "system": "http://loinc.org",
              "display": "Specific gravity of Urine by Test strip"
            }
          ],
          "text": "Specific gravity of Urine by Test strip"
        },
        "valueQuantity": {
          "system": "http://unitsofmeasure.org",
          "value": 1,
          "unit": "{nominal}",
          "code": "{nominal}"
        },
        "referenceRange": [
          {
            "low": {
              "value": 1.005,
              "code": "g/mL",
              "system": "http://unitsofmeasure.org"
            }
          },
          {
            "high": {
              "value": 1.03,
              "code": "g/mL",
              "system": "http://unitsofmeasure.org"
            }
          }
        ],
        "interpretation": [
          {
            "coding": [
              {
                "code": "L",
                "system": "http://terminology.hl7.org/CodeSystem/v3-ObservationInterpretation",
                "display": "Low"
              }
            ]
          }
        ],
        "text": {
          "status": "generated",
          "div": "<div xmlns=\"http://www.w3.org/1999/xhtml\"><table class=\"hl7__eu__lab__report\"><tr><th>Test</th><th>09-Nov-2015</th><th>Reference&#xA0;Range</th><th>Unit</th></tr><tr><td>Specific gravity of Urine by Test strip</td><td>1.0</td><td>1.005 - 1.03</td><td>L</td><td>{nominal}</td></tr></table></div>"
        },
        "status": "final",
        "subject": {
          "reference": "urn:uuid:3d8e7c88-efcd-48c5-b359-3031b2e5da90",
          "display": "Meaghan Neary"
        },
        "effectiveDateTime": "2015-11-09T22:11:04Z",
        "specimen": {
          "reference": "urn:uuid:5dbe0d7e-4e7f-49d2-8b19-166ff7101c06"
        }
      }
    },
    {
      "fullUrl": "urn:uuid:e3ed8ccd-93e8-4320-b550-b5ead9d4cabf",
      "resource": {
        "resourceType": "Observation",
        "id": "e3ed8ccd-93e8-4320-b550-b5ead9d4cabf",
        "meta": {
          "profile": [
            "http://hl7.eu/fhir/laboratory/StructureDefinition/Observation-resultslab-eu-lab"
          ]
        },
        "performer": [
          {
            "display": "The Central European Lab"
          }
        ],
        "category": [
          {
            "coding": [
              {
                "system": "http://terminology.hl7.org/CodeSystem/observation-category",
                "code": "laboratory"
              }
            ]
          }
        ],
        "code": {
          "coding": [
            {
              "code": "5803-2",
              "system": "http://loinc.org",
              "display": "pH of Urine by Test strip"
            }
          ],
          "text": "pH of Urine by Test strip"
        },
        "valueQuantity": {
          "system": "http://unitsofmeasure.org",
          "value": 5.2,
          "unit": "pH",
          "code": "pH"
        },
        "referenceRange": [
          {
            "low": {
              "value": 4.6,
              "code": "pH",
              "system": "http://unitsofmeasure.org"
            }
          },
          {
            "high": {
              "value": 7,
              "code": "pH",
              "system": "http://unitsofmeasure.org"
            }
          }
        ],
        "text": {
          "status": "generated",
          "div": "<div xmlns=\"http://www.w3.org/1999/xhtml\"><table class=\"hl7__eu__lab__report\"><tr><th>Test</th><th>09-Nov-2015</th><th>Reference&#xA0;Range</th><th>Unit</th></tr><tr><td>pH of Urine by Test strip</td><td>5.2</td><td>4.6 - 7</td><td></td><td>pH</td></tr></table></div>"
        },
        "status": "final",
        "subject": {
          "reference": "urn:uuid:3d8e7c88-efcd-48c5-b359-3031b2e5da90",
          "display": "Meaghan Neary"
        },
        "effectiveDateTime": "2015-11-09T22:11:04Z",
        "specimen": {
          "reference": "urn:uuid:5dbe0d7e-4e7f-49d2-8b19-166ff7101c06"
        }
      }
    },
    {
      "fullUrl": "urn:uuid:592c87d0-968b-4874-9bf8-156a88e6580d",
      "resource": {
        "resourceType": "Observation",
        "id": "592c87d0-968b-4874-9bf8-156a88e6580d",
        "meta": {
          "profile": [
            "http://hl7.eu/fhir/laboratory/StructureDefinition/Observation-resultslab-eu-lab"
          ]
        },
        "performer": [
          {
            "display": "The Central European Lab"
          }
        ],
        "category": [
          {
            "coding": [
              {
                "system": "http://terminology.hl7.org/CodeSystem/observation-category",
                "code": "laboratory"
              }
            ]
          }
        ],
        "code": {
          "coding": [
            {
              "code": "5804-0",
              "system": "http://loinc.org",
              "display": "Protein [Mass/volume] in Urine by Test strip"
            }
          ],
          "text": "Protein [Mass/volume] in Urine by Test strip"
        },
        "valueQuantity": {
          "system": "http://unitsofmeasure.org",
          "value": 240.1,
          "unit": "mg/dL",
          "code": "mg/dL"
        },
        "referenceRange": [
          {
            "low": {
              "value": 0,
              "code": "mg/dL",
              "system": "http://unitsofmeasure.org"
            }
          },
          {
            "high": {
              "value": 14,
              "code": "mg/dL",
              "system": "http://unitsofmeasure.org"
            }
          }
        ],
        "interpretation": [
          {
            "coding": [
              {
                "code": "H",
                "system": "http://terminology.hl7.org/CodeSystem/v3-ObservationInterpretation",
                "display": "High"
              }
            ]
          }
        ],
        "text": {
          "status": "generated",
          "div": "<div xmlns=\"http://www.w3.org/1999/xhtml\"><table class=\"hl7__eu__lab__report\"><tr><th>Test</th><th>09-Nov-2015</th><th>Reference&#xA0;Range</th><th>Unit</th></tr><tr><td>Protein [Mass/volume] in Urine by Test strip</td><td>240.1</td><td>0 - 14</td><td>H</td><td>mg/dL</td></tr></table></div>"
        },
        "status": "final",
        "subject": {
          "reference": "urn:uuid:3d8e7c88-efcd-48c5-b359-3031b2e5da90",
          "display": "Meaghan Neary"
        },
        "effectiveDateTime": "2015-11-09T22:11:04Z",
        "specimen": {
          "reference": "urn:uuid:5dbe0d7e-4e7f-49d2-8b19-166ff7101c06"
        }
      }
    },
    {
      "fullUrl": "urn:uuid:4a6d880f-b8b3-42eb-804b-c696690a419c",
      "resource": {
        "resourceType": "Observation",
        "id": "4a6d880f-b8b3-42eb-804b-c696690a419c",
        "meta": {
          "profile": [
            "http://hl7.eu/fhir/laboratory/StructureDefinition/Observation-resultslab-eu-lab"
          ]
        },
        "performer": [
          {
            "display": "The Central European Lab"
          }
        ],
        "category": [
          {
            "coding": [
              {
                "system": "http://terminology.hl7.org/CodeSystem/observation-category",
                "code": "laboratory"
              }
            ]
          }
        ],
        "code": {
          "coding": [
            {
              "code": "20454-5",
              "system": "http://loinc.org",
              "display": "Protein [Presence] in Urine by Test strip"
            }
          ],
          "text": "Protein [Presence] in Urine by Test strip"
        },
        "text": {
          "status": "generated",
          "div": "<div xmlns=\"http://www.w3.org/1999/xhtml\"><table class=\"hl7__eu__lab__report\"><tr><th>Test</th><th>09-Nov-2015</th><th>Reference&#xA0;Range</th><th>Unit</th></tr><tr><td>Protein [Presence] in Urine by Test strip</td></tr></table></div>"
        },
        "status": "final",
        "subject": {
          "reference": "urn:uuid:3d8e7c88-efcd-48c5-b359-3031b2e5da90",
          "display": "Meaghan Neary"
        },
        "effectiveDateTime": "2015-11-09T22:11:04Z",
        "specimen": {
          "reference": "urn:uuid:5dbe0d7e-4e7f-49d2-8b19-166ff7101c06"
        }
      }
    },
    {
      "fullUrl": "urn:uuid:0ddaf79e-4f8b-4ca6-a16f-efc55b2f17bb",
      "resource": {
        "resourceType": "Observation",
        "id": "0ddaf79e-4f8b-4ca6-a16f-efc55b2f17bb",
        "meta": {
          "profile": [
            "http://hl7.eu/fhir/laboratory/StructureDefinition/Observation-resultslab-eu-lab"
          ]
        },
        "performer": [
          {
            "display": "The Central European Lab"
          }
        ],
        "category": [
          {
            "coding": [
              {
                "system": "http://terminology.hl7.org/CodeSystem/observation-category",
                "code": "laboratory"
              }
            ]
          }
        ],
        "code": {
          "coding": [
            {
              "code": "5802-4",
              "system": "http://loinc.org",
              "display": "Nitrite [Presence] in Urine by Test strip"
            }
          ],
          "text": "Nitrite [Presence] in Urine by Test strip"
        },
        "text": {
          "status": "generated",
          "div": "<div xmlns=\"http://www.w3.org/1999/xhtml\"><table class=\"hl7__eu__lab__report\"><tr><th>Test</th><th>09-Nov-2015</th><th>Reference&#xA0;Range</th><th>Unit</th></tr><tr><td>Nitrite [Presence] in Urine by Test strip</td></tr></table></div>"
        },
        "status": "final",
        "subject": {
          "reference": "urn:uuid:3d8e7c88-efcd-48c5-b359-3031b2e5da90",
          "display": "Meaghan Neary"
        },
        "effectiveDateTime": "2015-11-09T22:11:04Z",
        "specimen": {
          "reference": "urn:uuid:5dbe0d7e-4e7f-49d2-8b19-166ff7101c06"
        }
      }
    },
    {
      "fullUrl": "urn:uuid:ed497897-ce16-40f6-a63c-843102bcfc68",
      "resource": {
        "resourceType": "Observation",
        "id": "ed497897-ce16-40f6-a63c-843102bcfc68",
        "meta": {
          "profile": [
            "http://hl7.eu/fhir/laboratory/StructureDefinition/Observation-resultslab-eu-lab"
          ]
        },
        "performer": [
          {
            "display": "The Central European Lab"
          }
        ],
        "category": [
          {
            "coding": [
              {
                "system": "http://terminology.hl7.org/CodeSystem/observation-category",
                "code": "laboratory"
              }
            ]
          }
        ],
        "code": {
          "coding": [
            {
              "code": "5794-3",
              "system": "http://loinc.org",
              "display": "Hemoglobin [Presence] in Urine by Test strip"
            }
          ],
          "text": "Hemoglobin [Presence] in Urine by Test strip"
        },
        "text": {
          "status": "generated",
          "div": "<div xmlns=\"http://www.w3.org/1999/xhtml\"><table class=\"hl7__eu__lab__report\"><tr><th>Test</th><th>09-Nov-2015</th><th>Reference&#xA0;Range</th><th>Unit</th></tr><tr><td>Hemoglobin [Presence] in Urine by Test strip</td></tr></table></div>"
        },
        "status": "final",
        "subject": {
          "reference": "urn:uuid:3d8e7c88-efcd-48c5-b359-3031b2e5da90",
          "display": "Meaghan Neary"
        },
        "effectiveDateTime": "2015-11-09T22:11:04Z",
        "specimen": {
          "reference": "urn:uuid:5dbe0d7e-4e7f-49d2-8b19-166ff7101c06"
        }
      }
    },
    {
      "fullUrl": "urn:uuid:a982a971-1426-48fd-8e4b-4f5ab8a6cd3d",
      "resource": {
        "resourceType": "Observation",
        "id": "a982a971-1426-48fd-8e4b-4f5ab8a6cd3d",
        "meta": {
          "profile": [
            "http://hl7.eu/fhir/laboratory/StructureDefinition/Observation-resultslab-eu-lab"
          ]
        },
        "performer": [
          {
            "display": "The Central European Lab"
          }
        ],
        "category": [
          {
            "coding": [
              {
                "system": "http://terminology.hl7.org/CodeSystem/observation-category",
                "code": "laboratory"
              }
            ]
          }
        ],
        "code": {
          "coding": [
            {
              "code": "5799-2",
              "system": "http://loinc.org",
              "display": "Leukocyte esterase [Presence] in Urine by Test strip"
            }
          ],
          "text": "Leukocyte esterase [Presence] in Urine by Test strip"
        },
        "text": {
          "status": "generated",
          "div": "<div xmlns=\"http://www.w3.org/1999/xhtml\"><table class=\"hl7__eu__lab__report\"><tr><th>Test</th><th>09-Nov-2015</th><th>Reference&#xA0;Range</th><th>Unit</th></tr><tr><td>Leukocyte esterase [Presence] in Urine by Test strip</td></tr></table></div>"
        },
        "status": "final",
        "subject": {
          "reference": "urn:uuid:3d8e7c88-efcd-48c5-b359-3031b2e5da90",
          "display": "Meaghan Neary"
        },
        "effectiveDateTime": "2015-11-09T22:11:04Z",
        "specimen": {
          "reference": "urn:uuid:5dbe0d7e-4e7f-49d2-8b19-166ff7101c06"
        }
      }
    },
    {
      "fullUrl": "urn:uuid:ec6e1f09-c8a5-42b4-b434-2f9aea458f90",
      "resource": {
        "resourceType": "Observation",
        "id": "ec6e1f09-c8a5-42b4-b434-2f9aea458f90",
        "meta": {
          "profile": [
            "http://hl7.eu/fhir/laboratory/StructureDefinition/Observation-resultslab-eu-lab"
          ]
        },
        "performer": [
          {
            "display": "The Central European Lab"
          }
        ],
        "category": [
          {
            "coding": [
              {
                "system": "http://terminology.hl7.org/CodeSystem/observation-category",
                "code": "laboratory"
              }
            ]
          }
        ],
        "code": {
          "coding": [
            {
              "code": "4548-4",
              "system": "http://loinc.org",
              "display": "Hemoglobin A1c/Hemoglobin.total in Blood"
            }
          ],
          "text": "Hemoglobin A1c/Hemoglobin.total in Blood"
        },
        "valueQuantity": {
          "system": "http://unitsofmeasure.org",
          "value": 3.3,
          "unit": "%",
          "code": "%"
        },
        "referenceRange": [
          {
            "low": {
              "value": 4,
              "code": "%",
              "system": "http://unitsofmeasure.org"
            }
          },
          {
            "high": {
              "value": 6.4,
              "code": "%",
              "system": "http://unitsofmeasure.org"
            }
          }
        ],
        "interpretation": [
          {
            "coding": [
              {
                "code": "L",
                "system": "http://terminology.hl7.org/CodeSystem/v3-ObservationInterpretation",
                "display": "Low"
              }
            ]
          }
        ],
        "text": {
          "status": "generated",
          "div": "<div xmlns=\"http://www.w3.org/1999/xhtml\"><table class=\"hl7__eu__lab__report\"><tr><th>Test</th><th>09-Nov-2015</th><th>Reference&#xA0;Range</th><th>Unit</th></tr><tr><td>Hemoglobin A1c/Hemoglobin.total in Blood</td><td>3.3</td><td>4 - 6.4</td><td>L</td><td>%</td></tr></table></div>"
        },
        "status": "final",
        "subject": {
          "reference": "urn:uuid:3d8e7c88-efcd-48c5-b359-3031b2e5da90",
          "display": "Meaghan Neary"
        },
        "effectiveDateTime": "2015-11-09T22:11:04Z",
        "specimen": {
          "reference": "urn:uuid:89820050-ad22-44a3-80f9-2acb1d62145d"
        }
      }
    },
    {
      "fullUrl": "urn:uuid:f13d109a-9ee9-4c6c-83fc-6f48d42a88fb",
      "resource": {
        "resourceType": "Observation",
        "id": "f13d109a-9ee9-4c6c-83fc-6f48d42a88fb",
        "meta": {
          "profile": [
            "http://hl7.eu/fhir/laboratory/StructureDefinition/Observation-resultslab-eu-lab"
          ]
        },
        "performer": [
          {
            "display": "The Central European Lab"
          }
        ],
        "category": [
          {
            "coding": [
              {
                "system": "http://terminology.hl7.org/CodeSystem/observation-category",
                "code": "laboratory"
              }
            ]
          }
        ],
        "code": {
          "coding": [
            {
              "code": "2339-0",
              "system": "http://loinc.org",
              "display": "Glucose [Mass/volume] in Blood"
            }
          ],
          "text": "Glucose [Mass/volume] in Blood"
        },
        "valueQuantity": {
          "system": "http://unitsofmeasure.org",
          "value": 71.8,
          "unit": "mg/dL",
          "code": "mg/dL"
        },
        "referenceRange": [
          {
            "low": {
              "value": 70,
              "code": "mg/dL",
              "system": "http://unitsofmeasure.org"
            }
          },
          {
            "high": {
              "value": 100,
              "code": "mg/dL",
              "system": "http://unitsofmeasure.org"
            }
          }
        ],
        "text": {
          "status": "generated",
          "div": "<div xmlns=\"http://www.w3.org/1999/xhtml\"><table class=\"hl7__eu__lab__report\"><tr><th>Test</th><th>09-Nov-2015</th><th>Reference&#xA0;Range</th><th>Unit</th></tr><tr><td>Glucose [Mass/volume] in Blood</td><td>71.8</td><td>70 - 100</td><td></td><td>mg/dL</td></tr></table></div>"
        },
        "status": "final",
        "subject": {
          "reference": "urn:uuid:3d8e7c88-efcd-48c5-b359-3031b2e5da90",
          "display": "Meaghan Neary"
        },
        "effectiveDateTime": "2015-11-09T22:11:04Z",
        "specimen": {
          "reference": "urn:uuid:89820050-ad22-44a3-80f9-2acb1d62145d"
        }
      }
    },
    {
      "fullUrl": "urn:uuid:351b0c84-4dfa-4554-ab12-49507341facf",
      "resource": {
        "resourceType": "Observation",
        "id": "351b0c84-4dfa-4554-ab12-49507341facf",
        "meta": {
          "profile": [
            "http://hl7.eu/fhir/laboratory/StructureDefinition/Observation-resultslab-eu-lab"
          ]
        },
        "performer": [
          {
            "display": "The Central European Lab"
          }
        ],
        "category": [
          {
            "coding": [
              {
                "system": "http://terminology.hl7.org/CodeSystem/observation-category",
                "code": "laboratory"
              }
            ]
          }
        ],
        "code": {
          "coding": [
            {
              "code": "6299-2",
              "system": "http://loinc.org",
              "display": "Urea nitrogen [Mass/volume] in Blood"
            }
          ],
          "text": "Urea nitrogen [Mass/volume] in Blood"
        },
        "valueQuantity": {
          "system": "http://unitsofmeasure.org",
          "value": 15.8,
          "unit": "mg/dL",
          "code": "mg/dL"
        },
        "referenceRange": [
          {
            "low": {
              "value": 7,
              "code": "mg/dL",
              "system": "http://unitsofmeasure.org"
            }
          },
          {
            "high": {
              "value": 43,
              "code": "mg/dL",
              "system": "http://unitsofmeasure.org"
            }
          }
        ],
        "text": {
          "status": "generated",
          "div": "<div xmlns=\"http://www.w3.org/1999/xhtml\"><table class=\"hl7__eu__lab__report\"><tr><th>Test</th><th>09-Nov-2015</th><th>Reference&#xA0;Range</th><th>Unit</th></tr><tr><td>Urea nitrogen [Mass/volume] in Blood</td><td>15.8</td><td>7 - 43</td><td></td><td>mg/dL</td></tr></table></div>"
        },
        "status": "final",
        "subject": {
          "reference": "urn:uuid:3d8e7c88-efcd-48c5-b359-3031b2e5da90",
          "display": "Meaghan Neary"
        },
        "effectiveDateTime": "2015-11-09T22:11:04Z",
        "specimen": {
          "reference": "urn:uuid:89820050-ad22-44a3-80f9-2acb1d62145d"
        }
      }
    },
    {
      "fullUrl": "urn:uuid:031c22d8-d0af-427f-9976-f9d0685c736b",
      "resource": {
        "resourceType": "Observation",
        "id": "031c22d8-d0af-427f-9976-f9d0685c736b",
        "meta": {
          "profile": [
            "http://hl7.eu/fhir/laboratory/StructureDefinition/Observation-resultslab-eu-lab"
          ]
        },
        "performer": [
          {
            "display": "The Central European Lab"
          }
        ],
        "category": [
          {
            "coding": [
              {
                "system": "http://terminology.hl7.org/CodeSystem/observation-category",
                "code": "laboratory"
              }
            ]
          }
        ],
        "code": {
          "coding": [
            {
              "code": "38483-4",
              "system": "http://loinc.org",
              "display": "Creatinine [Mass/volume] in Blood"
            }
          ],
          "text": "Creatinine [Mass/volume] in Blood"
        },
        "valueQuantity": {
          "system": "http://unitsofmeasure.org",
          "value": 1.6,
          "unit": "mg/dL",
          "code": "mg/dL"
        },
        "referenceRange": [
          {
            "low": {
              "value": 0.6,
              "code": "mg/dL",
              "system": "http://unitsofmeasure.org"
            }
          },
          {
            "high": {
              "value": 1.1,
              "code": "mg/dL",
              "system": "http://unitsofmeasure.org"
            }
          }
        ],
        "interpretation": [
          {
            "coding": [
              {
                "code": "H",
                "system": "http://terminology.hl7.org/CodeSystem/v3-ObservationInterpretation",
                "display": "High"
              }
            ]
          }
        ],
        "text": {
          "status": "generated",
          "div": "<div xmlns=\"http://www.w3.org/1999/xhtml\"><table class=\"hl7__eu__lab__report\"><tr><th>Test</th><th>09-Nov-2015</th><th>Reference&#xA0;Range</th><th>Unit</th></tr><tr><td>Creatinine [Mass/volume] in Blood</td><td>1.6</td><td>0.6 - 1.1</td><td>H</td><td>mg/dL</td></tr></table></div>"
        },
        "status": "final",
        "subject": {
          "reference": "urn:uuid:3d8e7c88-efcd-48c5-b359-3031b2e5da90",
          "display": "Meaghan Neary"
        },
        "effectiveDateTime": "2015-11-09T22:11:04Z",
        "specimen": {
          "reference": "urn:uuid:89820050-ad22-44a3-80f9-2acb1d62145d"
        }
      }
    },
    {
      "fullUrl": "urn:uuid:4bd43c4d-ef5c-4748-b3b4-c194baf802f4",
      "resource": {
        "resourceType": "Observation",
        "id": "4bd43c4d-ef5c-4748-b3b4-c194baf802f4",
        "meta": {
          "profile": [
            "http://hl7.eu/fhir/laboratory/StructureDefinition/Observation-resultslab-eu-lab"
          ]
        },
        "performer": [
          {
            "display": "The Central European Lab"
          }
        ],
        "category": [
          {
            "coding": [
              {
                "system": "http://terminology.hl7.org/CodeSystem/observation-category",
                "code": "laboratory"
              }
            ]
          }
        ],
        "code": {
          "coding": [
            {
              "code": "49765-1",
              "system": "http://loinc.org",
              "display": "Calcium [Mass/volume] in Blood"
            }
          ],
          "text": "Calcium [Mass/volume] in Blood"
        },
        "valueQuantity": {
          "system": "http://unitsofmeasure.org",
          "value": 10.1,
          "unit": "mg/dL",
          "code": "mg/dL"
        },
        "referenceRange": [
          {
            "low": {
              "value": 8.5,
              "code": "mg/dL",
              "system": "http://unitsofmeasure.org"
            }
          },
          {
            "high": {
              "value": 10.5,
              "code": "mg/dL",
              "system": "http://unitsofmeasure.org"
            }
          }
        ],
        "text": {
          "status": "generated",
          "div": "<div xmlns=\"http://www.w3.org/1999/xhtml\"><table class=\"hl7__eu__lab__report\"><tr><th>Test</th><th>09-Nov-2015</th><th>Reference&#xA0;Range</th><th>Unit</th></tr><tr><td>Calcium [Mass/volume] in Blood</td><td>10.1</td><td>8.5 - 10.5</td><td></td><td>mg/dL</td></tr></table></div>"
        },
        "status": "final",
        "subject": {
          "reference": "urn:uuid:3d8e7c88-efcd-48c5-b359-3031b2e5da90",
          "display": "Meaghan Neary"
        },
        "effectiveDateTime": "2015-11-09T22:11:04Z",
        "specimen": {
          "reference": "urn:uuid:89820050-ad22-44a3-80f9-2acb1d62145d"
        }
      }
    },
    {
      "fullUrl": "urn:uuid:b7595e42-8f7b-48b0-976c-84052e5eafb9",
      "resource": {
        "resourceType": "Observation",
        "id": "b7595e42-8f7b-48b0-976c-84052e5eafb9",
        "meta": {
          "profile": [
            "http://hl7.eu/fhir/laboratory/StructureDefinition/Observation-resultslab-eu-lab"
          ]
        },
        "performer": [
          {
            "display": "The Central European Lab"
          }
        ],
        "category": [
          {
            "coding": [
              {
                "system": "http://terminology.hl7.org/CodeSystem/observation-category",
                "code": "laboratory"
              }
            ]
          }
        ],
        "code": {
          "coding": [
            {
              "code": "2947-0",
              "system": "http://loinc.org",
              "display": "Sodium [Moles/volume] in Blood"
            }
          ],
          "text": "Sodium [Moles/volume] in Blood"
        },
        "valueQuantity": {
          "system": "http://unitsofmeasure.org",
          "value": 140.4,
          "unit": "mmol/L",
          "code": "mmol/L"
        },
        "referenceRange": [
          {
            "low": {
              "value": 135,
              "code": "mmol/L",
              "system": "http://unitsofmeasure.org"
            }
          },
          {
            "high": {
              "value": 145,
              "code": "mmol/L",
              "system": "http://unitsofmeasure.org"
            }
          }
        ],
        "text": {
          "status": "generated",
          "div": "<div xmlns=\"http://www.w3.org/1999/xhtml\"><table class=\"hl7__eu__lab__report\"><tr><th>Test</th><th>09-Nov-2015</th><th>Reference&#xA0;Range</th><th>Unit</th></tr><tr><td>Sodium [Moles/volume] in Blood</td><td>140.4</td><td>135 - 145</td><td></td><td>mmol/L</td></tr></table></div>"
        },
        "status": "final",
        "subject": {
          "reference": "urn:uuid:3d8e7c88-efcd-48c5-b359-3031b2e5da90",
          "display": "Meaghan Neary"
        },
        "effectiveDateTime": "2015-11-09T22:11:04Z",
        "specimen": {
          "reference": "urn:uuid:89820050-ad22-44a3-80f9-2acb1d62145d"
        }
      }
    },
    {
      "fullUrl": "urn:uuid:7e735e5f-25dc-4037-b52a-42a8bdea8e46",
      "resource": {
        "resourceType": "Observation",
        "id": "7e735e5f-25dc-4037-b52a-42a8bdea8e46",
        "meta": {
          "profile": [
            "http://hl7.eu/fhir/laboratory/StructureDefinition/Observation-resultslab-eu-lab"
          ]
        },
        "performer": [
          {
            "display": "The Central European Lab"
          }
        ],
        "category": [
          {
            "coding": [
              {
                "system": "http://terminology.hl7.org/CodeSystem/observation-category",
                "code": "laboratory"
              }
            ]
          }
        ],
        "code": {
          "coding": [
            {
              "code": "6298-4",
              "system": "http://loinc.org",
              "display": "Potassium [Moles/volume] in Blood"
            }
          ],
          "text": "Potassium [Moles/volume] in Blood"
        },
        "valueQuantity": {
          "system": "http://unitsofmeasure.org",
          "value": 4.4,
          "unit": "mmol/L",
          "code": "mmol/L"
        },
        "referenceRange": [
          {
            "low": {
              "value": 3.5,
              "code": "mmol/L",
              "system": "http://unitsofmeasure.org"
            }
          },
          {
            "high": {
              "value": 5.1,
              "code": "mmol/L",
              "system": "http://unitsofmeasure.org"
            }
          }
        ],
        "text": {
          "status": "generated",
          "div": "<div xmlns=\"http://www.w3.org/1999/xhtml\"><table class=\"hl7__eu__lab__report\"><tr><th>Test</th><th>09-Nov-2015</th><th>Reference&#xA0;Range</th><th>Unit</th></tr><tr><td>Potassium [Moles/volume] in Blood</td><td>4.4</td><td>3.5 - 5.1</td><td></td><td>mmol/L</td></tr></table></div>"
        },
        "status": "final",
        "subject": {
          "reference": "urn:uuid:3d8e7c88-efcd-48c5-b359-3031b2e5da90",
          "display": "Meaghan Neary"
        },
        "effectiveDateTime": "2015-11-09T22:11:04Z",
        "specimen": {
          "reference": "urn:uuid:89820050-ad22-44a3-80f9-2acb1d62145d"
        }
      }
    },
    {
      "fullUrl": "urn:uuid:99844941-4be3-4e26-88c1-e63a3a81d1fc",
      "resource": {
        "resourceType": "Observation",
        "id": "99844941-4be3-4e26-88c1-e63a3a81d1fc",
        "meta": {
          "profile": [
            "http://hl7.eu/fhir/laboratory/StructureDefinition/Observation-resultslab-eu-lab"
          ]
        },
        "performer": [
          {
            "display": "The Central European Lab"
          }
        ],
        "category": [
          {
            "coding": [
              {
                "system": "http://terminology.hl7.org/CodeSystem/observation-category",
                "code": "laboratory"
              }
            ]
          }
        ],
        "code": {
          "coding": [
            {
              "code": "2069-3",
              "system": "http://loinc.org",
              "display": "Chloride [Moles/volume] in Blood"
            }
          ],
          "text": "Chloride [Moles/volume] in Blood"
        },
        "valueQuantity": {
          "system": "http://unitsofmeasure.org",
          "value": 101.9,
          "unit": "mmol/L",
          "code": "mmol/L"
        },
        "referenceRange": [
          {
            "low": {
              "value": 98,
              "code": "mmol/L",
              "system": "http://unitsofmeasure.org"
            }
          },
          {
            "high": {
              "value": 108,
              "code": "mmol/L",
              "system": "http://unitsofmeasure.org"
            }
          }
        ],
        "text": {
          "status": "generated",
          "div": "<div xmlns=\"http://www.w3.org/1999/xhtml\"><table class=\"hl7__eu__lab__report\"><tr><th>Test</th><th>09-Nov-2015</th><th>Reference&#xA0;Range</th><th>Unit</th></tr><tr><td>Chloride [Moles/volume] in Blood</td><td>101.9</td><td>98 - 108</td><td></td><td>mmol/L</td></tr></table></div>"
        },
        "status": "final",
        "subject": {
          "reference": "urn:uuid:3d8e7c88-efcd-48c5-b359-3031b2e5da90",
          "display": "Meaghan Neary"
        },
        "effectiveDateTime": "2015-11-09T22:11:04Z",
        "specimen": {
          "reference": "urn:uuid:89820050-ad22-44a3-80f9-2acb1d62145d"
        }
      }
    },
    {
      "fullUrl": "urn:uuid:ba97319a-70d2-4da6-be12-65d2606dbf0d",
      "resource": {
        "resourceType": "Observation",
        "id": "ba97319a-70d2-4da6-be12-65d2606dbf0d",
        "meta": {
          "profile": [
            "http://hl7.eu/fhir/laboratory/StructureDefinition/Observation-resultslab-eu-lab"
          ]
        },
        "performer": [
          {
            "display": "The Central European Lab"
          }
        ],
        "category": [
          {
            "coding": [
              {
                "system": "http://terminology.hl7.org/CodeSystem/observation-category",
                "code": "laboratory"
              }
            ]
          }
        ],
        "code": {
          "coding": [
            {
              "code": "20565-8",
              "system": "http://loinc.org",
              "display": "Carbon dioxide, total [Moles/volume] in Blood"
            }
          ],
          "text": "Carbon dioxide, total [Moles/volume] in Blood"
        },
        "valueQuantity": {
          "system": "http://unitsofmeasure.org",
          "value": 27.4,
          "unit": "mmol/L",
          "code": "mmol/L"
        },
        "referenceRange": [
          {
            "low": {
              "value": 22,
              "code": "mmol/L",
              "system": "http://unitsofmeasure.org"
            }
          },
          {
            "high": {
              "value": 29,
              "code": "mmol/L",
              "system": "http://unitsofmeasure.org"
            }
          }
        ],
        "text": {
          "status": "generated",
          "div": "<div xmlns=\"http://www.w3.org/1999/xhtml\"><table class=\"hl7__eu__lab__report\"><tr><th>Test</th><th>09-Nov-2015</th><th>Reference&#xA0;Range</th><th>Unit</th></tr><tr><td>Carbon dioxide, total [Moles/volume] in Blood</td><td>27.4</td><td>22 - 29</td><td></td><td>mmol/L</td></tr></table></div>"
        },
        "status": "final",
        "subject": {
          "reference": "urn:uuid:3d8e7c88-efcd-48c5-b359-3031b2e5da90",
          "display": "Meaghan Neary"
        },
        "effectiveDateTime": "2015-11-09T22:11:04Z",
        "specimen": {
          "reference": "urn:uuid:89820050-ad22-44a3-80f9-2acb1d62145d"
        }
      }
    },
    {
      "fullUrl": "urn:uuid:4d0e5562-5c19-4f0b-bba3-e13380ad0aa4",
      "resource": {
        "resourceType": "Device",
        "id": "4d0e5562-5c19-4f0b-bba3-e13380ad0aa4",
        "deviceName": [
          {
            "name": "SYNDERAI Synthetic Generator",
            "type": "manufacturer-name"
          }
        ],
        "version": [
          {
            "value": "5.0"
          }
        ],
        "text": {
          "status": "generated",
          "div": "<div xmlns=\"http://www.w3.org/1999/xhtml\">SYNDERAI Synthetic Generator v5.0</div>"
        },
        "status": "active\"",
        "distinctIdentifier": "synderai-generator-50",
        "manufacturer": "SYNDERAI Project"
      }
    },
    {
      "fullUrl": "urn:uuid:ded3b3b7-708c-4c51-83b0-0f95835fad76",
      "resource": {
        "resourceType": "Provenance",
        "id": "ded3b3b7-708c-4c51-83b0-0f95835fad76",
        "target": [
          {
            "reference": "Patient/3d8e7c88-efcd-48c5-b359-3031b2e5da90"
          },
          {
            "reference": "Bundle/43a8e14a-8096-436f-8179-447c52c32b6f"
          },
          {
            "reference": "Composition/c045b88b-457d-47ef-b85e-1352e721e721"
          },
          {
            "reference": "PractitionerRole/d6f1873f-3c21-4de0-9c74-4a53d513dbae"
          },
          {
            "reference": "Practitioner/0df703bf-8097-4162-801a-d4895759332c"
          },
          {
            "reference": "PractitionerRole/d27a5ad0-dca2-49e4-a4db-367ab35a96da"
          },
          {
            "reference": "Organization/1e9a82e2-6325-4651-858a-9abf01993374"
          }
        ],
        "activity": {
          "text": "Synthetic Example Data Generation"
        },
        "policy": [
          "https://synderai.net/synderai-synthetic-data-policy"
        ],
        "agent": [
          {
            "type": {
              "text": "author"
            },
            "who": {
              "reference": "Device/4d0e5562-5c19-4f0b-bba3-e13380ad0aa4"
            }
          }
        ],
        "reason": [
          {
            "text": "Interoperability Testing and Training (non-clinical use)"
          }
        ],
        "text": {
          "status": "generated",
          "div": "<div xmlns=\"http://www.w3.org/1999/xhtml\">Provenance for SYNDERAI Synthetic Example Data Resource</div>"
        },
        "recorded": "2015-11-09T23:11:04Z"
      }
    },
    {
      "fullUrl": "urn:uuid:d6f1873f-3c21-4de0-9c74-4a53d513dbae",
      "resource": {
        "resourceType": "PractitionerRole",
        "id": "d6f1873f-3c21-4de0-9c74-4a53d513dbae",
        "meta": {
          "profile": [
            "http://hl7.eu/fhir/base/StructureDefinition/practitionerRole-eu"
          ]
        },
        "text": {
          "status": "generated",
          "div": "<div xmlns=\"http://www.w3.org/1999/xhtml\">Laboratory Role Id: d6f1873f-3c21-4de0-9c74-4a53d513dbae</div>"
        },
        "practitioner": {
          "reference": "urn:uuid:0df703bf-8097-4162-801a-d4895759332c"
        }
      }
    },
    {
      "fullUrl": "urn:uuid:0df703bf-8097-4162-801a-d4895759332c",
      "resource": {
        "resourceType": "Practitioner",
        "id": "0df703bf-8097-4162-801a-d4895759332c",
        "meta": {
          "profile": [
            "http://hl7.eu/fhir/base/StructureDefinition/practitioner-eu"
          ]
        },
        "identifier": [
          {
            "assigner": {
              "display": "HL7 Europe"
            },
            "system": "urn:oid:2.16.840.1.113883.2.51.999",
            "value": "d2d9a1b8-c3b9-45ee-a98b-4423eb140e2b"
          }
        ],
        "name": [
          {
            "prefix": [
              "dr"
            ],
            "given": [
              "Ex"
            ],
            "family": "Ample"
          }
        ],
        "address": [
          {
            "line": [
              "Laboratoire Central Européenne",
              "Boulevard du Jardin Botanique 32"
            ],
            "postalCode": "1000",
            "city": "Brussels",
            "country": "Belgium"
          }
        ],
        "text": {
          "status": "generated",
          "div": "<div xmlns=\"http://www.w3.org/1999/xhtml\">Laboratory: Laboratoire Central Européenne, 1000 Brussels, Belgium</div>"
        }
      }
    }
  ],
  "type": "document",
  "timestamp": "2015-11-09T23:11:04Z"
}
