{
  "resourceType": "Bundle",
  "id": "f3cef485-2afc-4a76-9c89-144c4d5b440c",
  "meta": {
    "profile": [
      "http://hl7.eu/fhir/laboratory/StructureDefinition/Bundle-eu-lab"
    ]
  },
  "identifier": {
    "assigner": {
      "display": "HL7 Europe"
    },
    "system": "urn:oid:2.16.840.1.113883.2.51.999",
    "value": "a6ccec95-9985-47f8-870a-781e2ef95d2a"
  },
  "entry": [
    {
      "fullUrl": "urn:uuid:36009877-db5f-4c31-842d-9e3ef65144ab",
      "resource": {
        "resourceType": "Composition",
        "id": "36009877-db5f-4c31-842d-9e3ef65144ab",
        "meta": {
          "profile": [
            "http://hl7.eu/fhir/laboratory/StructureDefinition/Composition-eu-lab"
          ]
        },
        "identifier": {
          "assigner": {
            "display": "HL7 Europe"
          },
          "system": "urn:oid:2.16.840.1.113883.2.51.999",
          "value": "6aa15519-6118-4456-a77e-08502f5c2f27"
        },
        "author": [
          {
            "reference": "urn:uuid:be956427-cb6d-4925-bad6-f80d8c3a9aa0"
          }
        ],
        "category": [
          {
            "coding": [
              {
                "code": "26436-6",
                "system": "http://loinc.org",
                "display": "Laboratory studies (set)"
              }
            ]
          }
        ],
        "type": {
          "coding": [
            {
              "code": "11502-2",
              "system": "http://loinc.org",
              "display": "Laboratory report"
            }
          ],
          "text": "Laboratory Report"
        },
        "section": [
          {
            "code": {
              "coding": [
                {
                  "code": "26436-6",
                  "system": "http://loinc.org",
                  "display": "Laboratory studies (set)"
                }
              ],
              "text": "Laboratory studies"
            },
            "section": [
              {
                "code": {
                  "coding": [
                    {
                      "code": "$18723-7",
                      "system": "http://loinc.org",
                      "display": "Hematology studies (set)"
                    }
                  ],
                  "text": "Hematology"
                },
                "entry": [
                  {
                    "reference": "urn:uuid:4b6269a0-b924-4ac6-a472-dac0ab99aef9"
                  },
                  {
                    "reference": "urn:uuid:a31f7d73-6544-4f2f-b14f-7746546455a6"
                  },
                  {
                    "reference": "urn:uuid:d88a4ba5-b88c-4ab7-856a-f86fa42fd0a6"
                  },
                  {
                    "reference": "urn:uuid:899c698a-ece5-4738-81be-0816dabd58b1"
                  },
                  {
                    "reference": "urn:uuid:94080a1d-884b-46d3-ba4e-25f15172b0ab"
                  },
                  {
                    "reference": "urn:uuid:8519b0bf-b8c4-49cc-8a86-c882283d5f1a"
                  },
                  {
                    "reference": "urn:uuid:c305b346-3613-4af1-a22c-6539782264aa"
                  },
                  {
                    "reference": "urn:uuid:ef4c40d7-eae8-4796-a5c0-ed826c9f5377"
                  },
                  {
                    "reference": "urn:uuid:e696bf2c-d215-4b58-b411-e46ead28eece"
                  },
                  {
                    "reference": "urn:uuid:58343bf7-ba14-46f6-9142-3a0465e52233"
                  },
                  {
                    "reference": "urn:uuid:a05aee57-4d0f-411e-acb1-63ba786e0d0c"
                  }
                ],
                "text": {
                  "status": "generated",
                  "div": "<div xmlns=\"http://www.w3.org/1999/xhtml\"><h3>Hematology</h3><table class=\"hl7__eu__lab__report\"><thead><tr><th>Test</th><th>04-OCT-2015</th><th>Reference&#xA0;Range</th><th>Unit</th></tr></thead><tbody><tr><td>Leukocytes [#/volume] in Blood by Automated count</td><td>4.3</td><td>3.4 - 10.6</td><td>10*3/uL</td></tr><tr><td>Erythrocytes [#/volume] in Blood by Automated count</td><td>5.1</td><td>4.7 - 5.2</td><td>10*6/uL</td></tr><tr><td>Hemoglobin [Mass/volume] in Blood</td><td>12.8</td><td>11.5 - 16</td><td>g/dL</td></tr><tr><td>Hematocrit [Volume Fraction] of Blood by Automated count</td><td>39.3</td><td>38 - 56</td><td>%</td></tr><tr><td>MCV [Entitic volume] by Automated count</td><td>83.3</td><td>78 - 98</td><td>fL</td></tr><tr><td>MCH [Entitic mass] by Automated count</td><td>32.1</td><td>27 - 34</td><td>pg</td></tr><tr><td>MCHC [Mass/volume] by Automated count</td><td>33.4</td><td>31 - 36</td><td>g/dL</td></tr><tr><td>Erythrocyte distribution width [Entitic volume] by Automated count</td><td>43.1</td><td>36 - 55</td><td>fL</td></tr><tr><td>Platelets [#/volume] in Blood by Automated count</td><td>273.0</td><td>150 - 450</td><td>10*3/uL</td></tr><tr><td>Platelet distribution width [Entitic volume] in Blood by Automated count</td><td><strong>319.5 H</strong></td><td>11.6 - 17.4</td><td>fL</td></tr><tr><td>Platelet mean volume [Entitic volume] in Blood by Automated count</td><td>11.8</td><td>7.2 - 13.5</td><td>fL</td></tr></tbody></table></div>"
                },
                "title": "Hematology"
              },
              {
                "code": {
                  "coding": [
                    {
                      "code": "$18719-5",
                      "system": "http://loinc.org",
                      "display": "Chemistry studies (set)"
                    }
                  ],
                  "text": "Chemistry"
                },
                "entry": [
                  {
                    "reference": "urn:uuid:0973b4c9-9197-4e4d-84dc-def811c2c55b"
                  },
                  {
                    "reference": "urn:uuid:8f38e770-42cb-4281-bea2-c00360506cdd"
                  },
                  {
                    "reference": "urn:uuid:b7fdf169-1296-4532-a692-519ebbf5bb52"
                  },
                  {
                    "reference": "urn:uuid:fdf2d634-f24c-4f0c-ac07-e26b5bf2df11"
                  },
                  {
                    "reference": "urn:uuid:cc4ab837-ef90-4f1b-8bf6-49e090fd9d07"
                  },
                  {
                    "reference": "urn:uuid:5fcb0c8a-78e5-4a25-b61f-c7d4095749ca"
                  },
                  {
                    "reference": "urn:uuid:d4bc8609-8b85-464d-a5a5-d137ed7b4610"
                  },
                  {
                    "reference": "urn:uuid:7c545b45-6d5f-4ce3-ab7d-3e2be80b4dc6"
                  },
                  {
                    "reference": "urn:uuid:bc977484-e094-4cd9-a0cd-1ab616f1a11c"
                  },
                  {
                    "reference": "urn:uuid:ea9d0ad6-4c7b-4340-ae85-2a69c3990d7b"
                  },
                  {
                    "reference": "urn:uuid:7e75b604-a362-4d29-9c4d-8a6bdde893a2"
                  },
                  {
                    "reference": "urn:uuid:817da21d-9436-4314-926f-15d49428f19e"
                  },
                  {
                    "reference": "urn:uuid:0e962261-069b-4c68-a61e-016e710d6535"
                  }
                ],
                "text": {
                  "status": "generated",
                  "div": "<div xmlns=\"http://www.w3.org/1999/xhtml\"><h3>Chemistry</h3><table class=\"hl7__eu__lab__report\"><thead><tr><th>Test</th><th>04-OCT-2015</th><th>Reference&#xA0;Range</th><th>Unit</th></tr></thead><tbody><tr><td>Hemoglobin A1c/Hemoglobin.total in Blood</td><td>5.9</td><td>4.5 - 6.4</td><td>%</td></tr><tr><td>Glucose [Mass/volume] in Blood</td><td><strong>64.6 L</strong></td><td>70 - 140</td><td>mg/dL</td></tr><tr><td>Urea nitrogen [Mass/volume] in Blood</td><td>10.7</td><td>7 - 25</td><td>mg/dL</td></tr><tr><td>Creatinine [Mass/volume] in Blood</td><td>0.6</td><td>0.6 - 1.1</td><td>mg/dL</td></tr><tr><td>Calcium [Mass/volume] in Blood</td><td>9.5</td><td>8.6 - 10.4</td><td>mg/dL</td></tr><tr><td>Sodium [Moles/volume] in Blood</td><td>143.7</td><td>135 - 145</td><td>mmol/L</td></tr><tr><td>Potassium [Moles/volume] in Blood</td><td>4.2</td><td>3.5 - 5.3</td><td>mmol/L</td></tr><tr><td>Chloride [Moles/volume] in Blood</td><td>107.2</td><td>98 - 108</td><td>mmol/L</td></tr><tr><td>Carbon dioxide, total [Moles/volume] in Blood</td><td>22.5</td><td>22 - 32</td><td>mmol/L</td></tr><tr><td>Cholesterol [Mass/volume] in Serum or Plasma</td><td>182.0</td><td>125 - 200</td><td>mg/dL</td></tr><tr><td>Triglyceride [Mass/volume] in Serum or Plasma</td><td>120.5</td><td>10 - 175</td><td>mg/dL</td></tr><tr><td>Cholesterol in LDL [Mass/volume] in Serum or Plasma by Direct assay</td><td>97.3</td><td>0 - 130</td><td>mg/dL</td></tr><tr><td>Cholesterol in HDL [Mass/volume] in Serum or Plasma</td><td>60.6</td><td>50 - 100</td><td>mg/dL</td></tr></tbody></table></div>"
                },
                "title": "Chemistry"
              }
            ],
            "title": "Laboratory Report"
          },
          {
            "text": {
              "status": "generated",
              "div": "<div xmlns=\"http://www.w3.org/1999/xhtml\"><h3>Annotation</h3><table class=\"hl7__eu__lab__report\"><tr><th>Conclusion and Recommendations based on this report and previous findings known to us</th></tr><tr><td>Laboratory results are largely within normal limits. Notable findings include mild hypoglycemia (glucose 64.6 mg/dL) and elevated platelet distribution width, which may suggest increased platelet size variability but is of unclear clinical significance in isolation. No evidence of renal, hepatic, or significant hematologic dysfunction. Lipid and glycemic control appear adequate. Correlate hypoglycemia clinically.</td></tr></table></div>"
            },
            "code": {
              "coding": [
                {
                  "system": "http://loinc.org",
                  "code": "48767-8",
                  "display": "Annotation comment"
                }
              ]
            },
            "title": "Annotation comment"
          }
        ],
        "status": "final",
        "subject": {
          "reference": "urn:uuid:8234311d-84c9-4ddb-8866-cc7597a62ec7",
          "display": "Helene Andresen"
        },
        "date": "2015-10-04T00:53:36Z",
        "title": "Laboratory Report",
        "confidentiality": "N"
      }
    },
    {
      "fullUrl": "urn:uuid:acdd48e0-9c0a-4026-b784-f013e1b96800",
      "resource": {
        "resourceType": "DiagnosticReport",
        "id": "acdd48e0-9c0a-4026-b784-f013e1b96800",
        "meta": {
          "profile": [
            "http://hl7.eu/fhir/laboratory/StructureDefinition/DiagnosticReport-eu-lab"
          ]
        },
        "identifier": [
          {
            "assigner": {
              "display": "HL7 Europe"
            },
            "system": "urn:oid:2.16.840.1.113883.2.51.999",
            "value": "d6038890-0ac8-433d-9089-d74da3d03763"
          }
        ],
        "extension": [
          {
            "url": "http://hl7.org/fhir/5.0/StructureDefinition/extension-DiagnosticReport.composition",
            "valueReference": {
              "reference": "urn:uuid:6aa15519-6118-4456-a77e-08502f5c2f27"
            }
          }
        ],
        "category": [
          {
            "coding": [
              {
                "code": "26436-6",
                "system": "http://loinc.org",
                "display": "Laboratory studies (set)"
              }
            ]
          }
        ],
        "specimen": [
          {
            "reference": "urn:uuid:9fc832f9-2516-42b4-b9a6-b76d250ed110"
          },
          {
            "reference": "urn:uuid:894546cf-cf2e-4364-a5f4-b0fce1672647"
          },
          {
            "reference": "urn:uuid:9fc832f9-2516-42b4-b9a6-b76d250ed110"
          }
        ],
        "result": [
          {
            "reference": "urn:uuid:0973b4c9-9197-4e4d-84dc-def811c2c55b"
          },
          {
            "reference": "urn:uuid:8f38e770-42cb-4281-bea2-c00360506cdd"
          },
          {
            "reference": "urn:uuid:b7fdf169-1296-4532-a692-519ebbf5bb52"
          },
          {
            "reference": "urn:uuid:fdf2d634-f24c-4f0c-ac07-e26b5bf2df11"
          },
          {
            "reference": "urn:uuid:cc4ab837-ef90-4f1b-8bf6-49e090fd9d07"
          },
          {
            "reference": "urn:uuid:5fcb0c8a-78e5-4a25-b61f-c7d4095749ca"
          },
          {
            "reference": "urn:uuid:d4bc8609-8b85-464d-a5a5-d137ed7b4610"
          },
          {
            "reference": "urn:uuid:7c545b45-6d5f-4ce3-ab7d-3e2be80b4dc6"
          },
          {
            "reference": "urn:uuid:bc977484-e094-4cd9-a0cd-1ab616f1a11c"
          },
          {
            "reference": "urn:uuid:ea9d0ad6-4c7b-4340-ae85-2a69c3990d7b"
          },
          {
            "reference": "urn:uuid:7e75b604-a362-4d29-9c4d-8a6bdde893a2"
          },
          {
            "reference": "urn:uuid:817da21d-9436-4314-926f-15d49428f19e"
          },
          {
            "reference": "urn:uuid:0e962261-069b-4c68-a61e-016e710d6535"
          },
          {
            "reference": "urn:uuid:4b6269a0-b924-4ac6-a472-dac0ab99aef9"
          },
          {
            "reference": "urn:uuid:a31f7d73-6544-4f2f-b14f-7746546455a6"
          },
          {
            "reference": "urn:uuid:d88a4ba5-b88c-4ab7-856a-f86fa42fd0a6"
          },
          {
            "reference": "urn:uuid:899c698a-ece5-4738-81be-0816dabd58b1"
          },
          {
            "reference": "urn:uuid:94080a1d-884b-46d3-ba4e-25f15172b0ab"
          },
          {
            "reference": "urn:uuid:8519b0bf-b8c4-49cc-8a86-c882283d5f1a"
          },
          {
            "reference": "urn:uuid:c305b346-3613-4af1-a22c-6539782264aa"
          },
          {
            "reference": "urn:uuid:ef4c40d7-eae8-4796-a5c0-ed826c9f5377"
          },
          {
            "reference": "urn:uuid:e696bf2c-d215-4b58-b411-e46ead28eece"
          },
          {
            "reference": "urn:uuid:58343bf7-ba14-46f6-9142-3a0465e52233"
          },
          {
            "reference": "urn:uuid:a05aee57-4d0f-411e-acb1-63ba786e0d0c"
          }
        ],
        "status": "registered",
        "code": {
          "coding": [
            {
              "code": "11502-2",
              "system": "http://loinc.org",
              "display": "Laboratory report"
            }
          ]
        },
        "subject": {
          "reference": "urn:uuid:8234311d-84c9-4ddb-8866-cc7597a62ec7",
          "display": "Helene Andresen"
        }
      }
    },
    {
      "fullUrl": "urn:uuid:8234311d-84c9-4ddb-8866-cc7597a62ec7",
      "resource": {
        "resourceType": "Patient",
        "id": "8234311d-84c9-4ddb-8866-cc7597a62ec7",
        "meta": {
          "security": [
            {
              "system": "http://terminology.hl7.org/CodeSystem/v3-ActReason",
              "code": "HTEST"
            },
            {
              "system": "http://terminology.hl7.org/CodeSystem/v3-ActReason",
              "code": "TRAIN"
            }
          ],
          "tag": [
            {
              "system": "https://synderai.net/fhir/CodeSystem/tags",
              "code": "synthetic",
              "display": "SYNDERAI Synthetic data"
            }
          ],
          "profile": [
            "http://hl7.eu/fhir/base/StructureDefinition/patient-eu-core"
          ]
        },
        "identifier": [
          {
            "type": {
              "coding": [
                {
                  "code": "PT",
                  "system": "http://terminology.hl7.org/CodeSystem/v2-0203"
                }
              ]
            },
            "system": "http://ec.europa.eu/identifier/eci",
            "value": "3450-170343-2"
          },
          {
            "type": {
              "coding": [
                {
                  "code": "MR",
                  "system": "http://terminology.hl7.org/CodeSystem/v2-0203"
                }
              ]
            },
            "system": "http://local.setting.eu/identifier",
            "value": "72e91c9c-0b01-42b0-a6a0-6dcc70aeec49"
          }
        ],
        "name": [
          {
            "family": "Andresen"
          },
          {
            "given": [
              "Helene"
            ]
          },
          {
            "text": "Helene Andresen"
          }
        ],
        "address": [
          {
            "line": [
              "Kristiansenberget 2"
            ],
            "use": "home",
            "type": "physical",
            "postalCode": "0172",
            "city": "Sørensen",
            "country": "Norway"
          }
        ],
        "telecom": [
          {
            "system": "phone",
            "value": "53 98 86 24"
          }
        ],
        "extension": [
          {
            "url": "http://hl7.org/fhir/StructureDefinition/patient-nationality",
            "valueCodeableConcept": {
              "coding": [
                {
                  "code": "NO",
                  "system": "http://hl7.org/fhir/ValueSet/country"
                }
              ]
            }
          }
        ],
        "text": {
          "status": "generated",
          "div": "<div xmlns=\"http://www.w3.org/1999/xhtml\"><table class=\"hl7__ips\"><tr><td>Helene Andresen</td><td>female</td><td>17-Oct-1939</td></tr></table></div>"
        },
        "gender": "female",
        "birthDate": "1939-10-17"
      }
    },
    {
      "fullUrl": "urn:uuid:5635edfb-677a-4284-8ea4-a39291899780",
      "resource": {
        "resourceType": "ServiceRequest",
        "id": "5635edfb-677a-4284-8ea4-a39291899780",
        "meta": {
          "profile": [
            "http://hl7.eu/fhir/laboratory/StructureDefinition/ServiceRequest-eu-lab"
          ]
        },
        "identifier": [
          {
            "system": "http://example.org",
            "value": "e0f1cbc6-5dc6-4778-9342-9bedc6fb2621"
          }
        ],
        "specimen": [
          {
            "reference": "urn:uuid:9fc832f9-2516-42b4-b9a6-b76d250ed110"
          },
          {
            "reference": "urn:uuid:894546cf-cf2e-4364-a5f4-b0fce1672647"
          }
        ],
        "reasonCode": [
          {
            "coding": [
              {
                "code": "64859006",
                "system": "http://snomed.info/sct",
                "display": "Osteoporosis"
              }
            ]
          },
          {
            "coding": [
              {
                "code": "40055000",
                "system": "http://snomed.info/sct",
                "display": "Chronic sinusitis"
              }
            ]
          },
          {
            "coding": [
              {
                "code": "55822004",
                "system": "http://snomed.info/sct",
                "display": "Hyperlipidemia"
              }
            ]
          },
          {
            "coding": [
              {
                "code": "271737000",
                "system": "http://snomed.info/sct",
                "display": "Anemia"
              }
            ]
          },
          {
            "coding": [
              {
                "code": "15777000",
                "system": "http://snomed.info/sct",
                "display": "Prediabetes"
              }
            ]
          },
          {
            "coding": [
              {
                "code": "128613002",
                "system": "http://snomed.info/sct",
                "display": "Seizure disorder"
              }
            ]
          }
        ],
        "status": "active",
        "intent": "order",
        "code": {
          "coding": [
            {
              "code": "108252007",
              "system": "http://snomed.info/sct",
              "display": "Laboratory procedure"
            }
          ]
        },
        "subject": {
          "reference": "urn:uuid:8234311d-84c9-4ddb-8866-cc7597a62ec7",
          "display": "Helene Andresen"
        },
        "requester": {
          "reference": "urn:uuid:2fcecc5b-2b59-408a-9bd0-56e93ef4a706"
        }
      }
    },
    {
      "fullUrl": "urn:uuid:2fcecc5b-2b59-408a-9bd0-56e93ef4a706",
      "resource": {
        "resourceType": "PractitionerRole",
        "id": "2fcecc5b-2b59-408a-9bd0-56e93ef4a706",
        "meta": {
          "profile": [
            "http://hl7.eu/fhir/base/StructureDefinition/practitionerRole-eu"
          ]
        },
        "text": {
          "status": "generated",
          "div": "<div xmlns=\"http://www.w3.org/1999/xhtml\">Provider Role Id: 2fcecc5b-2b59-408a-9bd0-56e93ef4a706</div>"
        },
        "organization": {
          "reference": "urn:uuid:6c6373dd-ef34-4063-a19e-89908cf009e0"
        }
      }
    },
    {
      "fullUrl": "urn:uuid:6c6373dd-ef34-4063-a19e-89908cf009e0",
      "resource": {
        "resourceType": "Organization",
        "id": "6c6373dd-ef34-4063-a19e-89908cf009e0",
        "meta": {
          "profile": [
            "http://hl7.eu/fhir/base/StructureDefinition/organization-eu"
          ]
        },
        "identifier": [
          {
            "assigner": {
              "display": "HL7 Europe"
            },
            "system": "urn:oid:2.16.840.1.113883.2.51.999",
            "value": "10a68c45-82fc-4d67-926f-eeac35afb233"
          }
        ],
        "address": [
          {
            "city": "Oslo",
            "postalCode": "0155",
            "country": "Norway"
          }
        ],
        "text": {
          "status": "generated",
          "div": "<div xmlns=\"http://www.w3.org/1999/xhtml\">Provider Organization: Oslo universitetssykehus (Ullevål)</div>"
        },
        "name": "Oslo universitetssykehus (Ullevål)"
      }
    },
    {
      "fullUrl": "urn:uuid:9fc832f9-2516-42b4-b9a6-b76d250ed110",
      "resource": {
        "resourceType": "Specimen",
        "id": "9fc832f9-2516-42b4-b9a6-b76d250ed110",
        "meta": {
          "profile": [
            "http://hl7.eu/fhir/laboratory/StructureDefinition/Specimen-eu-lab"
          ]
        },
        "collection": {
          "collectedDateTime": "2015-10-03"
        },
        "text": {
          "status": "generated",
          "div": "<div xmlns=\"http://www.w3.org/1999/xhtml\"><table class=\"hl7__eu__lab__report\"><tr><th>Specimen</th><th>Collection Date</th></tr><tr><td>Whole blood specimen (specimen)</td><td><span class=\"nb\">03-Oct-2015</span></td></tr></table></div>"
        },
        "type": {
          "coding": [
            {
              "code": "258580003",
              "system": "http://snomed.info/sct",
              "display": "Whole blood specimen (specimen)"
            }
          ]
        }
      }
    },
    {
      "fullUrl": "urn:uuid:894546cf-cf2e-4364-a5f4-b0fce1672647",
      "resource": {
        "resourceType": "Specimen",
        "id": "894546cf-cf2e-4364-a5f4-b0fce1672647",
        "meta": {
          "profile": [
            "http://hl7.eu/fhir/laboratory/StructureDefinition/Specimen-eu-lab"
          ]
        },
        "collection": {
          "collectedDateTime": "2015-10-03"
        },
        "text": {
          "status": "generated",
          "div": "<div xmlns=\"http://www.w3.org/1999/xhtml\"><table class=\"hl7__eu__lab__report\"><tr><th>Specimen</th><th>Collection Date</th></tr><tr><td>Acellular blood (serum or plasma) specimen</td><td><span class=\"nb\">03-Oct-2015</span></td></tr></table></div>"
        },
        "type": {
          "coding": [
            {
              "code": "122592007",
              "system": "http://snomed.info/sct",
              "display": "Acellular blood (serum or plasma) specimen"
            }
          ]
        }
      }
    },
    {
      "fullUrl": "urn:uuid:9fc832f9-2516-42b4-b9a6-b76d250ed110",
      "resource": {
        "resourceType": "Specimen",
        "id": "9fc832f9-2516-42b4-b9a6-b76d250ed110",
        "meta": {
          "profile": [
            "http://hl7.eu/fhir/laboratory/StructureDefinition/Specimen-eu-lab"
          ]
        },
        "collection": {
          "collectedDateTime": "2015-10-03"
        },
        "text": {
          "status": "generated",
          "div": "<div xmlns=\"http://www.w3.org/1999/xhtml\"><table class=\"hl7__eu__lab__report\"><tr><th>Specimen</th><th>Collection Date</th></tr><tr><td>Whole blood specimen (specimen)</td><td><span class=\"nb\">03-Oct-2015</span></td></tr></table></div>"
        },
        "type": {
          "coding": [
            {
              "code": "258580003",
              "system": "http://snomed.info/sct",
              "display": "Whole blood specimen (specimen)"
            }
          ]
        }
      }
    },
    {
      "fullUrl": "urn:uuid:0973b4c9-9197-4e4d-84dc-def811c2c55b",
      "resource": {
        "resourceType": "Observation",
        "id": "0973b4c9-9197-4e4d-84dc-def811c2c55b",
        "meta": {
          "profile": [
            "http://hl7.eu/fhir/laboratory/StructureDefinition/Observation-resultslab-eu-lab"
          ]
        },
        "performer": [
          {
            "display": "The Central European Lab"
          }
        ],
        "category": [
          {
            "coding": [
              {
                "system": "http://terminology.hl7.org/CodeSystem/observation-category",
                "code": "laboratory"
              }
            ]
          }
        ],
        "code": {
          "coding": [
            {
              "code": "4548-4",
              "system": "http://loinc.org",
              "display": "Hemoglobin A1c/Hemoglobin.total in Blood"
            }
          ],
          "text": "Hemoglobin A1c/Hemoglobin.total in Blood"
        },
        "valueQuantity": {
          "system": "http://unitsofmeasure.org",
          "value": 5.9,
          "unit": "%",
          "code": "%"
        },
        "referenceRange": [
          {
            "low": {
              "value": 4.5,
              "code": "%",
              "system": "http://unitsofmeasure.org"
            }
          },
          {
            "high": {
              "value": 6.4,
              "code": "%",
              "system": "http://unitsofmeasure.org"
            }
          }
        ],
        "text": {
          "status": "generated",
          "div": "<div xmlns=\"http://www.w3.org/1999/xhtml\"><table class=\"hl7__eu__lab__report\"><tr><th>Test</th><th>04-Oct-2015</th><th>Reference&#xA0;Range</th><th>Unit</th></tr><tr><td>Hemoglobin A1c/Hemoglobin.total in Blood</td><td>5.9</td><td>4.5 - 6.4</td><td></td><td>%</td></tr></table></div>"
        },
        "status": "final",
        "subject": {
          "reference": "urn:uuid:8234311d-84c9-4ddb-8866-cc7597a62ec7",
          "display": "Helene Andresen"
        },
        "effectiveDateTime": "2015-10-03T22:53:36Z",
        "specimen": {
          "reference": "urn:uuid:9fc832f9-2516-42b4-b9a6-b76d250ed110"
        }
      }
    },
    {
      "fullUrl": "urn:uuid:8f38e770-42cb-4281-bea2-c00360506cdd",
      "resource": {
        "resourceType": "Observation",
        "id": "8f38e770-42cb-4281-bea2-c00360506cdd",
        "meta": {
          "profile": [
            "http://hl7.eu/fhir/laboratory/StructureDefinition/Observation-resultslab-eu-lab"
          ]
        },
        "performer": [
          {
            "display": "The Central European Lab"
          }
        ],
        "category": [
          {
            "coding": [
              {
                "system": "http://terminology.hl7.org/CodeSystem/observation-category",
                "code": "laboratory"
              }
            ]
          }
        ],
        "code": {
          "coding": [
            {
              "code": "2339-0",
              "system": "http://loinc.org",
              "display": "Glucose [Mass/volume] in Blood"
            }
          ],
          "text": "Glucose [Mass/volume] in Blood"
        },
        "valueQuantity": {
          "system": "http://unitsofmeasure.org",
          "value": 64.6,
          "unit": "mg/dL",
          "code": "mg/dL"
        },
        "referenceRange": [
          {
            "low": {
              "value": 70,
              "code": "mg/dL",
              "system": "http://unitsofmeasure.org"
            }
          },
          {
            "high": {
              "value": 140,
              "code": "mg/dL",
              "system": "http://unitsofmeasure.org"
            }
          }
        ],
        "interpretation": [
          {
            "coding": [
              {
                "code": "L",
                "system": "http://terminology.hl7.org/CodeSystem/v3-ObservationInterpretation",
                "display": "Low"
              }
            ]
          }
        ],
        "text": {
          "status": "generated",
          "div": "<div xmlns=\"http://www.w3.org/1999/xhtml\"><table class=\"hl7__eu__lab__report\"><tr><th>Test</th><th>04-Oct-2015</th><th>Reference&#xA0;Range</th><th>Unit</th></tr><tr><td>Glucose [Mass/volume] in Blood</td><td>64.6</td><td>70 - 140</td><td>L</td><td>mg/dL</td></tr></table></div>"
        },
        "status": "final",
        "subject": {
          "reference": "urn:uuid:8234311d-84c9-4ddb-8866-cc7597a62ec7",
          "display": "Helene Andresen"
        },
        "effectiveDateTime": "2015-10-03T22:53:36Z",
        "specimen": {
          "reference": "urn:uuid:9fc832f9-2516-42b4-b9a6-b76d250ed110"
        }
      }
    },
    {
      "fullUrl": "urn:uuid:b7fdf169-1296-4532-a692-519ebbf5bb52",
      "resource": {
        "resourceType": "Observation",
        "id": "b7fdf169-1296-4532-a692-519ebbf5bb52",
        "meta": {
          "profile": [
            "http://hl7.eu/fhir/laboratory/StructureDefinition/Observation-resultslab-eu-lab"
          ]
        },
        "performer": [
          {
            "display": "The Central European Lab"
          }
        ],
        "category": [
          {
            "coding": [
              {
                "system": "http://terminology.hl7.org/CodeSystem/observation-category",
                "code": "laboratory"
              }
            ]
          }
        ],
        "code": {
          "coding": [
            {
              "code": "6299-2",
              "system": "http://loinc.org",
              "display": "Urea nitrogen [Mass/volume] in Blood"
            }
          ],
          "text": "Urea nitrogen [Mass/volume] in Blood"
        },
        "valueQuantity": {
          "system": "http://unitsofmeasure.org",
          "value": 10.7,
          "unit": "mg/dL",
          "code": "mg/dL"
        },
        "referenceRange": [
          {
            "low": {
              "value": 7,
              "code": "mg/dL",
              "system": "http://unitsofmeasure.org"
            }
          },
          {
            "high": {
              "value": 25,
              "code": "mg/dL",
              "system": "http://unitsofmeasure.org"
            }
          }
        ],
        "text": {
          "status": "generated",
          "div": "<div xmlns=\"http://www.w3.org/1999/xhtml\"><table class=\"hl7__eu__lab__report\"><tr><th>Test</th><th>04-Oct-2015</th><th>Reference&#xA0;Range</th><th>Unit</th></tr><tr><td>Urea nitrogen [Mass/volume] in Blood</td><td>10.7</td><td>7 - 25</td><td></td><td>mg/dL</td></tr></table></div>"
        },
        "status": "final",
        "subject": {
          "reference": "urn:uuid:8234311d-84c9-4ddb-8866-cc7597a62ec7",
          "display": "Helene Andresen"
        },
        "effectiveDateTime": "2015-10-03T22:53:36Z",
        "specimen": {
          "reference": "urn:uuid:9fc832f9-2516-42b4-b9a6-b76d250ed110"
        }
      }
    },
    {
      "fullUrl": "urn:uuid:fdf2d634-f24c-4f0c-ac07-e26b5bf2df11",
      "resource": {
        "resourceType": "Observation",
        "id": "fdf2d634-f24c-4f0c-ac07-e26b5bf2df11",
        "meta": {
          "profile": [
            "http://hl7.eu/fhir/laboratory/StructureDefinition/Observation-resultslab-eu-lab"
          ]
        },
        "performer": [
          {
            "display": "The Central European Lab"
          }
        ],
        "category": [
          {
            "coding": [
              {
                "system": "http://terminology.hl7.org/CodeSystem/observation-category",
                "code": "laboratory"
              }
            ]
          }
        ],
        "code": {
          "coding": [
            {
              "code": "38483-4",
              "system": "http://loinc.org",
              "display": "Creatinine [Mass/volume] in Blood"
            }
          ],
          "text": "Creatinine [Mass/volume] in Blood"
        },
        "valueQuantity": {
          "system": "http://unitsofmeasure.org",
          "value": 0.6,
          "unit": "mg/dL",
          "code": "mg/dL"
        },
        "referenceRange": [
          {
            "low": {
              "value": 0.6,
              "code": "mg/dL",
              "system": "http://unitsofmeasure.org"
            }
          },
          {
            "high": {
              "value": 1.1,
              "code": "mg/dL",
              "system": "http://unitsofmeasure.org"
            }
          }
        ],
        "text": {
          "status": "generated",
          "div": "<div xmlns=\"http://www.w3.org/1999/xhtml\"><table class=\"hl7__eu__lab__report\"><tr><th>Test</th><th>04-Oct-2015</th><th>Reference&#xA0;Range</th><th>Unit</th></tr><tr><td>Creatinine [Mass/volume] in Blood</td><td>0.6</td><td>0.6 - 1.1</td><td></td><td>mg/dL</td></tr></table></div>"
        },
        "status": "final",
        "subject": {
          "reference": "urn:uuid:8234311d-84c9-4ddb-8866-cc7597a62ec7",
          "display": "Helene Andresen"
        },
        "effectiveDateTime": "2015-10-03T22:53:36Z",
        "specimen": {
          "reference": "urn:uuid:9fc832f9-2516-42b4-b9a6-b76d250ed110"
        }
      }
    },
    {
      "fullUrl": "urn:uuid:cc4ab837-ef90-4f1b-8bf6-49e090fd9d07",
      "resource": {
        "resourceType": "Observation",
        "id": "cc4ab837-ef90-4f1b-8bf6-49e090fd9d07",
        "meta": {
          "profile": [
            "http://hl7.eu/fhir/laboratory/StructureDefinition/Observation-resultslab-eu-lab"
          ]
        },
        "performer": [
          {
            "display": "The Central European Lab"
          }
        ],
        "category": [
          {
            "coding": [
              {
                "system": "http://terminology.hl7.org/CodeSystem/observation-category",
                "code": "laboratory"
              }
            ]
          }
        ],
        "code": {
          "coding": [
            {
              "code": "49765-1",
              "system": "http://loinc.org",
              "display": "Calcium [Mass/volume] in Blood"
            }
          ],
          "text": "Calcium [Mass/volume] in Blood"
        },
        "valueQuantity": {
          "system": "http://unitsofmeasure.org",
          "value": 9.5,
          "unit": "mg/dL",
          "code": "mg/dL"
        },
        "referenceRange": [
          {
            "low": {
              "value": 8.6,
              "code": "mg/dL",
              "system": "http://unitsofmeasure.org"
            }
          },
          {
            "high": {
              "value": 10.4,
              "code": "mg/dL",
              "system": "http://unitsofmeasure.org"
            }
          }
        ],
        "text": {
          "status": "generated",
          "div": "<div xmlns=\"http://www.w3.org/1999/xhtml\"><table class=\"hl7__eu__lab__report\"><tr><th>Test</th><th>04-Oct-2015</th><th>Reference&#xA0;Range</th><th>Unit</th></tr><tr><td>Calcium [Mass/volume] in Blood</td><td>9.5</td><td>8.6 - 10.4</td><td></td><td>mg/dL</td></tr></table></div>"
        },
        "status": "final",
        "subject": {
          "reference": "urn:uuid:8234311d-84c9-4ddb-8866-cc7597a62ec7",
          "display": "Helene Andresen"
        },
        "effectiveDateTime": "2015-10-03T22:53:36Z",
        "specimen": {
          "reference": "urn:uuid:9fc832f9-2516-42b4-b9a6-b76d250ed110"
        }
      }
    },
    {
      "fullUrl": "urn:uuid:5fcb0c8a-78e5-4a25-b61f-c7d4095749ca",
      "resource": {
        "resourceType": "Observation",
        "id": "5fcb0c8a-78e5-4a25-b61f-c7d4095749ca",
        "meta": {
          "profile": [
            "http://hl7.eu/fhir/laboratory/StructureDefinition/Observation-resultslab-eu-lab"
          ]
        },
        "performer": [
          {
            "display": "The Central European Lab"
          }
        ],
        "category": [
          {
            "coding": [
              {
                "system": "http://terminology.hl7.org/CodeSystem/observation-category",
                "code": "laboratory"
              }
            ]
          }
        ],
        "code": {
          "coding": [
            {
              "code": "2947-0",
              "system": "http://loinc.org",
              "display": "Sodium [Moles/volume] in Blood"
            }
          ],
          "text": "Sodium [Moles/volume] in Blood"
        },
        "valueQuantity": {
          "system": "http://unitsofmeasure.org",
          "value": 143.7,
          "unit": "mmol/L",
          "code": "mmol/L"
        },
        "referenceRange": [
          {
            "low": {
              "value": 135,
              "code": "mmol/L",
              "system": "http://unitsofmeasure.org"
            }
          },
          {
            "high": {
              "value": 145,
              "code": "mmol/L",
              "system": "http://unitsofmeasure.org"
            }
          }
        ],
        "text": {
          "status": "generated",
          "div": "<div xmlns=\"http://www.w3.org/1999/xhtml\"><table class=\"hl7__eu__lab__report\"><tr><th>Test</th><th>04-Oct-2015</th><th>Reference&#xA0;Range</th><th>Unit</th></tr><tr><td>Sodium [Moles/volume] in Blood</td><td>143.7</td><td>135 - 145</td><td></td><td>mmol/L</td></tr></table></div>"
        },
        "status": "final",
        "subject": {
          "reference": "urn:uuid:8234311d-84c9-4ddb-8866-cc7597a62ec7",
          "display": "Helene Andresen"
        },
        "effectiveDateTime": "2015-10-03T22:53:36Z",
        "specimen": {
          "reference": "urn:uuid:9fc832f9-2516-42b4-b9a6-b76d250ed110"
        }
      }
    },
    {
      "fullUrl": "urn:uuid:d4bc8609-8b85-464d-a5a5-d137ed7b4610",
      "resource": {
        "resourceType": "Observation",
        "id": "d4bc8609-8b85-464d-a5a5-d137ed7b4610",
        "meta": {
          "profile": [
            "http://hl7.eu/fhir/laboratory/StructureDefinition/Observation-resultslab-eu-lab"
          ]
        },
        "performer": [
          {
            "display": "The Central European Lab"
          }
        ],
        "category": [
          {
            "coding": [
              {
                "system": "http://terminology.hl7.org/CodeSystem/observation-category",
                "code": "laboratory"
              }
            ]
          }
        ],
        "code": {
          "coding": [
            {
              "code": "6298-4",
              "system": "http://loinc.org",
              "display": "Potassium [Moles/volume] in Blood"
            }
          ],
          "text": "Potassium [Moles/volume] in Blood"
        },
        "valueQuantity": {
          "system": "http://unitsofmeasure.org",
          "value": 4.2,
          "unit": "mmol/L",
          "code": "mmol/L"
        },
        "referenceRange": [
          {
            "low": {
              "value": 3.5,
              "code": "mmol/L",
              "system": "http://unitsofmeasure.org"
            }
          },
          {
            "high": {
              "value": 5.3,
              "code": "mmol/L",
              "system": "http://unitsofmeasure.org"
            }
          }
        ],
        "text": {
          "status": "generated",
          "div": "<div xmlns=\"http://www.w3.org/1999/xhtml\"><table class=\"hl7__eu__lab__report\"><tr><th>Test</th><th>04-Oct-2015</th><th>Reference&#xA0;Range</th><th>Unit</th></tr><tr><td>Potassium [Moles/volume] in Blood</td><td>4.2</td><td>3.5 - 5.3</td><td></td><td>mmol/L</td></tr></table></div>"
        },
        "status": "final",
        "subject": {
          "reference": "urn:uuid:8234311d-84c9-4ddb-8866-cc7597a62ec7",
          "display": "Helene Andresen"
        },
        "effectiveDateTime": "2015-10-03T22:53:36Z",
        "specimen": {
          "reference": "urn:uuid:9fc832f9-2516-42b4-b9a6-b76d250ed110"
        }
      }
    },
    {
      "fullUrl": "urn:uuid:7c545b45-6d5f-4ce3-ab7d-3e2be80b4dc6",
      "resource": {
        "resourceType": "Observation",
        "id": "7c545b45-6d5f-4ce3-ab7d-3e2be80b4dc6",
        "meta": {
          "profile": [
            "http://hl7.eu/fhir/laboratory/StructureDefinition/Observation-resultslab-eu-lab"
          ]
        },
        "performer": [
          {
            "display": "The Central European Lab"
          }
        ],
        "category": [
          {
            "coding": [
              {
                "system": "http://terminology.hl7.org/CodeSystem/observation-category",
                "code": "laboratory"
              }
            ]
          }
        ],
        "code": {
          "coding": [
            {
              "code": "2069-3",
              "system": "http://loinc.org",
              "display": "Chloride [Moles/volume] in Blood"
            }
          ],
          "text": "Chloride [Moles/volume] in Blood"
        },
        "valueQuantity": {
          "system": "http://unitsofmeasure.org",
          "value": 107.2,
          "unit": "mmol/L",
          "code": "mmol/L"
        },
        "referenceRange": [
          {
            "low": {
              "value": 98,
              "code": "mmol/L",
              "system": "http://unitsofmeasure.org"
            }
          },
          {
            "high": {
              "value": 108,
              "code": "mmol/L",
              "system": "http://unitsofmeasure.org"
            }
          }
        ],
        "text": {
          "status": "generated",
          "div": "<div xmlns=\"http://www.w3.org/1999/xhtml\"><table class=\"hl7__eu__lab__report\"><tr><th>Test</th><th>04-Oct-2015</th><th>Reference&#xA0;Range</th><th>Unit</th></tr><tr><td>Chloride [Moles/volume] in Blood</td><td>107.2</td><td>98 - 108</td><td></td><td>mmol/L</td></tr></table></div>"
        },
        "status": "final",
        "subject": {
          "reference": "urn:uuid:8234311d-84c9-4ddb-8866-cc7597a62ec7",
          "display": "Helene Andresen"
        },
        "effectiveDateTime": "2015-10-03T22:53:36Z",
        "specimen": {
          "reference": "urn:uuid:9fc832f9-2516-42b4-b9a6-b76d250ed110"
        }
      }
    },
    {
      "fullUrl": "urn:uuid:bc977484-e094-4cd9-a0cd-1ab616f1a11c",
      "resource": {
        "resourceType": "Observation",
        "id": "bc977484-e094-4cd9-a0cd-1ab616f1a11c",
        "meta": {
          "profile": [
            "http://hl7.eu/fhir/laboratory/StructureDefinition/Observation-resultslab-eu-lab"
          ]
        },
        "performer": [
          {
            "display": "The Central European Lab"
          }
        ],
        "category": [
          {
            "coding": [
              {
                "system": "http://terminology.hl7.org/CodeSystem/observation-category",
                "code": "laboratory"
              }
            ]
          }
        ],
        "code": {
          "coding": [
            {
              "code": "20565-8",
              "system": "http://loinc.org",
              "display": "Carbon dioxide, total [Moles/volume] in Blood"
            }
          ],
          "text": "Carbon dioxide, total [Moles/volume] in Blood"
        },
        "valueQuantity": {
          "system": "http://unitsofmeasure.org",
          "value": 22.5,
          "unit": "mmol/L",
          "code": "mmol/L"
        },
        "referenceRange": [
          {
            "low": {
              "value": 22,
              "code": "mmol/L",
              "system": "http://unitsofmeasure.org"
            }
          },
          {
            "high": {
              "value": 32,
              "code": "mmol/L",
              "system": "http://unitsofmeasure.org"
            }
          }
        ],
        "text": {
          "status": "generated",
          "div": "<div xmlns=\"http://www.w3.org/1999/xhtml\"><table class=\"hl7__eu__lab__report\"><tr><th>Test</th><th>04-Oct-2015</th><th>Reference&#xA0;Range</th><th>Unit</th></tr><tr><td>Carbon dioxide, total [Moles/volume] in Blood</td><td>22.5</td><td>22 - 32</td><td></td><td>mmol/L</td></tr></table></div>"
        },
        "status": "final",
        "subject": {
          "reference": "urn:uuid:8234311d-84c9-4ddb-8866-cc7597a62ec7",
          "display": "Helene Andresen"
        },
        "effectiveDateTime": "2015-10-03T22:53:36Z",
        "specimen": {
          "reference": "urn:uuid:9fc832f9-2516-42b4-b9a6-b76d250ed110"
        }
      }
    },
    {
      "fullUrl": "urn:uuid:ea9d0ad6-4c7b-4340-ae85-2a69c3990d7b",
      "resource": {
        "resourceType": "Observation",
        "id": "ea9d0ad6-4c7b-4340-ae85-2a69c3990d7b",
        "meta": {
          "profile": [
            "http://hl7.eu/fhir/laboratory/StructureDefinition/Observation-resultslab-eu-lab"
          ]
        },
        "performer": [
          {
            "display": "The Central European Lab"
          }
        ],
        "category": [
          {
            "coding": [
              {
                "system": "http://terminology.hl7.org/CodeSystem/observation-category",
                "code": "laboratory"
              }
            ]
          }
        ],
        "code": {
          "coding": [
            {
              "code": "2093-3",
              "system": "http://loinc.org",
              "display": "Cholesterol [Mass/volume] in Serum or Plasma"
            }
          ],
          "text": "Cholesterol [Mass/volume] in Serum or Plasma"
        },
        "valueQuantity": {
          "system": "http://unitsofmeasure.org",
          "value": 182,
          "unit": "mg/dL",
          "code": "mg/dL"
        },
        "referenceRange": [
          {
            "low": {
              "value": 125,
              "code": "mg/dL",
              "system": "http://unitsofmeasure.org"
            }
          },
          {
            "high": {
              "value": 200,
              "code": "mg/dL",
              "system": "http://unitsofmeasure.org"
            }
          }
        ],
        "text": {
          "status": "generated",
          "div": "<div xmlns=\"http://www.w3.org/1999/xhtml\"><table class=\"hl7__eu__lab__report\"><tr><th>Test</th><th>04-Oct-2015</th><th>Reference&#xA0;Range</th><th>Unit</th></tr><tr><td>Cholesterol [Mass/volume] in Serum or Plasma</td><td>182.0</td><td>125 - 200</td><td></td><td>mg/dL</td></tr></table></div>"
        },
        "status": "final",
        "subject": {
          "reference": "urn:uuid:8234311d-84c9-4ddb-8866-cc7597a62ec7",
          "display": "Helene Andresen"
        },
        "effectiveDateTime": "2015-10-03T22:53:36Z",
        "specimen": {
          "reference": "urn:uuid:894546cf-cf2e-4364-a5f4-b0fce1672647"
        }
      }
    },
    {
      "fullUrl": "urn:uuid:7e75b604-a362-4d29-9c4d-8a6bdde893a2",
      "resource": {
        "resourceType": "Observation",
        "id": "7e75b604-a362-4d29-9c4d-8a6bdde893a2",
        "meta": {
          "profile": [
            "http://hl7.eu/fhir/laboratory/StructureDefinition/Observation-resultslab-eu-lab"
          ]
        },
        "performer": [
          {
            "display": "The Central European Lab"
          }
        ],
        "category": [
          {
            "coding": [
              {
                "system": "http://terminology.hl7.org/CodeSystem/observation-category",
                "code": "laboratory"
              }
            ]
          }
        ],
        "code": {
          "coding": [
            {
              "code": "2571-8",
              "system": "http://loinc.org",
              "display": "Triglyceride [Mass/volume] in Serum or Plasma"
            }
          ],
          "text": "Triglyceride [Mass/volume] in Serum or Plasma"
        },
        "valueQuantity": {
          "system": "http://unitsofmeasure.org",
          "value": 120.5,
          "unit": "mg/dL",
          "code": "mg/dL"
        },
        "referenceRange": [
          {
            "low": {
              "value": 10,
              "code": "mg/dL",
              "system": "http://unitsofmeasure.org"
            }
          },
          {
            "high": {
              "value": 175,
              "code": "mg/dL",
              "system": "http://unitsofmeasure.org"
            }
          }
        ],
        "text": {
          "status": "generated",
          "div": "<div xmlns=\"http://www.w3.org/1999/xhtml\"><table class=\"hl7__eu__lab__report\"><tr><th>Test</th><th>04-Oct-2015</th><th>Reference&#xA0;Range</th><th>Unit</th></tr><tr><td>Triglyceride [Mass/volume] in Serum or Plasma</td><td>120.5</td><td>10 - 175</td><td></td><td>mg/dL</td></tr></table></div>"
        },
        "status": "final",
        "subject": {
          "reference": "urn:uuid:8234311d-84c9-4ddb-8866-cc7597a62ec7",
          "display": "Helene Andresen"
        },
        "effectiveDateTime": "2015-10-03T22:53:36Z",
        "specimen": {
          "reference": "urn:uuid:894546cf-cf2e-4364-a5f4-b0fce1672647"
        }
      }
    },
    {
      "fullUrl": "urn:uuid:817da21d-9436-4314-926f-15d49428f19e",
      "resource": {
        "resourceType": "Observation",
        "id": "817da21d-9436-4314-926f-15d49428f19e",
        "meta": {
          "profile": [
            "http://hl7.eu/fhir/laboratory/StructureDefinition/Observation-resultslab-eu-lab"
          ]
        },
        "performer": [
          {
            "display": "The Central European Lab"
          }
        ],
        "category": [
          {
            "coding": [
              {
                "system": "http://terminology.hl7.org/CodeSystem/observation-category",
                "code": "laboratory"
              }
            ]
          }
        ],
        "code": {
          "coding": [
            {
              "code": "18262-6",
              "system": "http://loinc.org",
              "display": "Cholesterol in LDL [Mass/volume] in Serum or Plasma by Direct assay"
            }
          ],
          "text": "Cholesterol in LDL [Mass/volume] in Serum or Plasma by Direct assay"
        },
        "valueQuantity": {
          "system": "http://unitsofmeasure.org",
          "value": 97.3,
          "unit": "mg/dL",
          "code": "mg/dL"
        },
        "referenceRange": [
          {
            "low": {
              "value": 0,
              "code": "mg/dL",
              "system": "http://unitsofmeasure.org"
            }
          },
          {
            "high": {
              "value": 130,
              "code": "mg/dL",
              "system": "http://unitsofmeasure.org"
            }
          }
        ],
        "text": {
          "status": "generated",
          "div": "<div xmlns=\"http://www.w3.org/1999/xhtml\"><table class=\"hl7__eu__lab__report\"><tr><th>Test</th><th>04-Oct-2015</th><th>Reference&#xA0;Range</th><th>Unit</th></tr><tr><td>Cholesterol in LDL [Mass/volume] in Serum or Plasma by Direct assay</td><td>97.3</td><td>0 - 130</td><td></td><td>mg/dL</td></tr></table></div>"
        },
        "status": "final",
        "subject": {
          "reference": "urn:uuid:8234311d-84c9-4ddb-8866-cc7597a62ec7",
          "display": "Helene Andresen"
        },
        "effectiveDateTime": "2015-10-03T22:53:36Z",
        "specimen": {
          "reference": "urn:uuid:894546cf-cf2e-4364-a5f4-b0fce1672647"
        }
      }
    },
    {
      "fullUrl": "urn:uuid:0e962261-069b-4c68-a61e-016e710d6535",
      "resource": {
        "resourceType": "Observation",
        "id": "0e962261-069b-4c68-a61e-016e710d6535",
        "meta": {
          "profile": [
            "http://hl7.eu/fhir/laboratory/StructureDefinition/Observation-resultslab-eu-lab"
          ]
        },
        "performer": [
          {
            "display": "The Central European Lab"
          }
        ],
        "category": [
          {
            "coding": [
              {
                "system": "http://terminology.hl7.org/CodeSystem/observation-category",
                "code": "laboratory"
              }
            ]
          }
        ],
        "code": {
          "coding": [
            {
              "code": "2085-9",
              "system": "http://loinc.org",
              "display": "Cholesterol in HDL [Mass/volume] in Serum or Plasma"
            }
          ],
          "text": "Cholesterol in HDL [Mass/volume] in Serum or Plasma"
        },
        "valueQuantity": {
          "system": "http://unitsofmeasure.org",
          "value": 60.6,
          "unit": "mg/dL",
          "code": "mg/dL"
        },
        "referenceRange": [
          {
            "low": {
              "value": 50,
              "code": "mg/dL",
              "system": "http://unitsofmeasure.org"
            }
          },
          {
            "high": {
              "value": 100,
              "code": "mg/dL",
              "system": "http://unitsofmeasure.org"
            }
          }
        ],
        "text": {
          "status": "generated",
          "div": "<div xmlns=\"http://www.w3.org/1999/xhtml\"><table class=\"hl7__eu__lab__report\"><tr><th>Test</th><th>04-Oct-2015</th><th>Reference&#xA0;Range</th><th>Unit</th></tr><tr><td>Cholesterol in HDL [Mass/volume] in Serum or Plasma</td><td>60.6</td><td>50 - 100</td><td></td><td>mg/dL</td></tr></table></div>"
        },
        "status": "final",
        "subject": {
          "reference": "urn:uuid:8234311d-84c9-4ddb-8866-cc7597a62ec7",
          "display": "Helene Andresen"
        },
        "effectiveDateTime": "2015-10-03T22:53:36Z",
        "specimen": {
          "reference": "urn:uuid:894546cf-cf2e-4364-a5f4-b0fce1672647"
        }
      }
    },
    {
      "fullUrl": "urn:uuid:4b6269a0-b924-4ac6-a472-dac0ab99aef9",
      "resource": {
        "resourceType": "Observation",
        "id": "4b6269a0-b924-4ac6-a472-dac0ab99aef9",
        "meta": {
          "profile": [
            "http://hl7.eu/fhir/laboratory/StructureDefinition/Observation-resultslab-eu-lab"
          ]
        },
        "performer": [
          {
            "display": "The Central European Lab"
          }
        ],
        "category": [
          {
            "coding": [
              {
                "system": "http://terminology.hl7.org/CodeSystem/observation-category",
                "code": "laboratory"
              }
            ]
          }
        ],
        "code": {
          "coding": [
            {
              "code": "6690-2",
              "system": "http://loinc.org",
              "display": "Leukocytes [#/volume] in Blood by Automated count"
            }
          ],
          "text": "Leukocytes [#/volume] in Blood by Automated count"
        },
        "valueQuantity": {
          "system": "http://unitsofmeasure.org",
          "value": 4.3,
          "unit": "10*3/uL",
          "code": "10*3/uL"
        },
        "referenceRange": [
          {
            "low": {
              "value": 3.4,
              "code": "10*3/uL",
              "system": "http://unitsofmeasure.org"
            }
          },
          {
            "high": {
              "value": 10.6,
              "code": "10*3/uL",
              "system": "http://unitsofmeasure.org"
            }
          }
        ],
        "text": {
          "status": "generated",
          "div": "<div xmlns=\"http://www.w3.org/1999/xhtml\"><table class=\"hl7__eu__lab__report\"><tr><th>Test</th><th>04-Oct-2015</th><th>Reference&#xA0;Range</th><th>Unit</th></tr><tr><td>Leukocytes [#/volume] in Blood by Automated count</td><td>4.3</td><td>3.4 - 10.6</td><td></td><td>10*3/uL</td></tr></table></div>"
        },
        "status": "final",
        "subject": {
          "reference": "urn:uuid:8234311d-84c9-4ddb-8866-cc7597a62ec7",
          "display": "Helene Andresen"
        },
        "effectiveDateTime": "2015-10-03T22:53:36Z",
        "specimen": {
          "reference": "urn:uuid:9fc832f9-2516-42b4-b9a6-b76d250ed110"
        }
      }
    },
    {
      "fullUrl": "urn:uuid:a31f7d73-6544-4f2f-b14f-7746546455a6",
      "resource": {
        "resourceType": "Observation",
        "id": "a31f7d73-6544-4f2f-b14f-7746546455a6",
        "meta": {
          "profile": [
            "http://hl7.eu/fhir/laboratory/StructureDefinition/Observation-resultslab-eu-lab"
          ]
        },
        "performer": [
          {
            "display": "The Central European Lab"
          }
        ],
        "category": [
          {
            "coding": [
              {
                "system": "http://terminology.hl7.org/CodeSystem/observation-category",
                "code": "laboratory"
              }
            ]
          }
        ],
        "code": {
          "coding": [
            {
              "code": "789-8",
              "system": "http://loinc.org",
              "display": "Erythrocytes [#/volume] in Blood by Automated count"
            }
          ],
          "text": "Erythrocytes [#/volume] in Blood by Automated count"
        },
        "valueQuantity": {
          "system": "http://unitsofmeasure.org",
          "value": 5.1,
          "unit": "10*6/uL",
          "code": "10*6/uL"
        },
        "referenceRange": [
          {
            "low": {
              "value": 4.7,
              "code": "10*6/uL",
              "system": "http://unitsofmeasure.org"
            }
          },
          {
            "high": {
              "value": 5.2,
              "code": "10*6/uL",
              "system": "http://unitsofmeasure.org"
            }
          }
        ],
        "text": {
          "status": "generated",
          "div": "<div xmlns=\"http://www.w3.org/1999/xhtml\"><table class=\"hl7__eu__lab__report\"><tr><th>Test</th><th>04-Oct-2015</th><th>Reference&#xA0;Range</th><th>Unit</th></tr><tr><td>Erythrocytes [#/volume] in Blood by Automated count</td><td>5.1</td><td>4.7 - 5.2</td><td></td><td>10*6/uL</td></tr></table></div>"
        },
        "status": "final",
        "subject": {
          "reference": "urn:uuid:8234311d-84c9-4ddb-8866-cc7597a62ec7",
          "display": "Helene Andresen"
        },
        "effectiveDateTime": "2015-10-03T22:53:36Z",
        "specimen": {
          "reference": "urn:uuid:9fc832f9-2516-42b4-b9a6-b76d250ed110"
        }
      }
    },
    {
      "fullUrl": "urn:uuid:d88a4ba5-b88c-4ab7-856a-f86fa42fd0a6",
      "resource": {
        "resourceType": "Observation",
        "id": "d88a4ba5-b88c-4ab7-856a-f86fa42fd0a6",
        "meta": {
          "profile": [
            "http://hl7.eu/fhir/laboratory/StructureDefinition/Observation-resultslab-eu-lab"
          ]
        },
        "performer": [
          {
            "display": "The Central European Lab"
          }
        ],
        "category": [
          {
            "coding": [
              {
                "system": "http://terminology.hl7.org/CodeSystem/observation-category",
                "code": "laboratory"
              }
            ]
          }
        ],
        "code": {
          "coding": [
            {
              "code": "718-7",
              "system": "http://loinc.org",
              "display": "Hemoglobin [Mass/volume] in Blood"
            }
          ],
          "text": "Hemoglobin [Mass/volume] in Blood"
        },
        "valueQuantity": {
          "system": "http://unitsofmeasure.org",
          "value": 12.8,
          "unit": "g/dL",
          "code": "g/dL"
        },
        "referenceRange": [
          {
            "low": {
              "value": 11.5,
              "code": "g/dL",
              "system": "http://unitsofmeasure.org"
            }
          },
          {
            "high": {
              "value": 16,
              "code": "g/dL",
              "system": "http://unitsofmeasure.org"
            }
          }
        ],
        "text": {
          "status": "generated",
          "div": "<div xmlns=\"http://www.w3.org/1999/xhtml\"><table class=\"hl7__eu__lab__report\"><tr><th>Test</th><th>04-Oct-2015</th><th>Reference&#xA0;Range</th><th>Unit</th></tr><tr><td>Hemoglobin [Mass/volume] in Blood</td><td>12.8</td><td>11.5 - 16</td><td></td><td>g/dL</td></tr></table></div>"
        },
        "status": "final",
        "subject": {
          "reference": "urn:uuid:8234311d-84c9-4ddb-8866-cc7597a62ec7",
          "display": "Helene Andresen"
        },
        "effectiveDateTime": "2015-10-03T22:53:36Z",
        "specimen": {
          "reference": "urn:uuid:9fc832f9-2516-42b4-b9a6-b76d250ed110"
        }
      }
    },
    {
      "fullUrl": "urn:uuid:899c698a-ece5-4738-81be-0816dabd58b1",
      "resource": {
        "resourceType": "Observation",
        "id": "899c698a-ece5-4738-81be-0816dabd58b1",
        "meta": {
          "profile": [
            "http://hl7.eu/fhir/laboratory/StructureDefinition/Observation-resultslab-eu-lab"
          ]
        },
        "performer": [
          {
            "display": "The Central European Lab"
          }
        ],
        "category": [
          {
            "coding": [
              {
                "system": "http://terminology.hl7.org/CodeSystem/observation-category",
                "code": "laboratory"
              }
            ]
          }
        ],
        "code": {
          "coding": [
            {
              "code": "4544-3",
              "system": "http://loinc.org",
              "display": "Hematocrit [Volume Fraction] of Blood by Automated count"
            }
          ],
          "text": "Hematocrit [Volume Fraction] of Blood by Automated count"
        },
        "valueQuantity": {
          "system": "http://unitsofmeasure.org",
          "value": 39.3,
          "unit": "%",
          "code": "%"
        },
        "referenceRange": [
          {
            "low": {
              "value": 38,
              "code": "%",
              "system": "http://unitsofmeasure.org"
            }
          },
          {
            "high": {
              "value": 56,
              "code": "%",
              "system": "http://unitsofmeasure.org"
            }
          }
        ],
        "text": {
          "status": "generated",
          "div": "<div xmlns=\"http://www.w3.org/1999/xhtml\"><table class=\"hl7__eu__lab__report\"><tr><th>Test</th><th>04-Oct-2015</th><th>Reference&#xA0;Range</th><th>Unit</th></tr><tr><td>Hematocrit [Volume Fraction] of Blood by Automated count</td><td>39.3</td><td>38 - 56</td><td></td><td>%</td></tr></table></div>"
        },
        "status": "final",
        "subject": {
          "reference": "urn:uuid:8234311d-84c9-4ddb-8866-cc7597a62ec7",
          "display": "Helene Andresen"
        },
        "effectiveDateTime": "2015-10-03T22:53:36Z",
        "specimen": {
          "reference": "urn:uuid:9fc832f9-2516-42b4-b9a6-b76d250ed110"
        }
      }
    },
    {
      "fullUrl": "urn:uuid:94080a1d-884b-46d3-ba4e-25f15172b0ab",
      "resource": {
        "resourceType": "Observation",
        "id": "94080a1d-884b-46d3-ba4e-25f15172b0ab",
        "meta": {
          "profile": [
            "http://hl7.eu/fhir/laboratory/StructureDefinition/Observation-resultslab-eu-lab"
          ]
        },
        "performer": [
          {
            "display": "The Central European Lab"
          }
        ],
        "category": [
          {
            "coding": [
              {
                "system": "http://terminology.hl7.org/CodeSystem/observation-category",
                "code": "laboratory"
              }
            ]
          }
        ],
        "code": {
          "coding": [
            {
              "code": "787-2",
              "system": "http://loinc.org",
              "display": "MCV [Entitic volume] by Automated count"
            }
          ],
          "text": "MCV [Entitic volume] by Automated count"
        },
        "valueQuantity": {
          "system": "http://unitsofmeasure.org",
          "value": 83.3,
          "unit": "fL",
          "code": "fL"
        },
        "referenceRange": [
          {
            "low": {
              "value": 78,
              "code": "fL",
              "system": "http://unitsofmeasure.org"
            }
          },
          {
            "high": {
              "value": 98,
              "code": "fL",
              "system": "http://unitsofmeasure.org"
            }
          }
        ],
        "text": {
          "status": "generated",
          "div": "<div xmlns=\"http://www.w3.org/1999/xhtml\"><table class=\"hl7__eu__lab__report\"><tr><th>Test</th><th>04-Oct-2015</th><th>Reference&#xA0;Range</th><th>Unit</th></tr><tr><td>MCV [Entitic volume] by Automated count</td><td>83.3</td><td>78 - 98</td><td></td><td>fL</td></tr></table></div>"
        },
        "status": "final",
        "subject": {
          "reference": "urn:uuid:8234311d-84c9-4ddb-8866-cc7597a62ec7",
          "display": "Helene Andresen"
        },
        "effectiveDateTime": "2015-10-03T22:53:36Z",
        "specimen": {
          "reference": "urn:uuid:9fc832f9-2516-42b4-b9a6-b76d250ed110"
        }
      }
    },
    {
      "fullUrl": "urn:uuid:8519b0bf-b8c4-49cc-8a86-c882283d5f1a",
      "resource": {
        "resourceType": "Observation",
        "id": "8519b0bf-b8c4-49cc-8a86-c882283d5f1a",
        "meta": {
          "profile": [
            "http://hl7.eu/fhir/laboratory/StructureDefinition/Observation-resultslab-eu-lab"
          ]
        },
        "performer": [
          {
            "display": "The Central European Lab"
          }
        ],
        "category": [
          {
            "coding": [
              {
                "system": "http://terminology.hl7.org/CodeSystem/observation-category",
                "code": "laboratory"
              }
            ]
          }
        ],
        "code": {
          "coding": [
            {
              "code": "785-6",
              "system": "http://loinc.org",
              "display": "MCH [Entitic mass] by Automated count"
            }
          ],
          "text": "MCH [Entitic mass] by Automated count"
        },
        "valueQuantity": {
          "system": "http://unitsofmeasure.org",
          "value": 32.1,
          "unit": "pg",
          "code": "pg"
        },
        "referenceRange": [
          {
            "low": {
              "value": 27,
              "code": "pg",
              "system": "http://unitsofmeasure.org"
            }
          },
          {
            "high": {
              "value": 34,
              "code": "pg",
              "system": "http://unitsofmeasure.org"
            }
          }
        ],
        "text": {
          "status": "generated",
          "div": "<div xmlns=\"http://www.w3.org/1999/xhtml\"><table class=\"hl7__eu__lab__report\"><tr><th>Test</th><th>04-Oct-2015</th><th>Reference&#xA0;Range</th><th>Unit</th></tr><tr><td>MCH [Entitic mass] by Automated count</td><td>32.1</td><td>27 - 34</td><td></td><td>pg</td></tr></table></div>"
        },
        "status": "final",
        "subject": {
          "reference": "urn:uuid:8234311d-84c9-4ddb-8866-cc7597a62ec7",
          "display": "Helene Andresen"
        },
        "effectiveDateTime": "2015-10-03T22:53:36Z",
        "specimen": {
          "reference": "urn:uuid:9fc832f9-2516-42b4-b9a6-b76d250ed110"
        }
      }
    },
    {
      "fullUrl": "urn:uuid:c305b346-3613-4af1-a22c-6539782264aa",
      "resource": {
        "resourceType": "Observation",
        "id": "c305b346-3613-4af1-a22c-6539782264aa",
        "meta": {
          "profile": [
            "http://hl7.eu/fhir/laboratory/StructureDefinition/Observation-resultslab-eu-lab"
          ]
        },
        "performer": [
          {
            "display": "The Central European Lab"
          }
        ],
        "category": [
          {
            "coding": [
              {
                "system": "http://terminology.hl7.org/CodeSystem/observation-category",
                "code": "laboratory"
              }
            ]
          }
        ],
        "code": {
          "coding": [
            {
              "code": "786-4",
              "system": "http://loinc.org",
              "display": "MCHC [Mass/volume] by Automated count"
            }
          ],
          "text": "MCHC [Mass/volume] by Automated count"
        },
        "valueQuantity": {
          "system": "http://unitsofmeasure.org",
          "value": 33.4,
          "unit": "g/dL",
          "code": "g/dL"
        },
        "referenceRange": [
          {
            "low": {
              "value": 31,
              "code": "g/dL",
              "system": "http://unitsofmeasure.org"
            }
          },
          {
            "high": {
              "value": 36,
              "code": "g/dL",
              "system": "http://unitsofmeasure.org"
            }
          }
        ],
        "text": {
          "status": "generated",
          "div": "<div xmlns=\"http://www.w3.org/1999/xhtml\"><table class=\"hl7__eu__lab__report\"><tr><th>Test</th><th>04-Oct-2015</th><th>Reference&#xA0;Range</th><th>Unit</th></tr><tr><td>MCHC [Mass/volume] by Automated count</td><td>33.4</td><td>31 - 36</td><td></td><td>g/dL</td></tr></table></div>"
        },
        "status": "final",
        "subject": {
          "reference": "urn:uuid:8234311d-84c9-4ddb-8866-cc7597a62ec7",
          "display": "Helene Andresen"
        },
        "effectiveDateTime": "2015-10-03T22:53:36Z",
        "specimen": {
          "reference": "urn:uuid:9fc832f9-2516-42b4-b9a6-b76d250ed110"
        }
      }
    },
    {
      "fullUrl": "urn:uuid:ef4c40d7-eae8-4796-a5c0-ed826c9f5377",
      "resource": {
        "resourceType": "Observation",
        "id": "ef4c40d7-eae8-4796-a5c0-ed826c9f5377",
        "meta": {
          "profile": [
            "http://hl7.eu/fhir/laboratory/StructureDefinition/Observation-resultslab-eu-lab"
          ]
        },
        "performer": [
          {
            "display": "The Central European Lab"
          }
        ],
        "category": [
          {
            "coding": [
              {
                "system": "http://terminology.hl7.org/CodeSystem/observation-category",
                "code": "laboratory"
              }
            ]
          }
        ],
        "code": {
          "coding": [
            {
              "code": "21000-5",
              "system": "http://loinc.org",
              "display": "Erythrocyte distribution width [Entitic volume] by Automated count"
            }
          ],
          "text": "Erythrocyte distribution width [Entitic volume] by Automated count"
        },
        "valueQuantity": {
          "system": "http://unitsofmeasure.org",
          "value": 43.1,
          "unit": "fL",
          "code": "fL"
        },
        "referenceRange": [
          {
            "low": {
              "value": 36,
              "code": "fL",
              "system": "http://unitsofmeasure.org"
            }
          },
          {
            "high": {
              "value": 55,
              "code": "fL",
              "system": "http://unitsofmeasure.org"
            }
          }
        ],
        "text": {
          "status": "generated",
          "div": "<div xmlns=\"http://www.w3.org/1999/xhtml\"><table class=\"hl7__eu__lab__report\"><tr><th>Test</th><th>04-Oct-2015</th><th>Reference&#xA0;Range</th><th>Unit</th></tr><tr><td>Erythrocyte distribution width [Entitic volume] by Automated count</td><td>43.1</td><td>36 - 55</td><td></td><td>fL</td></tr></table></div>"
        },
        "status": "final",
        "subject": {
          "reference": "urn:uuid:8234311d-84c9-4ddb-8866-cc7597a62ec7",
          "display": "Helene Andresen"
        },
        "effectiveDateTime": "2015-10-03T22:53:36Z",
        "specimen": {
          "reference": "urn:uuid:9fc832f9-2516-42b4-b9a6-b76d250ed110"
        }
      }
    },
    {
      "fullUrl": "urn:uuid:e696bf2c-d215-4b58-b411-e46ead28eece",
      "resource": {
        "resourceType": "Observation",
        "id": "e696bf2c-d215-4b58-b411-e46ead28eece",
        "meta": {
          "profile": [
            "http://hl7.eu/fhir/laboratory/StructureDefinition/Observation-resultslab-eu-lab"
          ]
        },
        "performer": [
          {
            "display": "The Central European Lab"
          }
        ],
        "category": [
          {
            "coding": [
              {
                "system": "http://terminology.hl7.org/CodeSystem/observation-category",
                "code": "laboratory"
              }
            ]
          }
        ],
        "code": {
          "coding": [
            {
              "code": "777-3",
              "system": "http://loinc.org",
              "display": "Platelets [#/volume] in Blood by Automated count"
            }
          ],
          "text": "Platelets [#/volume] in Blood by Automated count"
        },
        "valueQuantity": {
          "system": "http://unitsofmeasure.org",
          "value": 273,
          "unit": "10*3/uL",
          "code": "10*3/uL"
        },
        "referenceRange": [
          {
            "low": {
              "value": 150,
              "code": "10*3/uL",
              "system": "http://unitsofmeasure.org"
            }
          },
          {
            "high": {
              "value": 450,
              "code": "10*3/uL",
              "system": "http://unitsofmeasure.org"
            }
          }
        ],
        "text": {
          "status": "generated",
          "div": "<div xmlns=\"http://www.w3.org/1999/xhtml\"><table class=\"hl7__eu__lab__report\"><tr><th>Test</th><th>04-Oct-2015</th><th>Reference&#xA0;Range</th><th>Unit</th></tr><tr><td>Platelets [#/volume] in Blood by Automated count</td><td>273.0</td><td>150 - 450</td><td></td><td>10*3/uL</td></tr></table></div>"
        },
        "status": "final",
        "subject": {
          "reference": "urn:uuid:8234311d-84c9-4ddb-8866-cc7597a62ec7",
          "display": "Helene Andresen"
        },
        "effectiveDateTime": "2015-10-03T22:53:36Z",
        "specimen": {
          "reference": "urn:uuid:9fc832f9-2516-42b4-b9a6-b76d250ed110"
        }
      }
    },
    {
      "fullUrl": "urn:uuid:58343bf7-ba14-46f6-9142-3a0465e52233",
      "resource": {
        "resourceType": "Observation",
        "id": "58343bf7-ba14-46f6-9142-3a0465e52233",
        "meta": {
          "profile": [
            "http://hl7.eu/fhir/laboratory/StructureDefinition/Observation-resultslab-eu-lab"
          ]
        },
        "performer": [
          {
            "display": "The Central European Lab"
          }
        ],
        "category": [
          {
            "coding": [
              {
                "system": "http://terminology.hl7.org/CodeSystem/observation-category",
                "code": "laboratory"
              }
            ]
          }
        ],
        "code": {
          "coding": [
            {
              "code": "32207-3",
              "system": "http://loinc.org",
              "display": "Platelet distribution width [Entitic volume] in Blood by Automated count"
            }
          ],
          "text": "Platelet distribution width [Entitic volume] in Blood by Automated count"
        },
        "valueQuantity": {
          "system": "http://unitsofmeasure.org",
          "value": 319.5,
          "unit": "fL",
          "code": "fL"
        },
        "referenceRange": [
          {
            "low": {
              "value": 11.6,
              "code": "fL",
              "system": "http://unitsofmeasure.org"
            }
          },
          {
            "high": {
              "value": 17.4,
              "code": "fL",
              "system": "http://unitsofmeasure.org"
            }
          }
        ],
        "interpretation": [
          {
            "coding": [
              {
                "code": "H",
                "system": "http://terminology.hl7.org/CodeSystem/v3-ObservationInterpretation",
                "display": "High"
              }
            ]
          }
        ],
        "text": {
          "status": "generated",
          "div": "<div xmlns=\"http://www.w3.org/1999/xhtml\"><table class=\"hl7__eu__lab__report\"><tr><th>Test</th><th>04-Oct-2015</th><th>Reference&#xA0;Range</th><th>Unit</th></tr><tr><td>Platelet distribution width [Entitic volume] in Blood by Automated count</td><td>319.5</td><td>11.6 - 17.4</td><td>H</td><td>fL</td></tr></table></div>"
        },
        "status": "final",
        "subject": {
          "reference": "urn:uuid:8234311d-84c9-4ddb-8866-cc7597a62ec7",
          "display": "Helene Andresen"
        },
        "effectiveDateTime": "2015-10-03T22:53:36Z",
        "specimen": {
          "reference": "urn:uuid:9fc832f9-2516-42b4-b9a6-b76d250ed110"
        }
      }
    },
    {
      "fullUrl": "urn:uuid:a05aee57-4d0f-411e-acb1-63ba786e0d0c",
      "resource": {
        "resourceType": "Observation",
        "id": "a05aee57-4d0f-411e-acb1-63ba786e0d0c",
        "meta": {
          "profile": [
            "http://hl7.eu/fhir/laboratory/StructureDefinition/Observation-resultslab-eu-lab"
          ]
        },
        "performer": [
          {
            "display": "The Central European Lab"
          }
        ],
        "category": [
          {
            "coding": [
              {
                "system": "http://terminology.hl7.org/CodeSystem/observation-category",
                "code": "laboratory"
              }
            ]
          }
        ],
        "code": {
          "coding": [
            {
              "code": "32623-1",
              "system": "http://loinc.org",
              "display": "Platelet mean volume [Entitic volume] in Blood by Automated count"
            }
          ],
          "text": "Platelet mean volume [Entitic volume] in Blood by Automated count"
        },
        "valueQuantity": {
          "system": "http://unitsofmeasure.org",
          "value": 11.8,
          "unit": "fL",
          "code": "fL"
        },
        "referenceRange": [
          {
            "low": {
              "value": 7.2,
              "code": "fL",
              "system": "http://unitsofmeasure.org"
            }
          },
          {
            "high": {
              "value": 13.5,
              "code": "fL",
              "system": "http://unitsofmeasure.org"
            }
          }
        ],
        "text": {
          "status": "generated",
          "div": "<div xmlns=\"http://www.w3.org/1999/xhtml\"><table class=\"hl7__eu__lab__report\"><tr><th>Test</th><th>04-Oct-2015</th><th>Reference&#xA0;Range</th><th>Unit</th></tr><tr><td>Platelet mean volume [Entitic volume] in Blood by Automated count</td><td>11.8</td><td>7.2 - 13.5</td><td></td><td>fL</td></tr></table></div>"
        },
        "status": "final",
        "subject": {
          "reference": "urn:uuid:8234311d-84c9-4ddb-8866-cc7597a62ec7",
          "display": "Helene Andresen"
        },
        "effectiveDateTime": "2015-10-03T22:53:36Z",
        "specimen": {
          "reference": "urn:uuid:9fc832f9-2516-42b4-b9a6-b76d250ed110"
        }
      }
    },
    {
      "fullUrl": "urn:uuid:5cfa4d18-34ce-4c3c-b31f-3eeab2eed257",
      "resource": {
        "resourceType": "Device",
        "id": "5cfa4d18-34ce-4c3c-b31f-3eeab2eed257",
        "deviceName": [
          {
            "name": "SYNDERAI Synthetic Generator",
            "type": "manufacturer-name"
          }
        ],
        "version": [
          {
            "value": "5.0"
          }
        ],
        "text": {
          "status": "generated",
          "div": "<div xmlns=\"http://www.w3.org/1999/xhtml\">SYNDERAI Synthetic Generator v5.0</div>"
        },
        "status": "active\"",
        "distinctIdentifier": "synderai-generator-50",
        "manufacturer": "SYNDERAI Project"
      }
    },
    {
      "fullUrl": "urn:uuid:4947cb77-f9f5-4992-8b39-dccc1fd36004",
      "resource": {
        "resourceType": "Provenance",
        "id": "4947cb77-f9f5-4992-8b39-dccc1fd36004",
        "target": [
          {
            "reference": "Patient/8234311d-84c9-4ddb-8866-cc7597a62ec7"
          },
          {
            "reference": "Bundle/f3cef485-2afc-4a76-9c89-144c4d5b440c"
          },
          {
            "reference": "Composition/36009877-db5f-4c31-842d-9e3ef65144ab"
          },
          {
            "reference": "PractitionerRole/be956427-cb6d-4925-bad6-f80d8c3a9aa0"
          },
          {
            "reference": "Practitioner/cf7d43d5-d2ea-41dd-b233-7dc111a262dd"
          },
          {
            "reference": "PractitionerRole/2fcecc5b-2b59-408a-9bd0-56e93ef4a706"
          },
          {
            "reference": "Organization/6c6373dd-ef34-4063-a19e-89908cf009e0"
          }
        ],
        "activity": {
          "text": "Synthetic Example Data Generation"
        },
        "policy": [
          "https://synderai.net/synderai-synthetic-data-policy"
        ],
        "agent": [
          {
            "type": {
              "text": "author"
            },
            "who": {
              "reference": "Device/5cfa4d18-34ce-4c3c-b31f-3eeab2eed257"
            }
          }
        ],
        "reason": [
          {
            "text": "Interoperability Testing and Training (non-clinical use)"
          }
        ],
        "text": {
          "status": "generated",
          "div": "<div xmlns=\"http://www.w3.org/1999/xhtml\">Provenance for SYNDERAI Synthetic Example Data Resource</div>"
        },
        "recorded": "2015-10-04T00:53:36Z"
      }
    },
    {
      "fullUrl": "urn:uuid:be956427-cb6d-4925-bad6-f80d8c3a9aa0",
      "resource": {
        "resourceType": "PractitionerRole",
        "id": "be956427-cb6d-4925-bad6-f80d8c3a9aa0",
        "meta": {
          "profile": [
            "http://hl7.eu/fhir/base/StructureDefinition/practitionerRole-eu"
          ]
        },
        "text": {
          "status": "generated",
          "div": "<div xmlns=\"http://www.w3.org/1999/xhtml\">Laboratory Role Id: be956427-cb6d-4925-bad6-f80d8c3a9aa0</div>"
        },
        "practitioner": {
          "reference": "urn:uuid:cf7d43d5-d2ea-41dd-b233-7dc111a262dd"
        }
      }
    },
    {
      "fullUrl": "urn:uuid:cf7d43d5-d2ea-41dd-b233-7dc111a262dd",
      "resource": {
        "resourceType": "Practitioner",
        "id": "cf7d43d5-d2ea-41dd-b233-7dc111a262dd",
        "meta": {
          "profile": [
            "http://hl7.eu/fhir/base/StructureDefinition/practitioner-eu"
          ]
        },
        "identifier": [
          {
            "assigner": {
              "display": "HL7 Europe"
            },
            "system": "urn:oid:2.16.840.1.113883.2.51.999",
            "value": "ade1b2e5-292a-4c77-8871-712f9ef9f679"
          }
        ],
        "name": [
          {
            "prefix": [
              "dr"
            ],
            "given": [
              "Ex"
            ],
            "family": "Ample"
          }
        ],
        "address": [
          {
            "line": [
              "Laboratoire Central Européenne",
              "Boulevard du Jardin Botanique 32"
            ],
            "postalCode": "1000",
            "city": "Brussels",
            "country": "Belgium"
          }
        ],
        "text": {
          "status": "generated",
          "div": "<div xmlns=\"http://www.w3.org/1999/xhtml\">Laboratory: Laboratoire Central Européenne, 1000 Brussels, Belgium</div>"
        }
      }
    }
  ],
  "type": "document",
  "timestamp": "2015-10-04T00:53:36Z"
}
