{
  "resourceType": "Bundle",
  "id": "14db6f39-54a4-4742-a107-197db505d68a",
  "meta": {
    "profile": [
      "http://hl7.eu/fhir/laboratory/StructureDefinition/Bundle-eu-lab"
    ]
  },
  "identifier": {
    "assigner": {
      "display": "HL7 Europe"
    },
    "system": "urn:oid:2.16.840.1.113883.2.51.999",
    "value": "776c9b70-a8b9-4ebb-8609-bd5d37e50160"
  },
  "entry": [
    {
      "fullUrl": "urn:uuid:40702a51-7388-4f4e-8786-16918ffb1927",
      "resource": {
        "resourceType": "Composition",
        "id": "40702a51-7388-4f4e-8786-16918ffb1927",
        "meta": {
          "profile": [
            "http://hl7.eu/fhir/laboratory/StructureDefinition/Composition-eu-lab"
          ]
        },
        "identifier": {
          "assigner": {
            "display": "HL7 Europe"
          },
          "system": "urn:oid:2.16.840.1.113883.2.51.999",
          "value": "4013ce2b-b6aa-4676-b54d-7f3df095f39c"
        },
        "author": [
          {
            "reference": "urn:uuid:111244bb-80ff-4845-8c1e-61049aab8b51"
          }
        ],
        "category": [
          {
            "coding": [
              {
                "code": "26436-6",
                "system": "http://loinc.org",
                "display": "Laboratory studies (set)"
              }
            ]
          }
        ],
        "type": {
          "coding": [
            {
              "code": "11502-2",
              "system": "http://loinc.org",
              "display": "Laboratory report"
            }
          ],
          "text": "Laboratory Report"
        },
        "section": [
          {
            "code": {
              "coding": [
                {
                  "code": "26436-6",
                  "system": "http://loinc.org",
                  "display": "Laboratory studies (set)"
                }
              ],
              "text": "Laboratory studies"
            },
            "section": [
              {
                "code": {
                  "coding": [
                    {
                      "code": "$18719-5",
                      "system": "http://loinc.org",
                      "display": "Chemistry studies (set)"
                    }
                  ],
                  "text": "Chemistry"
                },
                "entry": [
                  {
                    "reference": "urn:uuid:20921cbf-6b70-4bc3-82f9-ea9ec1b487c7"
                  },
                  {
                    "reference": "urn:uuid:ae34f28b-6bfa-47ee-8ee9-e61e39ddd2a0"
                  },
                  {
                    "reference": "urn:uuid:15034a4f-4573-4481-a137-04487c70715f"
                  },
                  {
                    "reference": "urn:uuid:af7663e9-f594-49b4-815f-2b55ba37d9cf"
                  },
                  {
                    "reference": "urn:uuid:97bd24e5-f53a-4c24-9696-7e294d7a9f31"
                  },
                  {
                    "reference": "urn:uuid:fd22e021-4d9c-472b-83f5-d851e3146fcf"
                  },
                  {
                    "reference": "urn:uuid:df33111c-b18f-41b6-bda5-6316564f2c1d"
                  },
                  {
                    "reference": "urn:uuid:528c5d3e-d0fa-4de4-8506-29652a56b6f8"
                  },
                  {
                    "reference": "urn:uuid:30554d3b-6efd-43ee-abc1-a2aa520bc385"
                  },
                  {
                    "reference": "urn:uuid:7b0c4669-e111-408d-97b4-4318b7f0389c"
                  }
                ],
                "text": {
                  "status": "generated",
                  "div": "<div xmlns=\"http://www.w3.org/1999/xhtml\"><h3>Chemistry</h3><table class=\"hl7__eu__lab__report\"><thead><tr><th>Test</th><th>01-JAN-2024</th><th>Reference&#xA0;Range</th><th>Unit</th></tr></thead><tbody><tr><td>Glucose [Mass/volume] in Serum or Plasma</td><td>85.2</td><td>70 - 99</td><td>mg/dL</td></tr><tr><td>Urea nitrogen [Mass/volume] in Serum or Plasma</td><td>10.5</td><td>7 - 50</td><td>mg/dL</td></tr><tr><td>Creatinine [Mass/volume] in Serum or Plasma</td><td><strong>2.1 H</strong></td><td>0.6 - 1.1</td><td>mg/dL</td></tr><tr><td>Calcium [Mass/volume] in Serum or Plasma</td><td>8.7</td><td>8.6 - 10.4</td><td>mg/dL</td></tr><tr><td>Sodium [Moles/volume] in Serum or Plasma</td><td>142.8</td><td>135 - 145</td><td>mmol/L</td></tr><tr><td>Potassium [Moles/volume] in Serum or Plasma</td><td>4.7</td><td>3.5 - 5.1</td><td>mmol/L</td></tr><tr><td>Chloride [Moles/volume] in Serum or Plasma</td><td>103.7</td><td>98 - 108</td><td>mmol/L</td></tr><tr><td>Carbon dioxide, total [Moles/volume] in Serum or Plasma</td><td>26.8</td><td>22 - 32</td><td>mmol/L</td></tr><tr><td>Ketones [Presence] in Urine by Test strip</td><td>Urine ketone test = ++</td><td></td><td></td></tr><tr><td>Hemoglobin A1c/Hemoglobin.total in Blood</td><td>4.0</td><td>4 - 6.4</td><td>%</td></tr></tbody></table></div>"
                },
                "title": "Chemistry"
              },
              {
                "code": {
                  "coding": [
                    {
                      "code": "$18729-4",
                      "system": "http://loinc.org",
                      "display": "Urinalysis studies (set)"
                    }
                  ],
                  "text": "Urinalysis"
                },
                "entry": [
                  {
                    "reference": "urn:uuid:9e8a82be-dfbd-4176-8348-d5c6848ba7aa"
                  },
                  {
                    "reference": "urn:uuid:1085afd7-348e-4e70-aa3d-6f2d9cff9f99"
                  },
                  {
                    "reference": "urn:uuid:bbbd1f55-93c8-4aec-8abb-c8ffe3ba88e4"
                  },
                  {
                    "reference": "urn:uuid:af30df76-5ec3-40bd-bd3b-9ae23ed8d02b"
                  },
                  {
                    "reference": "urn:uuid:784a69c7-3499-4525-ad32-f5d5356a7460"
                  },
                  {
                    "reference": "urn:uuid:8b30ce01-2783-4829-ac27-aa43156a5d46"
                  },
                  {
                    "reference": "urn:uuid:8b9ba398-a898-424f-bbe6-b947ff1f9660"
                  },
                  {
                    "reference": "urn:uuid:1b298f2e-d866-4bdf-80e5-f38735766f26"
                  },
                  {
                    "reference": "urn:uuid:84ab9207-71f5-4f12-ab56-8e02eba38aeb"
                  },
                  {
                    "reference": "urn:uuid:f6be5c94-f2f3-4607-9882-479bc4b56c8d"
                  },
                  {
                    "reference": "urn:uuid:5f2132e8-08dc-46ea-917e-d7fd2915dbec"
                  },
                  {
                    "reference": "urn:uuid:f32b0362-a63f-4faf-bb4f-17a19ce6b214"
                  }
                ],
                "text": {
                  "status": "generated",
                  "div": "<div xmlns=\"http://www.w3.org/1999/xhtml\"><h3>Urinalysis</h3><table class=\"hl7__eu__lab__report\"><thead><tr><th>Test</th><th>01-JAN-2024</th><th>Reference&#xA0;Range</th><th>Unit</th></tr></thead><tbody><tr><td>Glucose [Mass/volume] in Urine by Test strip</td><td><strong>1.0 H</strong></td><td>0.8 - 0</td><td>mg/dL</td></tr><tr><td>Glucose [Presence] in Urine by Test strip</td><td>++</td><td></td><td></td></tr><tr><td>Bilirubin.total [Mass/volume] in Urine by Test strip</td><td>1.0</td><td>0 - 1</td><td>mg/dL</td></tr><tr><td>Bilirubin.total [Presence] in Urine by Test strip</td><td>Finding of bilirubin in urine</td><td></td><td></td></tr><tr><td>Ketones [Mass/volume] in Urine by Test strip</td><td><strong>18.2 H</strong></td><td>0 - 4</td><td>mg/dL</td></tr><tr><td>Specific gravity of Urine by Test strip</td><td><strong>1.0 L</strong></td><td>1.005 - 1.03</td><td>{nominal}</td></tr><tr><td>pH of Urine by Test strip</td><td>5.7</td><td>4.6 - 7</td><td>pH</td></tr><tr><td>Protein [Mass/volume] in Urine by Test strip</td><td><strong>212.9 H</strong></td><td>0 - 14</td><td>mg/dL</td></tr><tr><td>Protein [Presence] in Urine by Test strip</td><td>Urine protein test = ++</td><td></td><td></td></tr><tr><td>Nitrite [Presence] in Urine by Test strip</td><td>Urine nitrite negative</td><td></td><td></td></tr><tr><td>Hemoglobin [Presence] in Urine by Test strip</td><td>Urine blood test = negative</td><td></td><td></td></tr><tr><td>Leukocyte esterase [Presence] in Urine by Test strip</td><td>Urine leukocyte test negative</td><td></td><td></td></tr></tbody></table></div>"
                },
                "title": "Urinalysis"
              },
              {
                "code": {
                  "coding": [
                    {
                      "code": "$LP7846-1",
                      "system": "http://loinc.org",
                      "display": "Specimen information"
                    }
                  ],
                  "text": "Specimen information"
                },
                "entry": [
                  {
                    "reference": "urn:uuid:9efdd239-27b9-4377-ad96-6e3d5b11d2bc"
                  },
                  {
                    "reference": "urn:uuid:255808c7-57a5-466d-abd9-8130324232e9"
                  },
                  {
                    "reference": "urn:uuid:0eac4e40-45d0-4241-a662-b938ee8fcf65"
                  },
                  {
                    "reference": "urn:uuid:9f2ef57b-8c3d-4169-a62a-e394e78104a6"
                  }
                ],
                "text": {
                  "status": "generated",
                  "div": "<div xmlns=\"http://www.w3.org/1999/xhtml\"><h3>Specimen information</h3><table class=\"hl7__eu__lab__report\"><thead><tr><th>Test</th><th>01-JAN-2024</th><th>Specimen</th><th></th></tr></thead><tbody><tr><td>Appearance of Urine</td><td>Cloudy urine</td><td>Urine</td><td></td></tr><tr><td>Odor of Urine</td><td>Urine smell ammoniacal</td><td>Urine</td><td></td></tr><tr><td>Clarity of Urine</td><td>Translucent</td><td>Urine</td><td></td></tr><tr><td>Color of Urine</td><td>Brown color</td><td>Urine</td><td></td></tr></tbody></table></div>"
                },
                "title": "Specimen information"
              }
            ],
            "title": "Laboratory Report"
          },
          {
            "text": {
              "status": "generated",
              "div": "<div xmlns=\"http://www.w3.org/1999/xhtml\"><h3>Annotation</h3><table class=\"hl7__eu__lab__report\"><tr><th>Conclusion and Recommendations based on this report and previous findings known to us</th></tr><tr><td>The patient shows elevated serum creatinine, indicating impaired renal function. Urinalysis reveals significant proteinuria, glucosuria, and ketonuria, with low specific gravity and abnormal urine appearance (cloudy, brown, ammoniacal odor), but no evidence of infection (negative nitrites/leukocytes). Blood glucose and HbA1c are normal, suggesting non-diabetic glucosuria. Findings are consistent with possible acute or chronic kidney disease with tubular dysfunction; further nephrological evaluation is recommended.</td></tr></table></div>"
            },
            "code": {
              "coding": [
                {
                  "system": "http://loinc.org",
                  "code": "48767-8",
                  "display": "Annotation comment"
                }
              ]
            },
            "title": "Annotation comment"
          }
        ],
        "status": "final",
        "subject": {
          "reference": "urn:uuid:02c88e3b-9ead-4dfa-9ff3-d061d01aa586",
          "display": "Meaghan Neary"
        },
        "date": "2024-01-01T23:11:04Z",
        "title": "Laboratory Report",
        "confidentiality": "N"
      }
    },
    {
      "fullUrl": "urn:uuid:beb55898-51b8-402f-9536-0258eab898e3",
      "resource": {
        "resourceType": "DiagnosticReport",
        "id": "beb55898-51b8-402f-9536-0258eab898e3",
        "meta": {
          "profile": [
            "http://hl7.eu/fhir/laboratory/StructureDefinition/DiagnosticReport-eu-lab"
          ]
        },
        "identifier": [
          {
            "assigner": {
              "display": "HL7 Europe"
            },
            "system": "urn:oid:2.16.840.1.113883.2.51.999",
            "value": "6d40ae13-f918-4423-9bc1-de88c201f2f8"
          }
        ],
        "extension": [
          {
            "url": "http://hl7.org/fhir/5.0/StructureDefinition/extension-DiagnosticReport.composition",
            "valueReference": {
              "reference": "urn:uuid:4013ce2b-b6aa-4676-b54d-7f3df095f39c"
            }
          }
        ],
        "category": [
          {
            "coding": [
              {
                "code": "26436-6",
                "system": "http://loinc.org",
                "display": "Laboratory studies (set)"
              }
            ]
          }
        ],
        "specimen": [
          {
            "reference": "urn:uuid:f86ac678-5ec5-4e08-b390-9b5145d3dfe3"
          },
          {
            "reference": "urn:uuid:676f9e2c-b59e-437f-9e96-c1d364e0fcfc"
          },
          {
            "reference": "urn:uuid:d660c1ed-5fad-40d2-9ed1-8994786c677a"
          }
        ],
        "result": [
          {
            "reference": "urn:uuid:20921cbf-6b70-4bc3-82f9-ea9ec1b487c7"
          },
          {
            "reference": "urn:uuid:ae34f28b-6bfa-47ee-8ee9-e61e39ddd2a0"
          },
          {
            "reference": "urn:uuid:15034a4f-4573-4481-a137-04487c70715f"
          },
          {
            "reference": "urn:uuid:af7663e9-f594-49b4-815f-2b55ba37d9cf"
          },
          {
            "reference": "urn:uuid:97bd24e5-f53a-4c24-9696-7e294d7a9f31"
          },
          {
            "reference": "urn:uuid:fd22e021-4d9c-472b-83f5-d851e3146fcf"
          },
          {
            "reference": "urn:uuid:df33111c-b18f-41b6-bda5-6316564f2c1d"
          },
          {
            "reference": "urn:uuid:528c5d3e-d0fa-4de4-8506-29652a56b6f8"
          },
          {
            "reference": "urn:uuid:9efdd239-27b9-4377-ad96-6e3d5b11d2bc"
          },
          {
            "reference": "urn:uuid:255808c7-57a5-466d-abd9-8130324232e9"
          },
          {
            "reference": "urn:uuid:0eac4e40-45d0-4241-a662-b938ee8fcf65"
          },
          {
            "reference": "urn:uuid:9f2ef57b-8c3d-4169-a62a-e394e78104a6"
          },
          {
            "reference": "urn:uuid:9e8a82be-dfbd-4176-8348-d5c6848ba7aa"
          },
          {
            "reference": "urn:uuid:1085afd7-348e-4e70-aa3d-6f2d9cff9f99"
          },
          {
            "reference": "urn:uuid:bbbd1f55-93c8-4aec-8abb-c8ffe3ba88e4"
          },
          {
            "reference": "urn:uuid:af30df76-5ec3-40bd-bd3b-9ae23ed8d02b"
          },
          {
            "reference": "urn:uuid:784a69c7-3499-4525-ad32-f5d5356a7460"
          },
          {
            "reference": "urn:uuid:30554d3b-6efd-43ee-abc1-a2aa520bc385"
          },
          {
            "reference": "urn:uuid:8b30ce01-2783-4829-ac27-aa43156a5d46"
          },
          {
            "reference": "urn:uuid:8b9ba398-a898-424f-bbe6-b947ff1f9660"
          },
          {
            "reference": "urn:uuid:1b298f2e-d866-4bdf-80e5-f38735766f26"
          },
          {
            "reference": "urn:uuid:84ab9207-71f5-4f12-ab56-8e02eba38aeb"
          },
          {
            "reference": "urn:uuid:f6be5c94-f2f3-4607-9882-479bc4b56c8d"
          },
          {
            "reference": "urn:uuid:5f2132e8-08dc-46ea-917e-d7fd2915dbec"
          },
          {
            "reference": "urn:uuid:f32b0362-a63f-4faf-bb4f-17a19ce6b214"
          },
          {
            "reference": "urn:uuid:7b0c4669-e111-408d-97b4-4318b7f0389c"
          }
        ],
        "status": "registered",
        "code": {
          "coding": [
            {
              "code": "11502-2",
              "system": "http://loinc.org",
              "display": "Laboratory report"
            }
          ]
        },
        "subject": {
          "reference": "urn:uuid:02c88e3b-9ead-4dfa-9ff3-d061d01aa586",
          "display": "Meaghan Neary"
        }
      }
    },
    {
      "fullUrl": "urn:uuid:02c88e3b-9ead-4dfa-9ff3-d061d01aa586",
      "resource": {
        "resourceType": "Patient",
        "id": "02c88e3b-9ead-4dfa-9ff3-d061d01aa586",
        "meta": {
          "security": [
            {
              "system": "http://terminology.hl7.org/CodeSystem/v3-ActReason",
              "code": "HTEST"
            },
            {
              "system": "http://terminology.hl7.org/CodeSystem/v3-ActReason",
              "code": "TRAIN"
            }
          ],
          "tag": [
            {
              "system": "https://synderai.net/fhir/CodeSystem/tags",
              "code": "synthetic",
              "display": "SYNDERAI Synthetic data"
            }
          ],
          "profile": [
            "http://hl7.eu/fhir/base/StructureDefinition/patient-eu-core"
          ]
        },
        "identifier": [
          {
            "type": {
              "coding": [
                {
                  "code": "PT",
                  "system": "http://terminology.hl7.org/CodeSystem/v2-0203"
                }
              ]
            },
            "system": "http://ec.europa.eu/identifier/eci",
            "value": "1586-567257-8"
          },
          {
            "type": {
              "coding": [
                {
                  "code": "MR",
                  "system": "http://terminology.hl7.org/CodeSystem/v2-0203"
                }
              ]
            },
            "system": "http://local.setting.eu/identifier",
            "value": "443e6379-f231-b364-3ccb-644740a1aa2a"
          }
        ],
        "name": [
          {
            "family": "Neary"
          },
          {
            "given": [
              "Meaghan"
            ]
          },
          {
            "text": "Meaghan Neary"
          }
        ],
        "address": [
          {
            "line": [
              "64 Linskey Street"
            ],
            "use": "home",
            "type": "physical",
            "postalCode": "D02",
            "city": "Dublin",
            "country": "Ireland"
          }
        ],
        "telecom": [
          {
            "system": "phone",
            "value": "001-967-573-0911x465"
          }
        ],
        "extension": [
          {
            "url": "http://hl7.org/fhir/StructureDefinition/patient-nationality",
            "valueCodeableConcept": {
              "coding": [
                {
                  "code": "IE",
                  "system": "http://hl7.org/fhir/ValueSet/country"
                }
              ]
            }
          }
        ],
        "text": {
          "status": "generated",
          "div": "<div xmlns=\"http://www.w3.org/1999/xhtml\"><table class=\"hl7__ips\"><tr><td>Meaghan Neary</td><td>female</td><td>19-Dec-1960</td></tr></table></div>"
        },
        "gender": "female",
        "birthDate": "1960-12-19"
      }
    },
    {
      "fullUrl": "urn:uuid:275dd6b1-01e7-46b5-b451-92af01fe86ca",
      "resource": {
        "resourceType": "ServiceRequest",
        "id": "275dd6b1-01e7-46b5-b451-92af01fe86ca",
        "meta": {
          "profile": [
            "http://hl7.eu/fhir/laboratory/StructureDefinition/ServiceRequest-eu-lab"
          ]
        },
        "identifier": [
          {
            "system": "http://example.org",
            "value": "6a35c205-9c49-4e30-ac37-53d8c61861c8"
          }
        ],
        "specimen": [
          {
            "reference": "urn:uuid:f86ac678-5ec5-4e08-b390-9b5145d3dfe3"
          },
          {
            "reference": "urn:uuid:676f9e2c-b59e-437f-9e96-c1d364e0fcfc"
          },
          {
            "reference": "urn:uuid:d660c1ed-5fad-40d2-9ed1-8994786c677a"
          }
        ],
        "reasonCode": [
          {
            "coding": [
              {
                "code": "55822004",
                "system": "http://snomed.info/sct",
                "display": "Hyperlipidemia"
              }
            ]
          },
          {
            "coding": [
              {
                "code": "433144002",
                "system": "http://snomed.info/sct",
                "display": "Chronic kidney disease stage 3"
              }
            ]
          },
          {
            "coding": [
              {
                "code": "157141000119108",
                "system": "http://snomed.info/sct",
                "display": "Proteinuria due to type 2 diabetes mellitus"
              }
            ]
          },
          {
            "coding": [
              {
                "code": "431856006",
                "system": "http://snomed.info/sct",
                "display": "Chronic kidney disease stage 2"
              }
            ]
          },
          {
            "coding": [
              {
                "code": "90781000119102",
                "system": "http://snomed.info/sct",
                "display": "Microalbuminuria due to type 2 diabetes mellitus"
              }
            ]
          },
          {
            "coding": [
              {
                "code": "127013003",
                "system": "http://snomed.info/sct",
                "display": "Disorder of kidney due to diabetes mellitus"
              }
            ]
          },
          {
            "coding": [
              {
                "code": "431855005",
                "system": "http://snomed.info/sct",
                "display": "Chronic kidney disease stage 1"
              }
            ]
          },
          {
            "coding": [
              {
                "code": "237602007",
                "system": "http://snomed.info/sct",
                "display": "Metabolic syndrome X"
              }
            ]
          },
          {
            "coding": [
              {
                "code": "271737000",
                "system": "http://snomed.info/sct",
                "display": "Anemia"
              }
            ]
          },
          {
            "coding": [
              {
                "code": "15777000",
                "system": "http://snomed.info/sct",
                "display": "Prediabetes"
              }
            ]
          },
          {
            "coding": [
              {
                "code": "59621000",
                "system": "http://snomed.info/sct",
                "display": "Essential hypertension"
              }
            ]
          }
        ],
        "status": "active",
        "intent": "order",
        "code": {
          "coding": [
            {
              "code": "108252007",
              "system": "http://snomed.info/sct",
              "display": "Laboratory procedure"
            }
          ]
        },
        "subject": {
          "reference": "urn:uuid:02c88e3b-9ead-4dfa-9ff3-d061d01aa586",
          "display": "Meaghan Neary"
        },
        "requester": {
          "reference": "urn:uuid:aac83333-6aaa-4cbc-b66f-6f8ba3764f71"
        }
      }
    },
    {
      "fullUrl": "urn:uuid:aac83333-6aaa-4cbc-b66f-6f8ba3764f71",
      "resource": {
        "resourceType": "PractitionerRole",
        "id": "aac83333-6aaa-4cbc-b66f-6f8ba3764f71",
        "meta": {
          "profile": [
            "http://hl7.eu/fhir/base/StructureDefinition/practitionerRole-eu"
          ]
        },
        "text": {
          "status": "generated",
          "div": "<div xmlns=\"http://www.w3.org/1999/xhtml\">Provider Role Id: aac83333-6aaa-4cbc-b66f-6f8ba3764f71</div>"
        },
        "organization": {
          "reference": "urn:uuid:6514420c-54a1-4892-a73b-f6a60ea77be4"
        }
      }
    },
    {
      "fullUrl": "urn:uuid:6514420c-54a1-4892-a73b-f6a60ea77be4",
      "resource": {
        "resourceType": "Organization",
        "id": "6514420c-54a1-4892-a73b-f6a60ea77be4",
        "meta": {
          "profile": [
            "http://hl7.eu/fhir/base/StructureDefinition/organization-eu"
          ]
        },
        "identifier": [
          {
            "assigner": {
              "display": "HL7 Europe"
            },
            "system": "urn:oid:2.16.840.1.113883.2.51.999",
            "value": "5c39e49b-c59c-472e-a793-eba30fed39b8"
          }
        ],
        "address": [
          {
            "line": [
              "Parnell Square West nan"
            ],
            "city": "Dublin",
            "postalCode": "D01",
            "country": "Ireland"
          }
        ],
        "text": {
          "status": "generated",
          "div": "<div xmlns=\"http://www.w3.org/1999/xhtml\">Provider Organization: Rotunda Hospital</div>"
        },
        "name": "Rotunda Hospital"
      }
    },
    {
      "fullUrl": "urn:uuid:f86ac678-5ec5-4e08-b390-9b5145d3dfe3",
      "resource": {
        "resourceType": "Specimen",
        "id": "f86ac678-5ec5-4e08-b390-9b5145d3dfe3",
        "meta": {
          "profile": [
            "http://hl7.eu/fhir/laboratory/StructureDefinition/Specimen-eu-lab"
          ]
        },
        "collection": {
          "collectedDateTime": "2024-01-01"
        },
        "text": {
          "status": "generated",
          "div": "<div xmlns=\"http://www.w3.org/1999/xhtml\"><table class=\"hl7__eu__lab__report\"><tr><th>Specimen</th><th>Collection Date</th></tr><tr><td>Acellular blood (serum or plasma) specimen</td><td><span class=\"nb\">01-Jan-2024</span></td></tr></table></div>"
        },
        "type": {
          "coding": [
            {
              "code": "122592007",
              "system": "http://snomed.info/sct",
              "display": "Acellular blood (serum or plasma) specimen"
            }
          ]
        }
      }
    },
    {
      "fullUrl": "urn:uuid:676f9e2c-b59e-437f-9e96-c1d364e0fcfc",
      "resource": {
        "resourceType": "Specimen",
        "id": "676f9e2c-b59e-437f-9e96-c1d364e0fcfc",
        "meta": {
          "profile": [
            "http://hl7.eu/fhir/laboratory/StructureDefinition/Specimen-eu-lab"
          ]
        },
        "collection": {
          "collectedDateTime": "2024-01-01"
        },
        "text": {
          "status": "generated",
          "div": "<div xmlns=\"http://www.w3.org/1999/xhtml\"><table class=\"hl7__eu__lab__report\"><tr><th>Specimen</th><th>Collection Date</th></tr><tr><td>Urine specimen</td><td><span class=\"nb\">01-Jan-2024</span></td></tr></table></div>"
        },
        "type": {
          "coding": [
            {
              "code": "122575003",
              "system": "http://snomed.info/sct",
              "display": "Urine specimen"
            }
          ]
        }
      }
    },
    {
      "fullUrl": "urn:uuid:d660c1ed-5fad-40d2-9ed1-8994786c677a",
      "resource": {
        "resourceType": "Specimen",
        "id": "d660c1ed-5fad-40d2-9ed1-8994786c677a",
        "meta": {
          "profile": [
            "http://hl7.eu/fhir/laboratory/StructureDefinition/Specimen-eu-lab"
          ]
        },
        "collection": {
          "collectedDateTime": "2024-01-01"
        },
        "text": {
          "status": "generated",
          "div": "<div xmlns=\"http://www.w3.org/1999/xhtml\"><table class=\"hl7__eu__lab__report\"><tr><th>Specimen</th><th>Collection Date</th></tr><tr><td>Whole blood specimen (specimen)</td><td><span class=\"nb\">01-Jan-2024</span></td></tr></table></div>"
        },
        "type": {
          "coding": [
            {
              "code": "258580003",
              "system": "http://snomed.info/sct",
              "display": "Whole blood specimen (specimen)"
            }
          ]
        }
      }
    },
    {
      "fullUrl": "urn:uuid:20921cbf-6b70-4bc3-82f9-ea9ec1b487c7",
      "resource": {
        "resourceType": "Observation",
        "id": "20921cbf-6b70-4bc3-82f9-ea9ec1b487c7",
        "meta": {
          "profile": [
            "http://hl7.eu/fhir/laboratory/StructureDefinition/Observation-resultslab-eu-lab"
          ]
        },
        "performer": [
          {
            "display": "The Central European Lab"
          }
        ],
        "category": [
          {
            "coding": [
              {
                "system": "http://terminology.hl7.org/CodeSystem/observation-category",
                "code": "laboratory"
              }
            ]
          }
        ],
        "code": {
          "coding": [
            {
              "code": "2345-7",
              "system": "http://loinc.org",
              "display": "Glucose [Mass/volume] in Serum or Plasma"
            }
          ],
          "text": "Glucose [Mass/volume] in Serum or Plasma"
        },
        "valueQuantity": {
          "system": "http://unitsofmeasure.org",
          "value": 85.2,
          "unit": "mg/dL",
          "code": "mg/dL"
        },
        "referenceRange": [
          {
            "low": {
              "value": 70,
              "code": "mg/dL",
              "system": "http://unitsofmeasure.org"
            }
          },
          {
            "high": {
              "value": 99,
              "code": "mg/dL",
              "system": "http://unitsofmeasure.org"
            }
          }
        ],
        "text": {
          "status": "generated",
          "div": "<div xmlns=\"http://www.w3.org/1999/xhtml\"><table class=\"hl7__eu__lab__report\"><tr><th>Test</th><th>01-Jan-2024</th><th>Reference&#xA0;Range</th><th>Unit</th></tr><tr><td>Glucose [Mass/volume] in Serum or Plasma</td><td>85.2</td><td>70 - 99</td><td></td><td>mg/dL</td></tr></table></div>"
        },
        "status": "final",
        "subject": {
          "reference": "urn:uuid:02c88e3b-9ead-4dfa-9ff3-d061d01aa586",
          "display": "Meaghan Neary"
        },
        "effectiveDateTime": "2024-01-01T22:11:04Z",
        "specimen": {
          "reference": "urn:uuid:f86ac678-5ec5-4e08-b390-9b5145d3dfe3"
        }
      }
    },
    {
      "fullUrl": "urn:uuid:ae34f28b-6bfa-47ee-8ee9-e61e39ddd2a0",
      "resource": {
        "resourceType": "Observation",
        "id": "ae34f28b-6bfa-47ee-8ee9-e61e39ddd2a0",
        "meta": {
          "profile": [
            "http://hl7.eu/fhir/laboratory/StructureDefinition/Observation-resultslab-eu-lab"
          ]
        },
        "performer": [
          {
            "display": "The Central European Lab"
          }
        ],
        "category": [
          {
            "coding": [
              {
                "system": "http://terminology.hl7.org/CodeSystem/observation-category",
                "code": "laboratory"
              }
            ]
          }
        ],
        "code": {
          "coding": [
            {
              "code": "3094-0",
              "system": "http://loinc.org",
              "display": "Urea nitrogen [Mass/volume] in Serum or Plasma"
            }
          ],
          "text": "Urea nitrogen [Mass/volume] in Serum or Plasma"
        },
        "valueQuantity": {
          "system": "http://unitsofmeasure.org",
          "value": 10.5,
          "unit": "mg/dL",
          "code": "mg/dL"
        },
        "referenceRange": [
          {
            "low": {
              "value": 7,
              "code": "mg/dL",
              "system": "http://unitsofmeasure.org"
            }
          },
          {
            "high": {
              "value": 50,
              "code": "mg/dL",
              "system": "http://unitsofmeasure.org"
            }
          }
        ],
        "text": {
          "status": "generated",
          "div": "<div xmlns=\"http://www.w3.org/1999/xhtml\"><table class=\"hl7__eu__lab__report\"><tr><th>Test</th><th>01-Jan-2024</th><th>Reference&#xA0;Range</th><th>Unit</th></tr><tr><td>Urea nitrogen [Mass/volume] in Serum or Plasma</td><td>10.5</td><td>7 - 50</td><td></td><td>mg/dL</td></tr></table></div>"
        },
        "status": "final",
        "subject": {
          "reference": "urn:uuid:02c88e3b-9ead-4dfa-9ff3-d061d01aa586",
          "display": "Meaghan Neary"
        },
        "effectiveDateTime": "2024-01-01T22:11:04Z",
        "specimen": {
          "reference": "urn:uuid:f86ac678-5ec5-4e08-b390-9b5145d3dfe3"
        }
      }
    },
    {
      "fullUrl": "urn:uuid:15034a4f-4573-4481-a137-04487c70715f",
      "resource": {
        "resourceType": "Observation",
        "id": "15034a4f-4573-4481-a137-04487c70715f",
        "meta": {
          "profile": [
            "http://hl7.eu/fhir/laboratory/StructureDefinition/Observation-resultslab-eu-lab"
          ]
        },
        "performer": [
          {
            "display": "The Central European Lab"
          }
        ],
        "category": [
          {
            "coding": [
              {
                "system": "http://terminology.hl7.org/CodeSystem/observation-category",
                "code": "laboratory"
              }
            ]
          }
        ],
        "code": {
          "coding": [
            {
              "code": "2160-0",
              "system": "http://loinc.org",
              "display": "Creatinine [Mass/volume] in Serum or Plasma"
            }
          ],
          "text": "Creatinine [Mass/volume] in Serum or Plasma"
        },
        "valueQuantity": {
          "system": "http://unitsofmeasure.org",
          "value": 2.1,
          "unit": "mg/dL",
          "code": "mg/dL"
        },
        "referenceRange": [
          {
            "low": {
              "value": 0.6,
              "code": "mg/dL",
              "system": "http://unitsofmeasure.org"
            }
          },
          {
            "high": {
              "value": 1.1,
              "code": "mg/dL",
              "system": "http://unitsofmeasure.org"
            }
          }
        ],
        "interpretation": [
          {
            "coding": [
              {
                "code": "H",
                "system": "http://terminology.hl7.org/CodeSystem/v3-ObservationInterpretation",
                "display": "High"
              }
            ]
          }
        ],
        "text": {
          "status": "generated",
          "div": "<div xmlns=\"http://www.w3.org/1999/xhtml\"><table class=\"hl7__eu__lab__report\"><tr><th>Test</th><th>01-Jan-2024</th><th>Reference&#xA0;Range</th><th>Unit</th></tr><tr><td>Creatinine [Mass/volume] in Serum or Plasma</td><td>2.1</td><td>0.6 - 1.1</td><td>H</td><td>mg/dL</td></tr></table></div>"
        },
        "status": "final",
        "subject": {
          "reference": "urn:uuid:02c88e3b-9ead-4dfa-9ff3-d061d01aa586",
          "display": "Meaghan Neary"
        },
        "effectiveDateTime": "2024-01-01T22:11:04Z",
        "specimen": {
          "reference": "urn:uuid:f86ac678-5ec5-4e08-b390-9b5145d3dfe3"
        }
      }
    },
    {
      "fullUrl": "urn:uuid:af7663e9-f594-49b4-815f-2b55ba37d9cf",
      "resource": {
        "resourceType": "Observation",
        "id": "af7663e9-f594-49b4-815f-2b55ba37d9cf",
        "meta": {
          "profile": [
            "http://hl7.eu/fhir/laboratory/StructureDefinition/Observation-resultslab-eu-lab"
          ]
        },
        "performer": [
          {
            "display": "The Central European Lab"
          }
        ],
        "category": [
          {
            "coding": [
              {
                "system": "http://terminology.hl7.org/CodeSystem/observation-category",
                "code": "laboratory"
              }
            ]
          }
        ],
        "code": {
          "coding": [
            {
              "code": "17861-6",
              "system": "http://loinc.org",
              "display": "Calcium [Mass/volume] in Serum or Plasma"
            }
          ],
          "text": "Calcium [Mass/volume] in Serum or Plasma"
        },
        "valueQuantity": {
          "system": "http://unitsofmeasure.org",
          "value": 8.7,
          "unit": "mg/dL",
          "code": "mg/dL"
        },
        "referenceRange": [
          {
            "low": {
              "value": 8.6,
              "code": "mg/dL",
              "system": "http://unitsofmeasure.org"
            }
          },
          {
            "high": {
              "value": 10.4,
              "code": "mg/dL",
              "system": "http://unitsofmeasure.org"
            }
          }
        ],
        "text": {
          "status": "generated",
          "div": "<div xmlns=\"http://www.w3.org/1999/xhtml\"><table class=\"hl7__eu__lab__report\"><tr><th>Test</th><th>01-Jan-2024</th><th>Reference&#xA0;Range</th><th>Unit</th></tr><tr><td>Calcium [Mass/volume] in Serum or Plasma</td><td>8.7</td><td>8.6 - 10.4</td><td></td><td>mg/dL</td></tr></table></div>"
        },
        "status": "final",
        "subject": {
          "reference": "urn:uuid:02c88e3b-9ead-4dfa-9ff3-d061d01aa586",
          "display": "Meaghan Neary"
        },
        "effectiveDateTime": "2024-01-01T22:11:04Z",
        "specimen": {
          "reference": "urn:uuid:f86ac678-5ec5-4e08-b390-9b5145d3dfe3"
        }
      }
    },
    {
      "fullUrl": "urn:uuid:97bd24e5-f53a-4c24-9696-7e294d7a9f31",
      "resource": {
        "resourceType": "Observation",
        "id": "97bd24e5-f53a-4c24-9696-7e294d7a9f31",
        "meta": {
          "profile": [
            "http://hl7.eu/fhir/laboratory/StructureDefinition/Observation-resultslab-eu-lab"
          ]
        },
        "performer": [
          {
            "display": "The Central European Lab"
          }
        ],
        "category": [
          {
            "coding": [
              {
                "system": "http://terminology.hl7.org/CodeSystem/observation-category",
                "code": "laboratory"
              }
            ]
          }
        ],
        "code": {
          "coding": [
            {
              "code": "2951-2",
              "system": "http://loinc.org",
              "display": "Sodium [Moles/volume] in Serum or Plasma"
            }
          ],
          "text": "Sodium [Moles/volume] in Serum or Plasma"
        },
        "valueQuantity": {
          "system": "http://unitsofmeasure.org",
          "value": 142.8,
          "unit": "mmol/L",
          "code": "mmol/L"
        },
        "referenceRange": [
          {
            "low": {
              "value": 135,
              "code": "mmol/L",
              "system": "http://unitsofmeasure.org"
            }
          },
          {
            "high": {
              "value": 145,
              "code": "mmol/L",
              "system": "http://unitsofmeasure.org"
            }
          }
        ],
        "text": {
          "status": "generated",
          "div": "<div xmlns=\"http://www.w3.org/1999/xhtml\"><table class=\"hl7__eu__lab__report\"><tr><th>Test</th><th>01-Jan-2024</th><th>Reference&#xA0;Range</th><th>Unit</th></tr><tr><td>Sodium [Moles/volume] in Serum or Plasma</td><td>142.8</td><td>135 - 145</td><td></td><td>mmol/L</td></tr></table></div>"
        },
        "status": "final",
        "subject": {
          "reference": "urn:uuid:02c88e3b-9ead-4dfa-9ff3-d061d01aa586",
          "display": "Meaghan Neary"
        },
        "effectiveDateTime": "2024-01-01T22:11:04Z",
        "specimen": {
          "reference": "urn:uuid:f86ac678-5ec5-4e08-b390-9b5145d3dfe3"
        }
      }
    },
    {
      "fullUrl": "urn:uuid:fd22e021-4d9c-472b-83f5-d851e3146fcf",
      "resource": {
        "resourceType": "Observation",
        "id": "fd22e021-4d9c-472b-83f5-d851e3146fcf",
        "meta": {
          "profile": [
            "http://hl7.eu/fhir/laboratory/StructureDefinition/Observation-resultslab-eu-lab"
          ]
        },
        "performer": [
          {
            "display": "The Central European Lab"
          }
        ],
        "category": [
          {
            "coding": [
              {
                "system": "http://terminology.hl7.org/CodeSystem/observation-category",
                "code": "laboratory"
              }
            ]
          }
        ],
        "code": {
          "coding": [
            {
              "code": "2823-3",
              "system": "http://loinc.org",
              "display": "Potassium [Moles/volume] in Serum or Plasma"
            }
          ],
          "text": "Potassium [Moles/volume] in Serum or Plasma"
        },
        "valueQuantity": {
          "system": "http://unitsofmeasure.org",
          "value": 4.7,
          "unit": "mmol/L",
          "code": "mmol/L"
        },
        "referenceRange": [
          {
            "low": {
              "value": 3.5,
              "code": "mmol/L",
              "system": "http://unitsofmeasure.org"
            }
          },
          {
            "high": {
              "value": 5.1,
              "code": "mmol/L",
              "system": "http://unitsofmeasure.org"
            }
          }
        ],
        "text": {
          "status": "generated",
          "div": "<div xmlns=\"http://www.w3.org/1999/xhtml\"><table class=\"hl7__eu__lab__report\"><tr><th>Test</th><th>01-Jan-2024</th><th>Reference&#xA0;Range</th><th>Unit</th></tr><tr><td>Potassium [Moles/volume] in Serum or Plasma</td><td>4.7</td><td>3.5 - 5.1</td><td></td><td>mmol/L</td></tr></table></div>"
        },
        "status": "final",
        "subject": {
          "reference": "urn:uuid:02c88e3b-9ead-4dfa-9ff3-d061d01aa586",
          "display": "Meaghan Neary"
        },
        "effectiveDateTime": "2024-01-01T22:11:04Z",
        "specimen": {
          "reference": "urn:uuid:f86ac678-5ec5-4e08-b390-9b5145d3dfe3"
        }
      }
    },
    {
      "fullUrl": "urn:uuid:df33111c-b18f-41b6-bda5-6316564f2c1d",
      "resource": {
        "resourceType": "Observation",
        "id": "df33111c-b18f-41b6-bda5-6316564f2c1d",
        "meta": {
          "profile": [
            "http://hl7.eu/fhir/laboratory/StructureDefinition/Observation-resultslab-eu-lab"
          ]
        },
        "performer": [
          {
            "display": "The Central European Lab"
          }
        ],
        "category": [
          {
            "coding": [
              {
                "system": "http://terminology.hl7.org/CodeSystem/observation-category",
                "code": "laboratory"
              }
            ]
          }
        ],
        "code": {
          "coding": [
            {
              "code": "2075-0",
              "system": "http://loinc.org",
              "display": "Chloride [Moles/volume] in Serum or Plasma"
            }
          ],
          "text": "Chloride [Moles/volume] in Serum or Plasma"
        },
        "valueQuantity": {
          "system": "http://unitsofmeasure.org",
          "value": 103.7,
          "unit": "mmol/L",
          "code": "mmol/L"
        },
        "referenceRange": [
          {
            "low": {
              "value": 98,
              "code": "mmol/L",
              "system": "http://unitsofmeasure.org"
            }
          },
          {
            "high": {
              "value": 108,
              "code": "mmol/L",
              "system": "http://unitsofmeasure.org"
            }
          }
        ],
        "text": {
          "status": "generated",
          "div": "<div xmlns=\"http://www.w3.org/1999/xhtml\"><table class=\"hl7__eu__lab__report\"><tr><th>Test</th><th>01-Jan-2024</th><th>Reference&#xA0;Range</th><th>Unit</th></tr><tr><td>Chloride [Moles/volume] in Serum or Plasma</td><td>103.7</td><td>98 - 108</td><td></td><td>mmol/L</td></tr></table></div>"
        },
        "status": "final",
        "subject": {
          "reference": "urn:uuid:02c88e3b-9ead-4dfa-9ff3-d061d01aa586",
          "display": "Meaghan Neary"
        },
        "effectiveDateTime": "2024-01-01T22:11:04Z",
        "specimen": {
          "reference": "urn:uuid:f86ac678-5ec5-4e08-b390-9b5145d3dfe3"
        }
      }
    },
    {
      "fullUrl": "urn:uuid:528c5d3e-d0fa-4de4-8506-29652a56b6f8",
      "resource": {
        "resourceType": "Observation",
        "id": "528c5d3e-d0fa-4de4-8506-29652a56b6f8",
        "meta": {
          "profile": [
            "http://hl7.eu/fhir/laboratory/StructureDefinition/Observation-resultslab-eu-lab"
          ]
        },
        "performer": [
          {
            "display": "The Central European Lab"
          }
        ],
        "category": [
          {
            "coding": [
              {
                "system": "http://terminology.hl7.org/CodeSystem/observation-category",
                "code": "laboratory"
              }
            ]
          }
        ],
        "code": {
          "coding": [
            {
              "code": "2028-9",
              "system": "http://loinc.org",
              "display": "Carbon dioxide, total [Moles/volume] in Serum or Plasma"
            }
          ],
          "text": "Carbon dioxide, total [Moles/volume] in Serum or Plasma"
        },
        "valueQuantity": {
          "system": "http://unitsofmeasure.org",
          "value": 26.8,
          "unit": "mmol/L",
          "code": "mmol/L"
        },
        "referenceRange": [
          {
            "low": {
              "value": 22,
              "code": "mmol/L",
              "system": "http://unitsofmeasure.org"
            }
          },
          {
            "high": {
              "value": 32,
              "code": "mmol/L",
              "system": "http://unitsofmeasure.org"
            }
          }
        ],
        "text": {
          "status": "generated",
          "div": "<div xmlns=\"http://www.w3.org/1999/xhtml\"><table class=\"hl7__eu__lab__report\"><tr><th>Test</th><th>01-Jan-2024</th><th>Reference&#xA0;Range</th><th>Unit</th></tr><tr><td>Carbon dioxide, total [Moles/volume] in Serum or Plasma</td><td>26.8</td><td>22 - 32</td><td></td><td>mmol/L</td></tr></table></div>"
        },
        "status": "final",
        "subject": {
          "reference": "urn:uuid:02c88e3b-9ead-4dfa-9ff3-d061d01aa586",
          "display": "Meaghan Neary"
        },
        "effectiveDateTime": "2024-01-01T22:11:04Z",
        "specimen": {
          "reference": "urn:uuid:f86ac678-5ec5-4e08-b390-9b5145d3dfe3"
        }
      }
    },
    {
      "fullUrl": "urn:uuid:9efdd239-27b9-4377-ad96-6e3d5b11d2bc",
      "resource": {
        "resourceType": "Observation",
        "id": "9efdd239-27b9-4377-ad96-6e3d5b11d2bc",
        "meta": {
          "profile": [
            "http://hl7.eu/fhir/laboratory/StructureDefinition/Observation-resultslab-eu-lab"
          ]
        },
        "performer": [
          {
            "display": "The Central European Lab"
          }
        ],
        "category": [
          {
            "coding": [
              {
                "system": "http://terminology.hl7.org/CodeSystem/observation-category",
                "code": "laboratory"
              }
            ]
          }
        ],
        "code": {
          "coding": [
            {
              "code": "5767-9",
              "system": "http://loinc.org",
              "display": "Appearance of Urine"
            }
          ],
          "text": "Appearance of Urine"
        },
        "text": {
          "status": "generated",
          "div": "<div xmlns=\"http://www.w3.org/1999/xhtml\"><table class=\"hl7__eu__lab__report\"><tr><th>Test</th><th>01-Jan-2024</th><th>Reference&#xA0;Range</th><th>Unit</th></tr><tr><td>Appearance of Urine</td></tr></table></div>"
        },
        "status": "final",
        "subject": {
          "reference": "urn:uuid:02c88e3b-9ead-4dfa-9ff3-d061d01aa586",
          "display": "Meaghan Neary"
        },
        "effectiveDateTime": "2024-01-01T22:11:04Z",
        "specimen": {
          "reference": "urn:uuid:676f9e2c-b59e-437f-9e96-c1d364e0fcfc"
        }
      }
    },
    {
      "fullUrl": "urn:uuid:255808c7-57a5-466d-abd9-8130324232e9",
      "resource": {
        "resourceType": "Observation",
        "id": "255808c7-57a5-466d-abd9-8130324232e9",
        "meta": {
          "profile": [
            "http://hl7.eu/fhir/laboratory/StructureDefinition/Observation-resultslab-eu-lab"
          ]
        },
        "performer": [
          {
            "display": "The Central European Lab"
          }
        ],
        "category": [
          {
            "coding": [
              {
                "system": "http://terminology.hl7.org/CodeSystem/observation-category",
                "code": "laboratory"
              }
            ]
          }
        ],
        "code": {
          "coding": [
            {
              "code": "34533-0",
              "system": "http://loinc.org",
              "display": "Odor of Urine"
            }
          ],
          "text": "Odor of Urine"
        },
        "text": {
          "status": "generated",
          "div": "<div xmlns=\"http://www.w3.org/1999/xhtml\"><table class=\"hl7__eu__lab__report\"><tr><th>Test</th><th>01-Jan-2024</th><th>Reference&#xA0;Range</th><th>Unit</th></tr><tr><td>Odor of Urine</td></tr></table></div>"
        },
        "status": "final",
        "subject": {
          "reference": "urn:uuid:02c88e3b-9ead-4dfa-9ff3-d061d01aa586",
          "display": "Meaghan Neary"
        },
        "effectiveDateTime": "2024-01-01T22:11:04Z",
        "specimen": {
          "reference": "urn:uuid:676f9e2c-b59e-437f-9e96-c1d364e0fcfc"
        }
      }
    },
    {
      "fullUrl": "urn:uuid:0eac4e40-45d0-4241-a662-b938ee8fcf65",
      "resource": {
        "resourceType": "Observation",
        "id": "0eac4e40-45d0-4241-a662-b938ee8fcf65",
        "meta": {
          "profile": [
            "http://hl7.eu/fhir/laboratory/StructureDefinition/Observation-resultslab-eu-lab"
          ]
        },
        "performer": [
          {
            "display": "The Central European Lab"
          }
        ],
        "category": [
          {
            "coding": [
              {
                "system": "http://terminology.hl7.org/CodeSystem/observation-category",
                "code": "laboratory"
              }
            ]
          }
        ],
        "code": {
          "coding": [
            {
              "code": "32167-9",
              "system": "http://loinc.org",
              "display": "Clarity of Urine"
            }
          ],
          "text": "Clarity of Urine"
        },
        "text": {
          "status": "generated",
          "div": "<div xmlns=\"http://www.w3.org/1999/xhtml\"><table class=\"hl7__eu__lab__report\"><tr><th>Test</th><th>01-Jan-2024</th><th>Reference&#xA0;Range</th><th>Unit</th></tr><tr><td>Clarity of Urine</td></tr></table></div>"
        },
        "status": "final",
        "subject": {
          "reference": "urn:uuid:02c88e3b-9ead-4dfa-9ff3-d061d01aa586",
          "display": "Meaghan Neary"
        },
        "effectiveDateTime": "2024-01-01T22:11:04Z",
        "specimen": {
          "reference": "urn:uuid:676f9e2c-b59e-437f-9e96-c1d364e0fcfc"
        }
      }
    },
    {
      "fullUrl": "urn:uuid:9f2ef57b-8c3d-4169-a62a-e394e78104a6",
      "resource": {
        "resourceType": "Observation",
        "id": "9f2ef57b-8c3d-4169-a62a-e394e78104a6",
        "meta": {
          "profile": [
            "http://hl7.eu/fhir/laboratory/StructureDefinition/Observation-resultslab-eu-lab"
          ]
        },
        "performer": [
          {
            "display": "The Central European Lab"
          }
        ],
        "category": [
          {
            "coding": [
              {
                "system": "http://terminology.hl7.org/CodeSystem/observation-category",
                "code": "laboratory"
              }
            ]
          }
        ],
        "code": {
          "coding": [
            {
              "code": "5778-6",
              "system": "http://loinc.org",
              "display": "Color of Urine"
            }
          ],
          "text": "Color of Urine"
        },
        "text": {
          "status": "generated",
          "div": "<div xmlns=\"http://www.w3.org/1999/xhtml\"><table class=\"hl7__eu__lab__report\"><tr><th>Test</th><th>01-Jan-2024</th><th>Reference&#xA0;Range</th><th>Unit</th></tr><tr><td>Color of Urine</td></tr></table></div>"
        },
        "status": "final",
        "subject": {
          "reference": "urn:uuid:02c88e3b-9ead-4dfa-9ff3-d061d01aa586",
          "display": "Meaghan Neary"
        },
        "effectiveDateTime": "2024-01-01T22:11:04Z",
        "specimen": {
          "reference": "urn:uuid:676f9e2c-b59e-437f-9e96-c1d364e0fcfc"
        }
      }
    },
    {
      "fullUrl": "urn:uuid:9e8a82be-dfbd-4176-8348-d5c6848ba7aa",
      "resource": {
        "resourceType": "Observation",
        "id": "9e8a82be-dfbd-4176-8348-d5c6848ba7aa",
        "meta": {
          "profile": [
            "http://hl7.eu/fhir/laboratory/StructureDefinition/Observation-resultslab-eu-lab"
          ]
        },
        "performer": [
          {
            "display": "The Central European Lab"
          }
        ],
        "category": [
          {
            "coding": [
              {
                "system": "http://terminology.hl7.org/CodeSystem/observation-category",
                "code": "laboratory"
              }
            ]
          }
        ],
        "code": {
          "coding": [
            {
              "code": "5792-7",
              "system": "http://loinc.org",
              "display": "Glucose [Mass/volume] in Urine by Test strip"
            }
          ],
          "text": "Glucose [Mass/volume] in Urine by Test strip"
        },
        "valueQuantity": {
          "system": "http://unitsofmeasure.org",
          "value": 1,
          "unit": "mg/dL",
          "code": "mg/dL"
        },
        "referenceRange": [
          {
            "low": {
              "value": 0.8,
              "code": "mg/dL",
              "system": "http://unitsofmeasure.org"
            }
          },
          {
            "high": {
              "value": 0,
              "code": "mg/dL",
              "system": "http://unitsofmeasure.org"
            }
          }
        ],
        "interpretation": [
          {
            "coding": [
              {
                "code": "H",
                "system": "http://terminology.hl7.org/CodeSystem/v3-ObservationInterpretation",
                "display": "High"
              }
            ]
          }
        ],
        "text": {
          "status": "generated",
          "div": "<div xmlns=\"http://www.w3.org/1999/xhtml\"><table class=\"hl7__eu__lab__report\"><tr><th>Test</th><th>01-Jan-2024</th><th>Reference&#xA0;Range</th><th>Unit</th></tr><tr><td>Glucose [Mass/volume] in Urine by Test strip</td><td>1.0</td><td>0.8 - 0</td><td>H</td><td>mg/dL</td></tr></table></div>"
        },
        "status": "final",
        "subject": {
          "reference": "urn:uuid:02c88e3b-9ead-4dfa-9ff3-d061d01aa586",
          "display": "Meaghan Neary"
        },
        "effectiveDateTime": "2024-01-01T22:11:04Z",
        "specimen": {
          "reference": "urn:uuid:676f9e2c-b59e-437f-9e96-c1d364e0fcfc"
        }
      }
    },
    {
      "fullUrl": "urn:uuid:1085afd7-348e-4e70-aa3d-6f2d9cff9f99",
      "resource": {
        "resourceType": "Observation",
        "id": "1085afd7-348e-4e70-aa3d-6f2d9cff9f99",
        "meta": {
          "profile": [
            "http://hl7.eu/fhir/laboratory/StructureDefinition/Observation-resultslab-eu-lab"
          ]
        },
        "performer": [
          {
            "display": "The Central European Lab"
          }
        ],
        "category": [
          {
            "coding": [
              {
                "system": "http://terminology.hl7.org/CodeSystem/observation-category",
                "code": "laboratory"
              }
            ]
          }
        ],
        "code": {
          "coding": [
            {
              "code": "25428-4",
              "system": "http://loinc.org",
              "display": "Glucose [Presence] in Urine by Test strip"
            }
          ],
          "text": "Glucose [Presence] in Urine by Test strip"
        },
        "text": {
          "status": "generated",
          "div": "<div xmlns=\"http://www.w3.org/1999/xhtml\"><table class=\"hl7__eu__lab__report\"><tr><th>Test</th><th>01-Jan-2024</th><th>Reference&#xA0;Range</th><th>Unit</th></tr><tr><td>Glucose [Presence] in Urine by Test strip</td></tr></table></div>"
        },
        "status": "final",
        "subject": {
          "reference": "urn:uuid:02c88e3b-9ead-4dfa-9ff3-d061d01aa586",
          "display": "Meaghan Neary"
        },
        "effectiveDateTime": "2024-01-01T22:11:04Z",
        "specimen": {
          "reference": "urn:uuid:676f9e2c-b59e-437f-9e96-c1d364e0fcfc"
        }
      }
    },
    {
      "fullUrl": "urn:uuid:bbbd1f55-93c8-4aec-8abb-c8ffe3ba88e4",
      "resource": {
        "resourceType": "Observation",
        "id": "bbbd1f55-93c8-4aec-8abb-c8ffe3ba88e4",
        "meta": {
          "profile": [
            "http://hl7.eu/fhir/laboratory/StructureDefinition/Observation-resultslab-eu-lab"
          ]
        },
        "performer": [
          {
            "display": "The Central European Lab"
          }
        ],
        "category": [
          {
            "coding": [
              {
                "system": "http://terminology.hl7.org/CodeSystem/observation-category",
                "code": "laboratory"
              }
            ]
          }
        ],
        "code": {
          "coding": [
            {
              "code": "20505-4",
              "system": "http://loinc.org",
              "display": "Bilirubin.total [Mass/volume] in Urine by Test strip"
            }
          ],
          "text": "Bilirubin.total [Mass/volume] in Urine by Test strip"
        },
        "valueQuantity": {
          "system": "http://unitsofmeasure.org",
          "value": 1,
          "unit": "mg/dL",
          "code": "mg/dL"
        },
        "referenceRange": [
          {
            "low": {
              "value": 0,
              "code": "mg/dL",
              "system": "http://unitsofmeasure.org"
            }
          },
          {
            "high": {
              "value": 1,
              "code": "mg/dL",
              "system": "http://unitsofmeasure.org"
            }
          }
        ],
        "text": {
          "status": "generated",
          "div": "<div xmlns=\"http://www.w3.org/1999/xhtml\"><table class=\"hl7__eu__lab__report\"><tr><th>Test</th><th>01-Jan-2024</th><th>Reference&#xA0;Range</th><th>Unit</th></tr><tr><td>Bilirubin.total [Mass/volume] in Urine by Test strip</td><td>1.0</td><td>0 - 1</td><td></td><td>mg/dL</td></tr></table></div>"
        },
        "status": "final",
        "subject": {
          "reference": "urn:uuid:02c88e3b-9ead-4dfa-9ff3-d061d01aa586",
          "display": "Meaghan Neary"
        },
        "effectiveDateTime": "2024-01-01T22:11:04Z",
        "specimen": {
          "reference": "urn:uuid:676f9e2c-b59e-437f-9e96-c1d364e0fcfc"
        }
      }
    },
    {
      "fullUrl": "urn:uuid:af30df76-5ec3-40bd-bd3b-9ae23ed8d02b",
      "resource": {
        "resourceType": "Observation",
        "id": "af30df76-5ec3-40bd-bd3b-9ae23ed8d02b",
        "meta": {
          "profile": [
            "http://hl7.eu/fhir/laboratory/StructureDefinition/Observation-resultslab-eu-lab"
          ]
        },
        "performer": [
          {
            "display": "The Central European Lab"
          }
        ],
        "category": [
          {
            "coding": [
              {
                "system": "http://terminology.hl7.org/CodeSystem/observation-category",
                "code": "laboratory"
              }
            ]
          }
        ],
        "code": {
          "coding": [
            {
              "code": "5770-3",
              "system": "http://loinc.org",
              "display": "Bilirubin.total [Presence] in Urine by Test strip"
            }
          ],
          "text": "Bilirubin.total [Presence] in Urine by Test strip"
        },
        "text": {
          "status": "generated",
          "div": "<div xmlns=\"http://www.w3.org/1999/xhtml\"><table class=\"hl7__eu__lab__report\"><tr><th>Test</th><th>01-Jan-2024</th><th>Reference&#xA0;Range</th><th>Unit</th></tr><tr><td>Bilirubin.total [Presence] in Urine by Test strip</td></tr></table></div>"
        },
        "status": "final",
        "subject": {
          "reference": "urn:uuid:02c88e3b-9ead-4dfa-9ff3-d061d01aa586",
          "display": "Meaghan Neary"
        },
        "effectiveDateTime": "2024-01-01T22:11:04Z",
        "specimen": {
          "reference": "urn:uuid:676f9e2c-b59e-437f-9e96-c1d364e0fcfc"
        }
      }
    },
    {
      "fullUrl": "urn:uuid:784a69c7-3499-4525-ad32-f5d5356a7460",
      "resource": {
        "resourceType": "Observation",
        "id": "784a69c7-3499-4525-ad32-f5d5356a7460",
        "meta": {
          "profile": [
            "http://hl7.eu/fhir/laboratory/StructureDefinition/Observation-resultslab-eu-lab"
          ]
        },
        "performer": [
          {
            "display": "The Central European Lab"
          }
        ],
        "category": [
          {
            "coding": [
              {
                "system": "http://terminology.hl7.org/CodeSystem/observation-category",
                "code": "laboratory"
              }
            ]
          }
        ],
        "code": {
          "coding": [
            {
              "code": "5797-6",
              "system": "http://loinc.org",
              "display": "Ketones [Mass/volume] in Urine by Test strip"
            }
          ],
          "text": "Ketones [Mass/volume] in Urine by Test strip"
        },
        "valueQuantity": {
          "system": "http://unitsofmeasure.org",
          "value": 18.2,
          "unit": "mg/dL",
          "code": "mg/dL"
        },
        "referenceRange": [
          {
            "low": {
              "value": 0,
              "code": "mg/dL",
              "system": "http://unitsofmeasure.org"
            }
          },
          {
            "high": {
              "value": 4,
              "code": "mg/dL",
              "system": "http://unitsofmeasure.org"
            }
          }
        ],
        "interpretation": [
          {
            "coding": [
              {
                "code": "H",
                "system": "http://terminology.hl7.org/CodeSystem/v3-ObservationInterpretation",
                "display": "High"
              }
            ]
          }
        ],
        "text": {
          "status": "generated",
          "div": "<div xmlns=\"http://www.w3.org/1999/xhtml\"><table class=\"hl7__eu__lab__report\"><tr><th>Test</th><th>01-Jan-2024</th><th>Reference&#xA0;Range</th><th>Unit</th></tr><tr><td>Ketones [Mass/volume] in Urine by Test strip</td><td>18.2</td><td>0 - 4</td><td>H</td><td>mg/dL</td></tr></table></div>"
        },
        "status": "final",
        "subject": {
          "reference": "urn:uuid:02c88e3b-9ead-4dfa-9ff3-d061d01aa586",
          "display": "Meaghan Neary"
        },
        "effectiveDateTime": "2024-01-01T22:11:04Z",
        "specimen": {
          "reference": "urn:uuid:676f9e2c-b59e-437f-9e96-c1d364e0fcfc"
        }
      }
    },
    {
      "fullUrl": "urn:uuid:30554d3b-6efd-43ee-abc1-a2aa520bc385",
      "resource": {
        "resourceType": "Observation",
        "id": "30554d3b-6efd-43ee-abc1-a2aa520bc385",
        "meta": {
          "profile": [
            "http://hl7.eu/fhir/laboratory/StructureDefinition/Observation-resultslab-eu-lab"
          ]
        },
        "performer": [
          {
            "display": "The Central European Lab"
          }
        ],
        "category": [
          {
            "coding": [
              {
                "system": "http://terminology.hl7.org/CodeSystem/observation-category",
                "code": "laboratory"
              }
            ]
          }
        ],
        "code": {
          "coding": [
            {
              "code": "2514-8",
              "system": "http://loinc.org",
              "display": "Ketones [Presence] in Urine by Test strip"
            }
          ],
          "text": "Ketones [Presence] in Urine by Test strip"
        },
        "text": {
          "status": "generated",
          "div": "<div xmlns=\"http://www.w3.org/1999/xhtml\"><table class=\"hl7__eu__lab__report\"><tr><th>Test</th><th>01-Jan-2024</th><th>Reference&#xA0;Range</th><th>Unit</th></tr><tr><td>Ketones [Presence] in Urine by Test strip</td></tr></table></div>"
        },
        "status": "final",
        "subject": {
          "reference": "urn:uuid:02c88e3b-9ead-4dfa-9ff3-d061d01aa586",
          "display": "Meaghan Neary"
        },
        "effectiveDateTime": "2024-01-01T22:11:04Z",
        "specimen": {
          "reference": "urn:uuid:676f9e2c-b59e-437f-9e96-c1d364e0fcfc"
        }
      }
    },
    {
      "fullUrl": "urn:uuid:8b30ce01-2783-4829-ac27-aa43156a5d46",
      "resource": {
        "resourceType": "Observation",
        "id": "8b30ce01-2783-4829-ac27-aa43156a5d46",
        "meta": {
          "profile": [
            "http://hl7.eu/fhir/laboratory/StructureDefinition/Observation-resultslab-eu-lab"
          ]
        },
        "performer": [
          {
            "display": "The Central European Lab"
          }
        ],
        "category": [
          {
            "coding": [
              {
                "system": "http://terminology.hl7.org/CodeSystem/observation-category",
                "code": "laboratory"
              }
            ]
          }
        ],
        "code": {
          "coding": [
            {
              "code": "5811-5",
              "system": "http://loinc.org",
              "display": "Specific gravity of Urine by Test strip"
            }
          ],
          "text": "Specific gravity of Urine by Test strip"
        },
        "valueQuantity": {
          "system": "http://unitsofmeasure.org",
          "value": 1,
          "unit": "{nominal}",
          "code": "{nominal}"
        },
        "referenceRange": [
          {
            "low": {
              "value": 1.005,
              "code": "g/mL",
              "system": "http://unitsofmeasure.org"
            }
          },
          {
            "high": {
              "value": 1.03,
              "code": "g/mL",
              "system": "http://unitsofmeasure.org"
            }
          }
        ],
        "interpretation": [
          {
            "coding": [
              {
                "code": "L",
                "system": "http://terminology.hl7.org/CodeSystem/v3-ObservationInterpretation",
                "display": "Low"
              }
            ]
          }
        ],
        "text": {
          "status": "generated",
          "div": "<div xmlns=\"http://www.w3.org/1999/xhtml\"><table class=\"hl7__eu__lab__report\"><tr><th>Test</th><th>01-Jan-2024</th><th>Reference&#xA0;Range</th><th>Unit</th></tr><tr><td>Specific gravity of Urine by Test strip</td><td>1.0</td><td>1.005 - 1.03</td><td>L</td><td>{nominal}</td></tr></table></div>"
        },
        "status": "final",
        "subject": {
          "reference": "urn:uuid:02c88e3b-9ead-4dfa-9ff3-d061d01aa586",
          "display": "Meaghan Neary"
        },
        "effectiveDateTime": "2024-01-01T22:11:04Z",
        "specimen": {
          "reference": "urn:uuid:676f9e2c-b59e-437f-9e96-c1d364e0fcfc"
        }
      }
    },
    {
      "fullUrl": "urn:uuid:8b9ba398-a898-424f-bbe6-b947ff1f9660",
      "resource": {
        "resourceType": "Observation",
        "id": "8b9ba398-a898-424f-bbe6-b947ff1f9660",
        "meta": {
          "profile": [
            "http://hl7.eu/fhir/laboratory/StructureDefinition/Observation-resultslab-eu-lab"
          ]
        },
        "performer": [
          {
            "display": "The Central European Lab"
          }
        ],
        "category": [
          {
            "coding": [
              {
                "system": "http://terminology.hl7.org/CodeSystem/observation-category",
                "code": "laboratory"
              }
            ]
          }
        ],
        "code": {
          "coding": [
            {
              "code": "5803-2",
              "system": "http://loinc.org",
              "display": "pH of Urine by Test strip"
            }
          ],
          "text": "pH of Urine by Test strip"
        },
        "valueQuantity": {
          "system": "http://unitsofmeasure.org",
          "value": 5.7,
          "unit": "pH",
          "code": "pH"
        },
        "referenceRange": [
          {
            "low": {
              "value": 4.6,
              "code": "pH",
              "system": "http://unitsofmeasure.org"
            }
          },
          {
            "high": {
              "value": 7,
              "code": "pH",
              "system": "http://unitsofmeasure.org"
            }
          }
        ],
        "text": {
          "status": "generated",
          "div": "<div xmlns=\"http://www.w3.org/1999/xhtml\"><table class=\"hl7__eu__lab__report\"><tr><th>Test</th><th>01-Jan-2024</th><th>Reference&#xA0;Range</th><th>Unit</th></tr><tr><td>pH of Urine by Test strip</td><td>5.7</td><td>4.6 - 7</td><td></td><td>pH</td></tr></table></div>"
        },
        "status": "final",
        "subject": {
          "reference": "urn:uuid:02c88e3b-9ead-4dfa-9ff3-d061d01aa586",
          "display": "Meaghan Neary"
        },
        "effectiveDateTime": "2024-01-01T22:11:04Z",
        "specimen": {
          "reference": "urn:uuid:676f9e2c-b59e-437f-9e96-c1d364e0fcfc"
        }
      }
    },
    {
      "fullUrl": "urn:uuid:1b298f2e-d866-4bdf-80e5-f38735766f26",
      "resource": {
        "resourceType": "Observation",
        "id": "1b298f2e-d866-4bdf-80e5-f38735766f26",
        "meta": {
          "profile": [
            "http://hl7.eu/fhir/laboratory/StructureDefinition/Observation-resultslab-eu-lab"
          ]
        },
        "performer": [
          {
            "display": "The Central European Lab"
          }
        ],
        "category": [
          {
            "coding": [
              {
                "system": "http://terminology.hl7.org/CodeSystem/observation-category",
                "code": "laboratory"
              }
            ]
          }
        ],
        "code": {
          "coding": [
            {
              "code": "5804-0",
              "system": "http://loinc.org",
              "display": "Protein [Mass/volume] in Urine by Test strip"
            }
          ],
          "text": "Protein [Mass/volume] in Urine by Test strip"
        },
        "valueQuantity": {
          "system": "http://unitsofmeasure.org",
          "value": 212.9,
          "unit": "mg/dL",
          "code": "mg/dL"
        },
        "referenceRange": [
          {
            "low": {
              "value": 0,
              "code": "mg/dL",
              "system": "http://unitsofmeasure.org"
            }
          },
          {
            "high": {
              "value": 14,
              "code": "mg/dL",
              "system": "http://unitsofmeasure.org"
            }
          }
        ],
        "interpretation": [
          {
            "coding": [
              {
                "code": "H",
                "system": "http://terminology.hl7.org/CodeSystem/v3-ObservationInterpretation",
                "display": "High"
              }
            ]
          }
        ],
        "text": {
          "status": "generated",
          "div": "<div xmlns=\"http://www.w3.org/1999/xhtml\"><table class=\"hl7__eu__lab__report\"><tr><th>Test</th><th>01-Jan-2024</th><th>Reference&#xA0;Range</th><th>Unit</th></tr><tr><td>Protein [Mass/volume] in Urine by Test strip</td><td>212.9</td><td>0 - 14</td><td>H</td><td>mg/dL</td></tr></table></div>"
        },
        "status": "final",
        "subject": {
          "reference": "urn:uuid:02c88e3b-9ead-4dfa-9ff3-d061d01aa586",
          "display": "Meaghan Neary"
        },
        "effectiveDateTime": "2024-01-01T22:11:04Z",
        "specimen": {
          "reference": "urn:uuid:676f9e2c-b59e-437f-9e96-c1d364e0fcfc"
        }
      }
    },
    {
      "fullUrl": "urn:uuid:84ab9207-71f5-4f12-ab56-8e02eba38aeb",
      "resource": {
        "resourceType": "Observation",
        "id": "84ab9207-71f5-4f12-ab56-8e02eba38aeb",
        "meta": {
          "profile": [
            "http://hl7.eu/fhir/laboratory/StructureDefinition/Observation-resultslab-eu-lab"
          ]
        },
        "performer": [
          {
            "display": "The Central European Lab"
          }
        ],
        "category": [
          {
            "coding": [
              {
                "system": "http://terminology.hl7.org/CodeSystem/observation-category",
                "code": "laboratory"
              }
            ]
          }
        ],
        "code": {
          "coding": [
            {
              "code": "20454-5",
              "system": "http://loinc.org",
              "display": "Protein [Presence] in Urine by Test strip"
            }
          ],
          "text": "Protein [Presence] in Urine by Test strip"
        },
        "text": {
          "status": "generated",
          "div": "<div xmlns=\"http://www.w3.org/1999/xhtml\"><table class=\"hl7__eu__lab__report\"><tr><th>Test</th><th>01-Jan-2024</th><th>Reference&#xA0;Range</th><th>Unit</th></tr><tr><td>Protein [Presence] in Urine by Test strip</td></tr></table></div>"
        },
        "status": "final",
        "subject": {
          "reference": "urn:uuid:02c88e3b-9ead-4dfa-9ff3-d061d01aa586",
          "display": "Meaghan Neary"
        },
        "effectiveDateTime": "2024-01-01T22:11:04Z",
        "specimen": {
          "reference": "urn:uuid:676f9e2c-b59e-437f-9e96-c1d364e0fcfc"
        }
      }
    },
    {
      "fullUrl": "urn:uuid:f6be5c94-f2f3-4607-9882-479bc4b56c8d",
      "resource": {
        "resourceType": "Observation",
        "id": "f6be5c94-f2f3-4607-9882-479bc4b56c8d",
        "meta": {
          "profile": [
            "http://hl7.eu/fhir/laboratory/StructureDefinition/Observation-resultslab-eu-lab"
          ]
        },
        "performer": [
          {
            "display": "The Central European Lab"
          }
        ],
        "category": [
          {
            "coding": [
              {
                "system": "http://terminology.hl7.org/CodeSystem/observation-category",
                "code": "laboratory"
              }
            ]
          }
        ],
        "code": {
          "coding": [
            {
              "code": "5802-4",
              "system": "http://loinc.org",
              "display": "Nitrite [Presence] in Urine by Test strip"
            }
          ],
          "text": "Nitrite [Presence] in Urine by Test strip"
        },
        "text": {
          "status": "generated",
          "div": "<div xmlns=\"http://www.w3.org/1999/xhtml\"><table class=\"hl7__eu__lab__report\"><tr><th>Test</th><th>01-Jan-2024</th><th>Reference&#xA0;Range</th><th>Unit</th></tr><tr><td>Nitrite [Presence] in Urine by Test strip</td></tr></table></div>"
        },
        "status": "final",
        "subject": {
          "reference": "urn:uuid:02c88e3b-9ead-4dfa-9ff3-d061d01aa586",
          "display": "Meaghan Neary"
        },
        "effectiveDateTime": "2024-01-01T22:11:04Z",
        "specimen": {
          "reference": "urn:uuid:676f9e2c-b59e-437f-9e96-c1d364e0fcfc"
        }
      }
    },
    {
      "fullUrl": "urn:uuid:5f2132e8-08dc-46ea-917e-d7fd2915dbec",
      "resource": {
        "resourceType": "Observation",
        "id": "5f2132e8-08dc-46ea-917e-d7fd2915dbec",
        "meta": {
          "profile": [
            "http://hl7.eu/fhir/laboratory/StructureDefinition/Observation-resultslab-eu-lab"
          ]
        },
        "performer": [
          {
            "display": "The Central European Lab"
          }
        ],
        "category": [
          {
            "coding": [
              {
                "system": "http://terminology.hl7.org/CodeSystem/observation-category",
                "code": "laboratory"
              }
            ]
          }
        ],
        "code": {
          "coding": [
            {
              "code": "5794-3",
              "system": "http://loinc.org",
              "display": "Hemoglobin [Presence] in Urine by Test strip"
            }
          ],
          "text": "Hemoglobin [Presence] in Urine by Test strip"
        },
        "text": {
          "status": "generated",
          "div": "<div xmlns=\"http://www.w3.org/1999/xhtml\"><table class=\"hl7__eu__lab__report\"><tr><th>Test</th><th>01-Jan-2024</th><th>Reference&#xA0;Range</th><th>Unit</th></tr><tr><td>Hemoglobin [Presence] in Urine by Test strip</td></tr></table></div>"
        },
        "status": "final",
        "subject": {
          "reference": "urn:uuid:02c88e3b-9ead-4dfa-9ff3-d061d01aa586",
          "display": "Meaghan Neary"
        },
        "effectiveDateTime": "2024-01-01T22:11:04Z",
        "specimen": {
          "reference": "urn:uuid:676f9e2c-b59e-437f-9e96-c1d364e0fcfc"
        }
      }
    },
    {
      "fullUrl": "urn:uuid:f32b0362-a63f-4faf-bb4f-17a19ce6b214",
      "resource": {
        "resourceType": "Observation",
        "id": "f32b0362-a63f-4faf-bb4f-17a19ce6b214",
        "meta": {
          "profile": [
            "http://hl7.eu/fhir/laboratory/StructureDefinition/Observation-resultslab-eu-lab"
          ]
        },
        "performer": [
          {
            "display": "The Central European Lab"
          }
        ],
        "category": [
          {
            "coding": [
              {
                "system": "http://terminology.hl7.org/CodeSystem/observation-category",
                "code": "laboratory"
              }
            ]
          }
        ],
        "code": {
          "coding": [
            {
              "code": "5799-2",
              "system": "http://loinc.org",
              "display": "Leukocyte esterase [Presence] in Urine by Test strip"
            }
          ],
          "text": "Leukocyte esterase [Presence] in Urine by Test strip"
        },
        "text": {
          "status": "generated",
          "div": "<div xmlns=\"http://www.w3.org/1999/xhtml\"><table class=\"hl7__eu__lab__report\"><tr><th>Test</th><th>01-Jan-2024</th><th>Reference&#xA0;Range</th><th>Unit</th></tr><tr><td>Leukocyte esterase [Presence] in Urine by Test strip</td></tr></table></div>"
        },
        "status": "final",
        "subject": {
          "reference": "urn:uuid:02c88e3b-9ead-4dfa-9ff3-d061d01aa586",
          "display": "Meaghan Neary"
        },
        "effectiveDateTime": "2024-01-01T22:11:04Z",
        "specimen": {
          "reference": "urn:uuid:676f9e2c-b59e-437f-9e96-c1d364e0fcfc"
        }
      }
    },
    {
      "fullUrl": "urn:uuid:7b0c4669-e111-408d-97b4-4318b7f0389c",
      "resource": {
        "resourceType": "Observation",
        "id": "7b0c4669-e111-408d-97b4-4318b7f0389c",
        "meta": {
          "profile": [
            "http://hl7.eu/fhir/laboratory/StructureDefinition/Observation-resultslab-eu-lab"
          ]
        },
        "performer": [
          {
            "display": "The Central European Lab"
          }
        ],
        "category": [
          {
            "coding": [
              {
                "system": "http://terminology.hl7.org/CodeSystem/observation-category",
                "code": "laboratory"
              }
            ]
          }
        ],
        "code": {
          "coding": [
            {
              "code": "4548-4",
              "system": "http://loinc.org",
              "display": "Hemoglobin A1c/Hemoglobin.total in Blood"
            }
          ],
          "text": "Hemoglobin A1c/Hemoglobin.total in Blood"
        },
        "valueQuantity": {
          "system": "http://unitsofmeasure.org",
          "value": 4,
          "unit": "%",
          "code": "%"
        },
        "referenceRange": [
          {
            "low": {
              "value": 4,
              "code": "%",
              "system": "http://unitsofmeasure.org"
            }
          },
          {
            "high": {
              "value": 6.4,
              "code": "%",
              "system": "http://unitsofmeasure.org"
            }
          }
        ],
        "text": {
          "status": "generated",
          "div": "<div xmlns=\"http://www.w3.org/1999/xhtml\"><table class=\"hl7__eu__lab__report\"><tr><th>Test</th><th>01-Jan-2024</th><th>Reference&#xA0;Range</th><th>Unit</th></tr><tr><td>Hemoglobin A1c/Hemoglobin.total in Blood</td><td>4.0</td><td>4 - 6.4</td><td></td><td>%</td></tr></table></div>"
        },
        "status": "final",
        "subject": {
          "reference": "urn:uuid:02c88e3b-9ead-4dfa-9ff3-d061d01aa586",
          "display": "Meaghan Neary"
        },
        "effectiveDateTime": "2024-01-01T22:11:04Z",
        "specimen": {
          "reference": "urn:uuid:d660c1ed-5fad-40d2-9ed1-8994786c677a"
        }
      }
    },
    {
      "fullUrl": "urn:uuid:b70a6783-cf8e-4b91-868c-cb36e02e5d46",
      "resource": {
        "resourceType": "Device",
        "id": "b70a6783-cf8e-4b91-868c-cb36e02e5d46",
        "deviceName": [
          {
            "name": "SYNDERAI Synthetic Generator",
            "type": "manufacturer-name"
          }
        ],
        "version": [
          {
            "value": "5.0"
          }
        ],
        "text": {
          "status": "generated",
          "div": "<div xmlns=\"http://www.w3.org/1999/xhtml\">SYNDERAI Synthetic Generator v5.0</div>"
        },
        "status": "active\"",
        "distinctIdentifier": "synderai-generator-50",
        "manufacturer": "SYNDERAI Project"
      }
    },
    {
      "fullUrl": "urn:uuid:c7a73775-2779-4aa4-9996-c0d8987f8799",
      "resource": {
        "resourceType": "Provenance",
        "id": "c7a73775-2779-4aa4-9996-c0d8987f8799",
        "target": [
          {
            "reference": "Patient/02c88e3b-9ead-4dfa-9ff3-d061d01aa586"
          },
          {
            "reference": "Bundle/14db6f39-54a4-4742-a107-197db505d68a"
          },
          {
            "reference": "Composition/40702a51-7388-4f4e-8786-16918ffb1927"
          },
          {
            "reference": "PractitionerRole/111244bb-80ff-4845-8c1e-61049aab8b51"
          },
          {
            "reference": "Practitioner/73dd415f-fe52-4494-b68c-6d8c2c830b74"
          },
          {
            "reference": "PractitionerRole/aac83333-6aaa-4cbc-b66f-6f8ba3764f71"
          },
          {
            "reference": "Organization/6514420c-54a1-4892-a73b-f6a60ea77be4"
          }
        ],
        "activity": {
          "text": "Synthetic Example Data Generation"
        },
        "policy": [
          "https://synderai.net/synderai-synthetic-data-policy"
        ],
        "agent": [
          {
            "type": {
              "text": "author"
            },
            "who": {
              "reference": "Device/b70a6783-cf8e-4b91-868c-cb36e02e5d46"
            }
          }
        ],
        "reason": [
          {
            "text": "Interoperability Testing and Training (non-clinical use)"
          }
        ],
        "text": {
          "status": "generated",
          "div": "<div xmlns=\"http://www.w3.org/1999/xhtml\">Provenance for SYNDERAI Synthetic Example Data Resource</div>"
        },
        "recorded": "2024-01-01T23:11:04Z"
      }
    },
    {
      "fullUrl": "urn:uuid:111244bb-80ff-4845-8c1e-61049aab8b51",
      "resource": {
        "resourceType": "PractitionerRole",
        "id": "111244bb-80ff-4845-8c1e-61049aab8b51",
        "meta": {
          "profile": [
            "http://hl7.eu/fhir/base/StructureDefinition/practitionerRole-eu"
          ]
        },
        "text": {
          "status": "generated",
          "div": "<div xmlns=\"http://www.w3.org/1999/xhtml\">Laboratory Role Id: 111244bb-80ff-4845-8c1e-61049aab8b51</div>"
        },
        "practitioner": {
          "reference": "urn:uuid:73dd415f-fe52-4494-b68c-6d8c2c830b74"
        }
      }
    },
    {
      "fullUrl": "urn:uuid:73dd415f-fe52-4494-b68c-6d8c2c830b74",
      "resource": {
        "resourceType": "Practitioner",
        "id": "73dd415f-fe52-4494-b68c-6d8c2c830b74",
        "meta": {
          "profile": [
            "http://hl7.eu/fhir/base/StructureDefinition/practitioner-eu"
          ]
        },
        "identifier": [
          {
            "assigner": {
              "display": "HL7 Europe"
            },
            "system": "urn:oid:2.16.840.1.113883.2.51.999",
            "value": "8e6667ae-ff6d-4a3e-8de4-7e000453cde0"
          }
        ],
        "name": [
          {
            "prefix": [
              "dr"
            ],
            "given": [
              "Ex"
            ],
            "family": "Ample"
          }
        ],
        "address": [
          {
            "line": [
              "Laboratoire Central Europenne",
              "Boulevard du Jardin Botanique 32"
            ],
            "postalCode": "1000",
            "city": "Brussels",
            "country": "Belgium"
          }
        ],
        "text": {
          "status": "generated",
          "div": "<div xmlns=\"http://www.w3.org/1999/xhtml\">Laboratory: Laboratoire Central Europenne, 1000 Brussels, Belgium</div>"
        }
      }
    }
  ],
  "type": "document",
  "timestamp": "2024-01-01T23:11:04Z"
}
