{
  "resourceType": "Bundle",
  "id": "8f812806-1ef7-4194-8d96-54657a44fc5a",
  "meta": {
    "profile": [
      "http://hl7.eu/fhir/laboratory/StructureDefinition/Bundle-eu-lab"
    ]
  },
  "identifier": {
    "assigner": {
      "display": "HL7 Europe"
    },
    "system": "urn:oid:2.16.840.1.113883.2.51.999",
    "value": "61e64613-a174-4af2-8cac-4240ffb36f26"
  },
  "entry": [
    {
      "fullUrl": "urn:uuid:2f9fd8ec-5006-4e18-b51f-bcea79f51ff6",
      "resource": {
        "resourceType": "Composition",
        "id": "2f9fd8ec-5006-4e18-b51f-bcea79f51ff6",
        "meta": {
          "profile": [
            "http://hl7.eu/fhir/laboratory/StructureDefinition/Composition-eu-lab"
          ]
        },
        "identifier": {
          "assigner": {
            "display": "HL7 Europe"
          },
          "system": "urn:oid:2.16.840.1.113883.2.51.999",
          "value": "3da6065d-2017-4a7e-93ac-a0744d7cbb06"
        },
        "author": [
          {
            "reference": "urn:uuid:1a214250-a11a-44a7-928a-fd0bc54d1dce"
          }
        ],
        "category": [
          {
            "coding": [
              {
                "code": "26436-6",
                "system": "http://loinc.org",
                "display": "Laboratory studies (set)"
              }
            ]
          }
        ],
        "type": {
          "coding": [
            {
              "code": "11502-2",
              "system": "http://loinc.org",
              "display": "Laboratory report"
            }
          ],
          "text": "Laboratory Report"
        },
        "section": [
          {
            "code": {
              "coding": [
                {
                  "code": "26436-6",
                  "system": "http://loinc.org",
                  "display": "Laboratory studies (set)"
                }
              ],
              "text": "Laboratory studies"
            },
            "section": [
              {
                "code": {
                  "coding": [
                    {
                      "code": "$18719-5",
                      "system": "http://loinc.org",
                      "display": "Chemistry studies (set)"
                    }
                  ],
                  "text": "Chemistry"
                },
                "entry": [
                  {
                    "reference": "urn:uuid:e4bdf771-0fa6-4f6f-8a20-ab73eabb89da"
                  },
                  {
                    "reference": "urn:uuid:da7be71f-ec3e-4a27-bb9d-53286a210b1a"
                  },
                  {
                    "reference": "urn:uuid:03e44879-e233-4782-bc77-9e7f5491e482"
                  },
                  {
                    "reference": "urn:uuid:8daf06c7-9ddd-4011-a8dc-7264b25bc4fe"
                  },
                  {
                    "reference": "urn:uuid:07ab5c0a-614b-4e80-b027-b8f8f8118af6"
                  },
                  {
                    "reference": "urn:uuid:08f9dd9a-e2fb-4192-8ffa-d919e5006ded"
                  },
                  {
                    "reference": "urn:uuid:500a7ec6-1886-4f4e-95fa-973b8cecfbac"
                  },
                  {
                    "reference": "urn:uuid:866652b8-9e65-4774-a0ab-385da5add7e4"
                  },
                  {
                    "reference": "urn:uuid:88a247f8-938e-4eb1-86e7-3c19e9c04e28"
                  },
                  {
                    "reference": "urn:uuid:b912314f-cd65-4969-a072-1b55ed0682e1"
                  },
                  {
                    "reference": "urn:uuid:db6bb4f7-dd1e-4cb4-8106-d6d338d0565a"
                  },
                  {
                    "reference": "urn:uuid:c14efb50-92d2-4be5-a8f7-bd01f9232f97"
                  },
                  {
                    "reference": "urn:uuid:e07d4794-7569-485d-8653-f5462d743ce7"
                  },
                  {
                    "reference": "urn:uuid:6facda8d-a6ee-4d9d-bcab-fa17e8fdb30d"
                  },
                  {
                    "reference": "urn:uuid:130ed08d-7484-43e2-88f7-5b578cbcb835"
                  },
                  {
                    "reference": "urn:uuid:074f2020-eda3-45f9-8508-de4446661732"
                  },
                  {
                    "reference": "urn:uuid:1522e14e-ac38-4280-af89-e0665ac133be"
                  },
                  {
                    "reference": "urn:uuid:345014ee-cdcf-470d-a4d5-098bfa91f675"
                  }
                ],
                "text": {
                  "status": "generated",
                  "div": "<div xmlns=\"http://www.w3.org/1999/xhtml\"><h3>Chemistry</h3><table class=\"hl7__eu__lab__report\"><thead><tr><th>Test</th><th>23-DEC-2022</th><th>Reference&#xA0;Range</th><th>Unit</th></tr></thead><tbody><tr><td>Glucose [Mass/volume] in Serum or Plasma</td><td><strong>65.8 L</strong></td><td>70 - 140</td><td>mg/dL</td></tr><tr><td>Urea nitrogen [Mass/volume] in Serum or Plasma</td><td>15.5</td><td>7 - 20</td><td>mg/dL</td></tr><tr><td>Creatinine [Mass/volume] in Serum or Plasma</td><td><strong>1.9 H</strong></td><td>0.9 - 1.3</td><td>mg/dL</td></tr><tr><td>Calcium [Mass/volume] in Serum or Plasma</td><td>9.9</td><td>8.5 - 10.5</td><td>mg/dL</td></tr><tr><td>Sodium [Moles/volume] in Serum or Plasma</td><td>142.8</td><td>135 - 145</td><td>mmol/L</td></tr><tr><td>Potassium [Moles/volume] in Serum or Plasma</td><td>4.2</td><td>3.5 - 5.3</td><td>mmol/L</td></tr><tr><td>Chloride [Moles/volume] in Serum or Plasma</td><td>104.0</td><td>98 - 107</td><td>mmol/L</td></tr><tr><td>Carbon dioxide, total [Moles/volume] in Serum or Plasma</td><td>28.3</td><td>22 - 33</td><td>mmol/L</td></tr><tr><td>Ketones [Presence] in Urine by Test strip</td><td>Urine ketone test = ++</td><td></td><td></td></tr><tr><td>Hemoglobin A1c/Hemoglobin.total in Blood</td><td><strong>3.0 L</strong></td><td>4.3 - 6</td><td>%</td></tr><tr><td>Glucose [Mass/volume] in Blood</td><td><strong>65.8 L</strong></td><td>70 - 140</td><td>mg/dL</td></tr><tr><td>Urea nitrogen [Mass/volume] in Blood</td><td>15.5</td><td>7 - 20</td><td>mg/dL</td></tr><tr><td>Creatinine [Mass/volume] in Blood</td><td><strong>3.8 H</strong></td><td>0.9 - 1.3</td><td>mg/dL</td></tr><tr><td>Calcium [Mass/volume] in Blood</td><td>9.9</td><td>8.5 - 10.5</td><td>mg/dL</td></tr><tr><td>Sodium [Moles/volume] in Blood</td><td>142.8</td><td>135 - 145</td><td>mmol/L</td></tr><tr><td>Potassium [Moles/volume] in Blood</td><td>4.2</td><td>3.5 - 5.1</td><td>mmol/L</td></tr><tr><td>Chloride [Moles/volume] in Blood</td><td>104.0</td><td>98 - 108</td><td>mmol/L</td></tr><tr><td>Carbon dioxide, total [Moles/volume] in Blood</td><td>28.3</td><td>22 - 29</td><td>mmol/L</td></tr></tbody></table></div>"
                },
                "title": "Chemistry"
              },
              {
                "code": {
                  "coding": [
                    {
                      "code": "$18729-4",
                      "system": "http://loinc.org",
                      "display": "Urinalysis studies (set)"
                    }
                  ],
                  "text": "Urinalysis"
                },
                "entry": [
                  {
                    "reference": "urn:uuid:8fe5285b-966c-4cd0-b11c-67e32d4eb431"
                  },
                  {
                    "reference": "urn:uuid:ca486d5d-0cb8-44e7-aefc-556a2b04c5f2"
                  },
                  {
                    "reference": "urn:uuid:495e1d71-2428-49bd-8aba-ef650edcdcaa"
                  },
                  {
                    "reference": "urn:uuid:e4712a42-6b14-4f96-9dce-e941a5a4449e"
                  },
                  {
                    "reference": "urn:uuid:d19dbeed-58a9-4b98-bdba-13376b0e5407"
                  },
                  {
                    "reference": "urn:uuid:5ac7b254-4531-4f84-b559-6b12dfab3436"
                  },
                  {
                    "reference": "urn:uuid:22ae01bf-3471-4c42-8751-9b88a91344cf"
                  },
                  {
                    "reference": "urn:uuid:63f7d75f-a37f-4d61-80ec-5fed7438bf40"
                  },
                  {
                    "reference": "urn:uuid:a100a4cb-3e2d-40b0-9c58-13beefe8da0d"
                  },
                  {
                    "reference": "urn:uuid:9b43c00f-989e-404a-bbb6-7ff7c0a6a334"
                  },
                  {
                    "reference": "urn:uuid:f6d8f58c-187d-4ae2-86fb-9e690345252f"
                  },
                  {
                    "reference": "urn:uuid:4d603ea5-dce8-455d-8763-76bf02abfa15"
                  }
                ],
                "text": {
                  "status": "generated",
                  "div": "<div xmlns=\"http://www.w3.org/1999/xhtml\"><h3>Urinalysis</h3><table class=\"hl7__eu__lab__report\"><thead><tr><th>Test</th><th>23-DEC-2022</th><th>Reference&#xA0;Range</th><th>Unit</th></tr></thead><tbody><tr><td>Glucose [Mass/volume] in Urine by Test strip</td><td><strong>2.2 H</strong></td><td>0 - 0.8</td><td>mg/dL</td></tr><tr><td>Glucose [Presence] in Urine by Test strip</td><td>++</td><td></td><td></td></tr><tr><td>Bilirubin.total [Mass/volume] in Urine by Test strip</td><td>1.4</td><td>0 - 1.9</td><td>mg/dL</td></tr><tr><td>Bilirubin.total [Presence] in Urine by Test strip</td><td>Finding of bilirubin in urine</td><td></td><td></td></tr><tr><td>Ketones [Mass/volume] in Urine by Test strip</td><td><strong>10.3 H</strong></td><td>0 - 3</td><td>mg/dL</td></tr><tr><td>Specific gravity of Urine by Test strip</td><td><strong>1.0 L</strong></td><td>1.01 - 1.03</td><td>{nominal}</td></tr><tr><td>pH of Urine by Test strip</td><td>5.3</td><td>4.5 - 7.5</td><td>pH</td></tr><tr><td>Protein [Mass/volume] in Urine by Test strip</td><td><strong>275.3 H</strong></td><td>0 - 149</td><td>mg/dL</td></tr><tr><td>Protein [Presence] in Urine by Test strip</td><td>Urine protein test = ++</td><td></td><td></td></tr><tr><td>Nitrite [Presence] in Urine by Test strip</td><td>Urine nitrite negative</td><td></td><td></td></tr><tr><td>Hemoglobin [Presence] in Urine by Test strip</td><td>Urine blood test = negative</td><td></td><td></td></tr><tr><td>Leukocyte esterase [Presence] in Urine by Test strip</td><td>Urine leukocyte test negative</td><td></td><td></td></tr></tbody></table></div>"
                },
                "title": "Urinalysis"
              },
              {
                "code": {
                  "coding": [
                    {
                      "code": "$LP7846-1",
                      "system": "http://loinc.org",
                      "display": "Specimen information"
                    }
                  ],
                  "text": "Specimen information"
                },
                "entry": [
                  {
                    "reference": "urn:uuid:5bcc27b2-75a9-4fc9-b154-6525afea216f"
                  },
                  {
                    "reference": "urn:uuid:1f23ffd3-e079-4e60-a67d-6c58cfc0a203"
                  },
                  {
                    "reference": "urn:uuid:41e77c8a-7c13-4892-8f37-42261c95bc0d"
                  },
                  {
                    "reference": "urn:uuid:748c0cbe-a43b-4046-87f1-7b47e5ae06ab"
                  }
                ],
                "text": {
                  "status": "generated",
                  "div": "<div xmlns=\"http://www.w3.org/1999/xhtml\"><h3>Specimen information</h3><table class=\"hl7__eu__lab__report\"><thead><tr><th>Test</th><th>23-DEC-2022</th><th>Specimen</th><th></th></tr></thead><tbody><tr><td>Appearance of Urine</td><td>Cloudy urine</td><td>Urine</td><td></td></tr><tr><td>Odor of Urine</td><td>Urine smell ammoniacal</td><td>Urine</td><td></td></tr><tr><td>Clarity of Urine</td><td>Translucent</td><td>Urine</td><td></td></tr><tr><td>Color of Urine</td><td>Brown color</td><td>Urine</td><td></td></tr></tbody></table></div>"
                },
                "title": "Specimen information"
              }
            ],
            "title": "Laboratory Report"
          },
          {
            "text": {
              "status": "generated",
              "div": "<div xmlns=\"http://www.w3.org/1999/xhtml\"><h3>Annotation</h3><table class=\"hl7__eu__lab__report\"><tr><th>Conclusion and Recommendations based on this report and previous findings known to us</th></tr><tr><td>The patient shows significant renal impairment (elevated creatinine), hypoglycemia, low HbA1c, and marked proteinuria, glycosuria, and ketonuria. Urine is abnormal in appearance and color, with low specific gravity, but no evidence of infection (negative nitrite/leukocytes). Findings suggest possible acute or chronic kidney disease with impaired glucose handling and possible dehydration or catabolic state. Clinical correlation and further nephrological and metabolic evaluation are recommended.</td></tr></table></div>"
            },
            "code": {
              "coding": [
                {
                  "system": "http://loinc.org",
                  "code": "48767-8",
                  "display": "Annotation comment"
                }
              ]
            },
            "title": "Annotation comment"
          }
        ],
        "status": "final",
        "subject": {
          "reference": "urn:uuid:c51b2660-7c5d-4e53-8cf6-a65b51f45c48",
          "display": "Victor Lagarde"
        },
        "date": "2022-12-23T05:48:18Z",
        "title": "Laboratory Report",
        "confidentiality": "N"
      }
    },
    {
      "fullUrl": "urn:uuid:fd30831c-3b73-48d9-8eb4-6ff899ebcade",
      "resource": {
        "resourceType": "DiagnosticReport",
        "id": "fd30831c-3b73-48d9-8eb4-6ff899ebcade",
        "meta": {
          "profile": [
            "http://hl7.eu/fhir/laboratory/StructureDefinition/DiagnosticReport-eu-lab"
          ]
        },
        "identifier": [
          {
            "assigner": {
              "display": "HL7 Europe"
            },
            "system": "urn:oid:2.16.840.1.113883.2.51.999",
            "value": "3f92bb50-c7c6-4803-8d46-2b6519c6c749"
          }
        ],
        "extension": [
          {
            "url": "http://hl7.org/fhir/5.0/StructureDefinition/extension-DiagnosticReport.composition",
            "valueReference": {
              "reference": "urn:uuid:3da6065d-2017-4a7e-93ac-a0744d7cbb06"
            }
          }
        ],
        "category": [
          {
            "coding": [
              {
                "code": "26436-6",
                "system": "http://loinc.org",
                "display": "Laboratory studies (set)"
              }
            ]
          }
        ],
        "specimen": [
          {
            "reference": "urn:uuid:9fe43206-f9f1-4f35-94af-ba13870449c1"
          },
          {
            "reference": "urn:uuid:0b8d51b7-d9df-4f3a-a5b2-a89396b17385"
          },
          {
            "reference": "urn:uuid:c525026a-f15d-4810-b9f4-0dabecc85e13"
          }
        ],
        "result": [
          {
            "reference": "urn:uuid:e4bdf771-0fa6-4f6f-8a20-ab73eabb89da"
          },
          {
            "reference": "urn:uuid:da7be71f-ec3e-4a27-bb9d-53286a210b1a"
          },
          {
            "reference": "urn:uuid:03e44879-e233-4782-bc77-9e7f5491e482"
          },
          {
            "reference": "urn:uuid:8daf06c7-9ddd-4011-a8dc-7264b25bc4fe"
          },
          {
            "reference": "urn:uuid:07ab5c0a-614b-4e80-b027-b8f8f8118af6"
          },
          {
            "reference": "urn:uuid:08f9dd9a-e2fb-4192-8ffa-d919e5006ded"
          },
          {
            "reference": "urn:uuid:500a7ec6-1886-4f4e-95fa-973b8cecfbac"
          },
          {
            "reference": "urn:uuid:866652b8-9e65-4774-a0ab-385da5add7e4"
          },
          {
            "reference": "urn:uuid:5bcc27b2-75a9-4fc9-b154-6525afea216f"
          },
          {
            "reference": "urn:uuid:1f23ffd3-e079-4e60-a67d-6c58cfc0a203"
          },
          {
            "reference": "urn:uuid:41e77c8a-7c13-4892-8f37-42261c95bc0d"
          },
          {
            "reference": "urn:uuid:748c0cbe-a43b-4046-87f1-7b47e5ae06ab"
          },
          {
            "reference": "urn:uuid:8fe5285b-966c-4cd0-b11c-67e32d4eb431"
          },
          {
            "reference": "urn:uuid:ca486d5d-0cb8-44e7-aefc-556a2b04c5f2"
          },
          {
            "reference": "urn:uuid:495e1d71-2428-49bd-8aba-ef650edcdcaa"
          },
          {
            "reference": "urn:uuid:e4712a42-6b14-4f96-9dce-e941a5a4449e"
          },
          {
            "reference": "urn:uuid:d19dbeed-58a9-4b98-bdba-13376b0e5407"
          },
          {
            "reference": "urn:uuid:88a247f8-938e-4eb1-86e7-3c19e9c04e28"
          },
          {
            "reference": "urn:uuid:5ac7b254-4531-4f84-b559-6b12dfab3436"
          },
          {
            "reference": "urn:uuid:22ae01bf-3471-4c42-8751-9b88a91344cf"
          },
          {
            "reference": "urn:uuid:63f7d75f-a37f-4d61-80ec-5fed7438bf40"
          },
          {
            "reference": "urn:uuid:a100a4cb-3e2d-40b0-9c58-13beefe8da0d"
          },
          {
            "reference": "urn:uuid:9b43c00f-989e-404a-bbb6-7ff7c0a6a334"
          },
          {
            "reference": "urn:uuid:f6d8f58c-187d-4ae2-86fb-9e690345252f"
          },
          {
            "reference": "urn:uuid:4d603ea5-dce8-455d-8763-76bf02abfa15"
          },
          {
            "reference": "urn:uuid:b912314f-cd65-4969-a072-1b55ed0682e1"
          },
          {
            "reference": "urn:uuid:db6bb4f7-dd1e-4cb4-8106-d6d338d0565a"
          },
          {
            "reference": "urn:uuid:c14efb50-92d2-4be5-a8f7-bd01f9232f97"
          },
          {
            "reference": "urn:uuid:e07d4794-7569-485d-8653-f5462d743ce7"
          },
          {
            "reference": "urn:uuid:6facda8d-a6ee-4d9d-bcab-fa17e8fdb30d"
          },
          {
            "reference": "urn:uuid:130ed08d-7484-43e2-88f7-5b578cbcb835"
          },
          {
            "reference": "urn:uuid:074f2020-eda3-45f9-8508-de4446661732"
          },
          {
            "reference": "urn:uuid:1522e14e-ac38-4280-af89-e0665ac133be"
          },
          {
            "reference": "urn:uuid:345014ee-cdcf-470d-a4d5-098bfa91f675"
          }
        ],
        "status": "registered",
        "code": {
          "coding": [
            {
              "code": "11502-2",
              "system": "http://loinc.org",
              "display": "Laboratory report"
            }
          ]
        },
        "subject": {
          "reference": "urn:uuid:c51b2660-7c5d-4e53-8cf6-a65b51f45c48",
          "display": "Victor Lagarde"
        }
      }
    },
    {
      "fullUrl": "urn:uuid:c51b2660-7c5d-4e53-8cf6-a65b51f45c48",
      "resource": {
        "resourceType": "Patient",
        "id": "c51b2660-7c5d-4e53-8cf6-a65b51f45c48",
        "meta": {
          "security": [
            {
              "system": "http://terminology.hl7.org/CodeSystem/v3-ActReason",
              "code": "HTEST"
            },
            {
              "system": "http://terminology.hl7.org/CodeSystem/v3-ActReason",
              "code": "TRAIN"
            }
          ],
          "tag": [
            {
              "system": "https://synderai.net/fhir/CodeSystem/tags",
              "code": "synthetic",
              "display": "SYNDERAI Synthetic data"
            }
          ],
          "profile": [
            "http://hl7.eu/fhir/base/StructureDefinition/patient-eu-core"
          ]
        },
        "identifier": [
          {
            "type": {
              "coding": [
                {
                  "code": "PT",
                  "system": "http://terminology.hl7.org/CodeSystem/v2-0203"
                }
              ]
            },
            "system": "http://ec.europa.eu/identifier/eci",
            "value": "9925-001801-9"
          },
          {
            "type": {
              "coding": [
                {
                  "code": "MR",
                  "system": "http://terminology.hl7.org/CodeSystem/v2-0203"
                }
              ]
            },
            "system": "http://local.setting.eu/identifier",
            "value": "22c2dfd0-ac57-8833-2532-848f180896a4"
          }
        ],
        "name": [
          {
            "family": "Lagarde"
          },
          {
            "given": [
              "Victor"
            ]
          },
          {
            "text": "Victor Lagarde"
          }
        ],
        "address": [
          {
            "line": [
              "avenue Robert"
            ],
            "use": "home",
            "type": "physical",
            "postalCode": "80300",
            "city": "Albert",
            "country": "France"
          }
        ],
        "telecom": [
          {
            "system": "phone",
            "value": "0177941801"
          }
        ],
        "extension": [
          {
            "url": "http://hl7.org/fhir/StructureDefinition/patient-nationality",
            "valueCodeableConcept": {
              "coding": [
                {
                  "code": "FR",
                  "system": "http://hl7.org/fhir/ValueSet/country"
                }
              ]
            }
          }
        ],
        "text": {
          "status": "generated",
          "div": "<div xmlns=\"http://www.w3.org/1999/xhtml\"><table class=\"hl7__ips\"><tr><td>Victor Lagarde</td><td>male</td><td>31-Aug-1939</td></tr></table></div>"
        },
        "gender": "male",
        "birthDate": "1939-08-31"
      }
    },
    {
      "fullUrl": "urn:uuid:efd98f48-aa91-4b98-828a-81b87f623d98",
      "resource": {
        "resourceType": "ServiceRequest",
        "id": "efd98f48-aa91-4b98-828a-81b87f623d98",
        "meta": {
          "profile": [
            "http://hl7.eu/fhir/laboratory/StructureDefinition/ServiceRequest-eu-lab"
          ]
        },
        "identifier": [
          {
            "system": "http://example.org",
            "value": "028ef252-ac93-4863-963a-c7a18a3c5058"
          }
        ],
        "specimen": [
          {
            "reference": "urn:uuid:9fe43206-f9f1-4f35-94af-ba13870449c1"
          },
          {
            "reference": "urn:uuid:0b8d51b7-d9df-4f3a-a5b2-a89396b17385"
          },
          {
            "reference": "urn:uuid:c525026a-f15d-4810-b9f4-0dabecc85e13"
          }
        ],
        "reasonCode": [
          {
            "coding": [
              {
                "code": "433144002",
                "system": "http://snomed.info/sct",
                "display": "Chronic kidney disease stage 3"
              }
            ]
          },
          {
            "coding": [
              {
                "code": "157141000119108",
                "system": "http://snomed.info/sct",
                "display": "Proteinuria due to type 2 diabetes mellitus"
              }
            ]
          },
          {
            "coding": [
              {
                "code": "431856006",
                "system": "http://snomed.info/sct",
                "display": "Chronic kidney disease stage 2"
              }
            ]
          },
          {
            "coding": [
              {
                "code": "90781000119102",
                "system": "http://snomed.info/sct",
                "display": "Microalbuminuria due to type 2 diabetes mellitus"
              }
            ]
          },
          {
            "coding": [
              {
                "code": "127013003",
                "system": "http://snomed.info/sct",
                "display": "Disorder of kidney due to diabetes mellitus"
              }
            ]
          },
          {
            "coding": [
              {
                "code": "431855005",
                "system": "http://snomed.info/sct",
                "display": "Chronic kidney disease stage 1"
              }
            ]
          },
          {
            "coding": [
              {
                "code": "55822004",
                "system": "http://snomed.info/sct",
                "display": "Hyperlipidemia"
              }
            ]
          },
          {
            "coding": [
              {
                "code": "59621000",
                "system": "http://snomed.info/sct",
                "display": "Essential hypertension"
              }
            ]
          },
          {
            "coding": [
              {
                "code": "237602007",
                "system": "http://snomed.info/sct",
                "display": "Metabolic syndrome X"
              }
            ]
          },
          {
            "coding": [
              {
                "code": "414545008",
                "system": "http://snomed.info/sct",
                "display": "Ischemic heart disease"
              }
            ]
          },
          {
            "coding": [
              {
                "code": "40055000",
                "system": "http://snomed.info/sct",
                "display": "Chronic sinusitis"
              }
            ]
          },
          {
            "coding": [
              {
                "code": "15777000",
                "system": "http://snomed.info/sct",
                "display": "Prediabetes"
              }
            ]
          },
          {
            "coding": [
              {
                "code": "271737000",
                "system": "http://snomed.info/sct",
                "display": "Anemia"
              }
            ]
          }
        ],
        "status": "active",
        "intent": "order",
        "code": {
          "coding": [
            {
              "code": "108252007",
              "system": "http://snomed.info/sct",
              "display": "Laboratory procedure"
            }
          ]
        },
        "subject": {
          "reference": "urn:uuid:c51b2660-7c5d-4e53-8cf6-a65b51f45c48",
          "display": "Victor Lagarde"
        },
        "requester": {
          "reference": "urn:uuid:9edc6370-1bca-463f-9ba3-9a5e91e5910f"
        }
      }
    },
    {
      "fullUrl": "urn:uuid:9edc6370-1bca-463f-9ba3-9a5e91e5910f",
      "resource": {
        "resourceType": "PractitionerRole",
        "id": "9edc6370-1bca-463f-9ba3-9a5e91e5910f",
        "meta": {
          "profile": [
            "http://hl7.eu/fhir/base/StructureDefinition/practitionerRole-eu"
          ]
        },
        "text": {
          "status": "generated",
          "div": "<div xmlns=\"http://www.w3.org/1999/xhtml\">Provider Role Id: 9edc6370-1bca-463f-9ba3-9a5e91e5910f</div>"
        },
        "organization": {
          "reference": "urn:uuid:aa578d00-2804-4a4e-a1f3-3c02ec70339a"
        }
      }
    },
    {
      "fullUrl": "urn:uuid:aa578d00-2804-4a4e-a1f3-3c02ec70339a",
      "resource": {
        "resourceType": "Organization",
        "id": "aa578d00-2804-4a4e-a1f3-3c02ec70339a",
        "meta": {
          "profile": [
            "http://hl7.eu/fhir/base/StructureDefinition/organization-eu"
          ]
        },
        "identifier": [
          {
            "assigner": {
              "display": "HL7 Europe"
            },
            "system": "urn:oid:2.16.840.1.113883.2.51.999",
            "value": "17e6ac3f-00cc-4a4d-ad6f-6ea10f65f440"
          }
        ],
        "address": [
          {
            "city": "Auxerre",
            "postalCode": "89000",
            "country": "France"
          }
        ],
        "text": {
          "status": "generated",
          "div": "<div xmlns=\"http://www.w3.org/1999/xhtml\">Provider Organization: Thiriot Didier (Cardiologie)</div>"
        },
        "name": "Thiriot Didier (Cardiologie)"
      }
    },
    {
      "fullUrl": "urn:uuid:9fe43206-f9f1-4f35-94af-ba13870449c1",
      "resource": {
        "resourceType": "Specimen",
        "id": "9fe43206-f9f1-4f35-94af-ba13870449c1",
        "meta": {
          "profile": [
            "http://hl7.eu/fhir/laboratory/StructureDefinition/Specimen-eu-lab"
          ]
        },
        "collection": {
          "collectedDateTime": "2022-12-23"
        },
        "text": {
          "status": "generated",
          "div": "<div xmlns=\"http://www.w3.org/1999/xhtml\"><table class=\"hl7__eu__lab__report\"><tr><th>Specimen</th><th>Collection Date</th></tr><tr><td>Acellular blood (serum or plasma) specimen</td><td><span class=\"nb\">23-Dec-2022</span></td></tr></table></div>"
        },
        "type": {
          "coding": [
            {
              "code": "122592007",
              "system": "http://snomed.info/sct",
              "display": "Acellular blood (serum or plasma) specimen"
            }
          ]
        }
      }
    },
    {
      "fullUrl": "urn:uuid:0b8d51b7-d9df-4f3a-a5b2-a89396b17385",
      "resource": {
        "resourceType": "Specimen",
        "id": "0b8d51b7-d9df-4f3a-a5b2-a89396b17385",
        "meta": {
          "profile": [
            "http://hl7.eu/fhir/laboratory/StructureDefinition/Specimen-eu-lab"
          ]
        },
        "collection": {
          "collectedDateTime": "2022-12-23"
        },
        "text": {
          "status": "generated",
          "div": "<div xmlns=\"http://www.w3.org/1999/xhtml\"><table class=\"hl7__eu__lab__report\"><tr><th>Specimen</th><th>Collection Date</th></tr><tr><td>Urine specimen</td><td><span class=\"nb\">23-Dec-2022</span></td></tr></table></div>"
        },
        "type": {
          "coding": [
            {
              "code": "122575003",
              "system": "http://snomed.info/sct",
              "display": "Urine specimen"
            }
          ]
        }
      }
    },
    {
      "fullUrl": "urn:uuid:c525026a-f15d-4810-b9f4-0dabecc85e13",
      "resource": {
        "resourceType": "Specimen",
        "id": "c525026a-f15d-4810-b9f4-0dabecc85e13",
        "meta": {
          "profile": [
            "http://hl7.eu/fhir/laboratory/StructureDefinition/Specimen-eu-lab"
          ]
        },
        "collection": {
          "collectedDateTime": "2022-12-23"
        },
        "text": {
          "status": "generated",
          "div": "<div xmlns=\"http://www.w3.org/1999/xhtml\"><table class=\"hl7__eu__lab__report\"><tr><th>Specimen</th><th>Collection Date</th></tr><tr><td>Whole blood specimen (specimen)</td><td><span class=\"nb\">23-Dec-2022</span></td></tr></table></div>"
        },
        "type": {
          "coding": [
            {
              "code": "258580003",
              "system": "http://snomed.info/sct",
              "display": "Whole blood specimen (specimen)"
            }
          ]
        }
      }
    },
    {
      "fullUrl": "urn:uuid:e4bdf771-0fa6-4f6f-8a20-ab73eabb89da",
      "resource": {
        "resourceType": "Observation",
        "id": "e4bdf771-0fa6-4f6f-8a20-ab73eabb89da",
        "meta": {
          "profile": [
            "http://hl7.eu/fhir/laboratory/StructureDefinition/Observation-resultslab-eu-lab"
          ]
        },
        "performer": [
          {
            "display": "The Central European Lab"
          }
        ],
        "category": [
          {
            "coding": [
              {
                "system": "http://terminology.hl7.org/CodeSystem/observation-category",
                "code": "laboratory"
              }
            ]
          }
        ],
        "code": {
          "coding": [
            {
              "code": "2345-7",
              "system": "http://loinc.org",
              "display": "Glucose [Mass/volume] in Serum or Plasma"
            }
          ],
          "text": "Glucose [Mass/volume] in Serum or Plasma"
        },
        "valueQuantity": {
          "system": "http://unitsofmeasure.org",
          "value": 65.8,
          "unit": "mg/dL",
          "code": "mg/dL"
        },
        "referenceRange": [
          {
            "low": {
              "value": 70,
              "code": "mg/dL",
              "system": "http://unitsofmeasure.org"
            }
          },
          {
            "high": {
              "value": 140,
              "code": "mg/dL",
              "system": "http://unitsofmeasure.org"
            }
          }
        ],
        "interpretation": [
          {
            "coding": [
              {
                "code": "L",
                "system": "http://terminology.hl7.org/CodeSystem/v3-ObservationInterpretation",
                "display": "Low"
              }
            ]
          }
        ],
        "text": {
          "status": "generated",
          "div": "<div xmlns=\"http://www.w3.org/1999/xhtml\"><table class=\"hl7__eu__lab__report\"><tr><th>Test</th><th>23-Dec-2022</th><th>Reference&#xA0;Range</th><th>Unit</th></tr><tr><td>Glucose [Mass/volume] in Serum or Plasma</td><td>65.8</td><td>70 - 140</td><td>L</td><td>mg/dL</td></tr></table></div>"
        },
        "status": "final",
        "subject": {
          "reference": "urn:uuid:c51b2660-7c5d-4e53-8cf6-a65b51f45c48",
          "display": "Victor Lagarde"
        },
        "effectiveDateTime": "2022-12-23T04:48:18Z",
        "specimen": {
          "reference": "urn:uuid:9fe43206-f9f1-4f35-94af-ba13870449c1"
        }
      }
    },
    {
      "fullUrl": "urn:uuid:da7be71f-ec3e-4a27-bb9d-53286a210b1a",
      "resource": {
        "resourceType": "Observation",
        "id": "da7be71f-ec3e-4a27-bb9d-53286a210b1a",
        "meta": {
          "profile": [
            "http://hl7.eu/fhir/laboratory/StructureDefinition/Observation-resultslab-eu-lab"
          ]
        },
        "performer": [
          {
            "display": "The Central European Lab"
          }
        ],
        "category": [
          {
            "coding": [
              {
                "system": "http://terminology.hl7.org/CodeSystem/observation-category",
                "code": "laboratory"
              }
            ]
          }
        ],
        "code": {
          "coding": [
            {
              "code": "3094-0",
              "system": "http://loinc.org",
              "display": "Urea nitrogen [Mass/volume] in Serum or Plasma"
            }
          ],
          "text": "Urea nitrogen [Mass/volume] in Serum or Plasma"
        },
        "valueQuantity": {
          "system": "http://unitsofmeasure.org",
          "value": 15.5,
          "unit": "mg/dL",
          "code": "mg/dL"
        },
        "referenceRange": [
          {
            "low": {
              "value": 7,
              "code": "mg/dL",
              "system": "http://unitsofmeasure.org"
            }
          },
          {
            "high": {
              "value": 20,
              "code": "mg/dL",
              "system": "http://unitsofmeasure.org"
            }
          }
        ],
        "text": {
          "status": "generated",
          "div": "<div xmlns=\"http://www.w3.org/1999/xhtml\"><table class=\"hl7__eu__lab__report\"><tr><th>Test</th><th>23-Dec-2022</th><th>Reference&#xA0;Range</th><th>Unit</th></tr><tr><td>Urea nitrogen [Mass/volume] in Serum or Plasma</td><td>15.5</td><td>7 - 20</td><td></td><td>mg/dL</td></tr></table></div>"
        },
        "status": "final",
        "subject": {
          "reference": "urn:uuid:c51b2660-7c5d-4e53-8cf6-a65b51f45c48",
          "display": "Victor Lagarde"
        },
        "effectiveDateTime": "2022-12-23T04:48:18Z",
        "specimen": {
          "reference": "urn:uuid:9fe43206-f9f1-4f35-94af-ba13870449c1"
        }
      }
    },
    {
      "fullUrl": "urn:uuid:03e44879-e233-4782-bc77-9e7f5491e482",
      "resource": {
        "resourceType": "Observation",
        "id": "03e44879-e233-4782-bc77-9e7f5491e482",
        "meta": {
          "profile": [
            "http://hl7.eu/fhir/laboratory/StructureDefinition/Observation-resultslab-eu-lab"
          ]
        },
        "performer": [
          {
            "display": "The Central European Lab"
          }
        ],
        "category": [
          {
            "coding": [
              {
                "system": "http://terminology.hl7.org/CodeSystem/observation-category",
                "code": "laboratory"
              }
            ]
          }
        ],
        "code": {
          "coding": [
            {
              "code": "2160-0",
              "system": "http://loinc.org",
              "display": "Creatinine [Mass/volume] in Serum or Plasma"
            }
          ],
          "text": "Creatinine [Mass/volume] in Serum or Plasma"
        },
        "valueQuantity": {
          "system": "http://unitsofmeasure.org",
          "value": 1.9,
          "unit": "mg/dL",
          "code": "mg/dL"
        },
        "referenceRange": [
          {
            "low": {
              "value": 0.9,
              "code": "mg/dL",
              "system": "http://unitsofmeasure.org"
            }
          },
          {
            "high": {
              "value": 1.3,
              "code": "mg/dL",
              "system": "http://unitsofmeasure.org"
            }
          }
        ],
        "interpretation": [
          {
            "coding": [
              {
                "code": "H",
                "system": "http://terminology.hl7.org/CodeSystem/v3-ObservationInterpretation",
                "display": "High"
              }
            ]
          }
        ],
        "text": {
          "status": "generated",
          "div": "<div xmlns=\"http://www.w3.org/1999/xhtml\"><table class=\"hl7__eu__lab__report\"><tr><th>Test</th><th>23-Dec-2022</th><th>Reference&#xA0;Range</th><th>Unit</th></tr><tr><td>Creatinine [Mass/volume] in Serum or Plasma</td><td>1.9</td><td>0.9 - 1.3</td><td>H</td><td>mg/dL</td></tr></table></div>"
        },
        "status": "final",
        "subject": {
          "reference": "urn:uuid:c51b2660-7c5d-4e53-8cf6-a65b51f45c48",
          "display": "Victor Lagarde"
        },
        "effectiveDateTime": "2022-12-23T04:48:18Z",
        "specimen": {
          "reference": "urn:uuid:9fe43206-f9f1-4f35-94af-ba13870449c1"
        }
      }
    },
    {
      "fullUrl": "urn:uuid:8daf06c7-9ddd-4011-a8dc-7264b25bc4fe",
      "resource": {
        "resourceType": "Observation",
        "id": "8daf06c7-9ddd-4011-a8dc-7264b25bc4fe",
        "meta": {
          "profile": [
            "http://hl7.eu/fhir/laboratory/StructureDefinition/Observation-resultslab-eu-lab"
          ]
        },
        "performer": [
          {
            "display": "The Central European Lab"
          }
        ],
        "category": [
          {
            "coding": [
              {
                "system": "http://terminology.hl7.org/CodeSystem/observation-category",
                "code": "laboratory"
              }
            ]
          }
        ],
        "code": {
          "coding": [
            {
              "code": "17861-6",
              "system": "http://loinc.org",
              "display": "Calcium [Mass/volume] in Serum or Plasma"
            }
          ],
          "text": "Calcium [Mass/volume] in Serum or Plasma"
        },
        "valueQuantity": {
          "system": "http://unitsofmeasure.org",
          "value": 9.9,
          "unit": "mg/dL",
          "code": "mg/dL"
        },
        "referenceRange": [
          {
            "low": {
              "value": 8.5,
              "code": "mg/dL",
              "system": "http://unitsofmeasure.org"
            }
          },
          {
            "high": {
              "value": 10.5,
              "code": "mg/dL",
              "system": "http://unitsofmeasure.org"
            }
          }
        ],
        "text": {
          "status": "generated",
          "div": "<div xmlns=\"http://www.w3.org/1999/xhtml\"><table class=\"hl7__eu__lab__report\"><tr><th>Test</th><th>23-Dec-2022</th><th>Reference&#xA0;Range</th><th>Unit</th></tr><tr><td>Calcium [Mass/volume] in Serum or Plasma</td><td>9.9</td><td>8.5 - 10.5</td><td></td><td>mg/dL</td></tr></table></div>"
        },
        "status": "final",
        "subject": {
          "reference": "urn:uuid:c51b2660-7c5d-4e53-8cf6-a65b51f45c48",
          "display": "Victor Lagarde"
        },
        "effectiveDateTime": "2022-12-23T04:48:18Z",
        "specimen": {
          "reference": "urn:uuid:9fe43206-f9f1-4f35-94af-ba13870449c1"
        }
      }
    },
    {
      "fullUrl": "urn:uuid:07ab5c0a-614b-4e80-b027-b8f8f8118af6",
      "resource": {
        "resourceType": "Observation",
        "id": "07ab5c0a-614b-4e80-b027-b8f8f8118af6",
        "meta": {
          "profile": [
            "http://hl7.eu/fhir/laboratory/StructureDefinition/Observation-resultslab-eu-lab"
          ]
        },
        "performer": [
          {
            "display": "The Central European Lab"
          }
        ],
        "category": [
          {
            "coding": [
              {
                "system": "http://terminology.hl7.org/CodeSystem/observation-category",
                "code": "laboratory"
              }
            ]
          }
        ],
        "code": {
          "coding": [
            {
              "code": "2951-2",
              "system": "http://loinc.org",
              "display": "Sodium [Moles/volume] in Serum or Plasma"
            }
          ],
          "text": "Sodium [Moles/volume] in Serum or Plasma"
        },
        "valueQuantity": {
          "system": "http://unitsofmeasure.org",
          "value": 142.8,
          "unit": "mmol/L",
          "code": "mmol/L"
        },
        "referenceRange": [
          {
            "low": {
              "value": 135,
              "code": "mmol/L",
              "system": "http://unitsofmeasure.org"
            }
          },
          {
            "high": {
              "value": 145,
              "code": "mmol/L",
              "system": "http://unitsofmeasure.org"
            }
          }
        ],
        "text": {
          "status": "generated",
          "div": "<div xmlns=\"http://www.w3.org/1999/xhtml\"><table class=\"hl7__eu__lab__report\"><tr><th>Test</th><th>23-Dec-2022</th><th>Reference&#xA0;Range</th><th>Unit</th></tr><tr><td>Sodium [Moles/volume] in Serum or Plasma</td><td>142.8</td><td>135 - 145</td><td></td><td>mmol/L</td></tr></table></div>"
        },
        "status": "final",
        "subject": {
          "reference": "urn:uuid:c51b2660-7c5d-4e53-8cf6-a65b51f45c48",
          "display": "Victor Lagarde"
        },
        "effectiveDateTime": "2022-12-23T04:48:18Z",
        "specimen": {
          "reference": "urn:uuid:9fe43206-f9f1-4f35-94af-ba13870449c1"
        }
      }
    },
    {
      "fullUrl": "urn:uuid:08f9dd9a-e2fb-4192-8ffa-d919e5006ded",
      "resource": {
        "resourceType": "Observation",
        "id": "08f9dd9a-e2fb-4192-8ffa-d919e5006ded",
        "meta": {
          "profile": [
            "http://hl7.eu/fhir/laboratory/StructureDefinition/Observation-resultslab-eu-lab"
          ]
        },
        "performer": [
          {
            "display": "The Central European Lab"
          }
        ],
        "category": [
          {
            "coding": [
              {
                "system": "http://terminology.hl7.org/CodeSystem/observation-category",
                "code": "laboratory"
              }
            ]
          }
        ],
        "code": {
          "coding": [
            {
              "code": "2823-3",
              "system": "http://loinc.org",
              "display": "Potassium [Moles/volume] in Serum or Plasma"
            }
          ],
          "text": "Potassium [Moles/volume] in Serum or Plasma"
        },
        "valueQuantity": {
          "system": "http://unitsofmeasure.org",
          "value": 4.2,
          "unit": "mmol/L",
          "code": "mmol/L"
        },
        "referenceRange": [
          {
            "low": {
              "value": 3.5,
              "code": "mmol/L",
              "system": "http://unitsofmeasure.org"
            }
          },
          {
            "high": {
              "value": 5.3,
              "code": "mmol/L",
              "system": "http://unitsofmeasure.org"
            }
          }
        ],
        "text": {
          "status": "generated",
          "div": "<div xmlns=\"http://www.w3.org/1999/xhtml\"><table class=\"hl7__eu__lab__report\"><tr><th>Test</th><th>23-Dec-2022</th><th>Reference&#xA0;Range</th><th>Unit</th></tr><tr><td>Potassium [Moles/volume] in Serum or Plasma</td><td>4.2</td><td>3.5 - 5.3</td><td></td><td>mmol/L</td></tr></table></div>"
        },
        "status": "final",
        "subject": {
          "reference": "urn:uuid:c51b2660-7c5d-4e53-8cf6-a65b51f45c48",
          "display": "Victor Lagarde"
        },
        "effectiveDateTime": "2022-12-23T04:48:18Z",
        "specimen": {
          "reference": "urn:uuid:9fe43206-f9f1-4f35-94af-ba13870449c1"
        }
      }
    },
    {
      "fullUrl": "urn:uuid:500a7ec6-1886-4f4e-95fa-973b8cecfbac",
      "resource": {
        "resourceType": "Observation",
        "id": "500a7ec6-1886-4f4e-95fa-973b8cecfbac",
        "meta": {
          "profile": [
            "http://hl7.eu/fhir/laboratory/StructureDefinition/Observation-resultslab-eu-lab"
          ]
        },
        "performer": [
          {
            "display": "The Central European Lab"
          }
        ],
        "category": [
          {
            "coding": [
              {
                "system": "http://terminology.hl7.org/CodeSystem/observation-category",
                "code": "laboratory"
              }
            ]
          }
        ],
        "code": {
          "coding": [
            {
              "code": "2075-0",
              "system": "http://loinc.org",
              "display": "Chloride [Moles/volume] in Serum or Plasma"
            }
          ],
          "text": "Chloride [Moles/volume] in Serum or Plasma"
        },
        "valueQuantity": {
          "system": "http://unitsofmeasure.org",
          "value": 104,
          "unit": "mmol/L",
          "code": "mmol/L"
        },
        "referenceRange": [
          {
            "low": {
              "value": 98,
              "code": "mmol/L",
              "system": "http://unitsofmeasure.org"
            }
          },
          {
            "high": {
              "value": 107,
              "code": "mmol/L",
              "system": "http://unitsofmeasure.org"
            }
          }
        ],
        "text": {
          "status": "generated",
          "div": "<div xmlns=\"http://www.w3.org/1999/xhtml\"><table class=\"hl7__eu__lab__report\"><tr><th>Test</th><th>23-Dec-2022</th><th>Reference&#xA0;Range</th><th>Unit</th></tr><tr><td>Chloride [Moles/volume] in Serum or Plasma</td><td>104.0</td><td>98 - 107</td><td></td><td>mmol/L</td></tr></table></div>"
        },
        "status": "final",
        "subject": {
          "reference": "urn:uuid:c51b2660-7c5d-4e53-8cf6-a65b51f45c48",
          "display": "Victor Lagarde"
        },
        "effectiveDateTime": "2022-12-23T04:48:18Z",
        "specimen": {
          "reference": "urn:uuid:9fe43206-f9f1-4f35-94af-ba13870449c1"
        }
      }
    },
    {
      "fullUrl": "urn:uuid:866652b8-9e65-4774-a0ab-385da5add7e4",
      "resource": {
        "resourceType": "Observation",
        "id": "866652b8-9e65-4774-a0ab-385da5add7e4",
        "meta": {
          "profile": [
            "http://hl7.eu/fhir/laboratory/StructureDefinition/Observation-resultslab-eu-lab"
          ]
        },
        "performer": [
          {
            "display": "The Central European Lab"
          }
        ],
        "category": [
          {
            "coding": [
              {
                "system": "http://terminology.hl7.org/CodeSystem/observation-category",
                "code": "laboratory"
              }
            ]
          }
        ],
        "code": {
          "coding": [
            {
              "code": "2028-9",
              "system": "http://loinc.org",
              "display": "Carbon dioxide, total [Moles/volume] in Serum or Plasma"
            }
          ],
          "text": "Carbon dioxide, total [Moles/volume] in Serum or Plasma"
        },
        "valueQuantity": {
          "system": "http://unitsofmeasure.org",
          "value": 28.3,
          "unit": "mmol/L",
          "code": "mmol/L"
        },
        "referenceRange": [
          {
            "low": {
              "value": 22,
              "code": "mmol/L",
              "system": "http://unitsofmeasure.org"
            }
          },
          {
            "high": {
              "value": 33,
              "code": "mmol/L",
              "system": "http://unitsofmeasure.org"
            }
          }
        ],
        "text": {
          "status": "generated",
          "div": "<div xmlns=\"http://www.w3.org/1999/xhtml\"><table class=\"hl7__eu__lab__report\"><tr><th>Test</th><th>23-Dec-2022</th><th>Reference&#xA0;Range</th><th>Unit</th></tr><tr><td>Carbon dioxide, total [Moles/volume] in Serum or Plasma</td><td>28.3</td><td>22 - 33</td><td></td><td>mmol/L</td></tr></table></div>"
        },
        "status": "final",
        "subject": {
          "reference": "urn:uuid:c51b2660-7c5d-4e53-8cf6-a65b51f45c48",
          "display": "Victor Lagarde"
        },
        "effectiveDateTime": "2022-12-23T04:48:18Z",
        "specimen": {
          "reference": "urn:uuid:9fe43206-f9f1-4f35-94af-ba13870449c1"
        }
      }
    },
    {
      "fullUrl": "urn:uuid:5bcc27b2-75a9-4fc9-b154-6525afea216f",
      "resource": {
        "resourceType": "Observation",
        "id": "5bcc27b2-75a9-4fc9-b154-6525afea216f",
        "meta": {
          "profile": [
            "http://hl7.eu/fhir/laboratory/StructureDefinition/Observation-resultslab-eu-lab"
          ]
        },
        "performer": [
          {
            "display": "The Central European Lab"
          }
        ],
        "category": [
          {
            "coding": [
              {
                "system": "http://terminology.hl7.org/CodeSystem/observation-category",
                "code": "laboratory"
              }
            ]
          }
        ],
        "code": {
          "coding": [
            {
              "code": "5767-9",
              "system": "http://loinc.org",
              "display": "Appearance of Urine"
            }
          ],
          "text": "Appearance of Urine"
        },
        "text": {
          "status": "generated",
          "div": "<div xmlns=\"http://www.w3.org/1999/xhtml\"><table class=\"hl7__eu__lab__report\"><tr><th>Test</th><th>23-Dec-2022</th><th>Reference&#xA0;Range</th><th>Unit</th></tr><tr><td>Appearance of Urine</td></tr></table></div>"
        },
        "status": "final",
        "subject": {
          "reference": "urn:uuid:c51b2660-7c5d-4e53-8cf6-a65b51f45c48",
          "display": "Victor Lagarde"
        },
        "effectiveDateTime": "2022-12-23T04:48:18Z",
        "specimen": {
          "reference": "urn:uuid:0b8d51b7-d9df-4f3a-a5b2-a89396b17385"
        }
      }
    },
    {
      "fullUrl": "urn:uuid:1f23ffd3-e079-4e60-a67d-6c58cfc0a203",
      "resource": {
        "resourceType": "Observation",
        "id": "1f23ffd3-e079-4e60-a67d-6c58cfc0a203",
        "meta": {
          "profile": [
            "http://hl7.eu/fhir/laboratory/StructureDefinition/Observation-resultslab-eu-lab"
          ]
        },
        "performer": [
          {
            "display": "The Central European Lab"
          }
        ],
        "category": [
          {
            "coding": [
              {
                "system": "http://terminology.hl7.org/CodeSystem/observation-category",
                "code": "laboratory"
              }
            ]
          }
        ],
        "code": {
          "coding": [
            {
              "code": "34533-0",
              "system": "http://loinc.org",
              "display": "Odor of Urine"
            }
          ],
          "text": "Odor of Urine"
        },
        "text": {
          "status": "generated",
          "div": "<div xmlns=\"http://www.w3.org/1999/xhtml\"><table class=\"hl7__eu__lab__report\"><tr><th>Test</th><th>23-Dec-2022</th><th>Reference&#xA0;Range</th><th>Unit</th></tr><tr><td>Odor of Urine</td></tr></table></div>"
        },
        "status": "final",
        "subject": {
          "reference": "urn:uuid:c51b2660-7c5d-4e53-8cf6-a65b51f45c48",
          "display": "Victor Lagarde"
        },
        "effectiveDateTime": "2022-12-23T04:48:18Z",
        "specimen": {
          "reference": "urn:uuid:0b8d51b7-d9df-4f3a-a5b2-a89396b17385"
        }
      }
    },
    {
      "fullUrl": "urn:uuid:41e77c8a-7c13-4892-8f37-42261c95bc0d",
      "resource": {
        "resourceType": "Observation",
        "id": "41e77c8a-7c13-4892-8f37-42261c95bc0d",
        "meta": {
          "profile": [
            "http://hl7.eu/fhir/laboratory/StructureDefinition/Observation-resultslab-eu-lab"
          ]
        },
        "performer": [
          {
            "display": "The Central European Lab"
          }
        ],
        "category": [
          {
            "coding": [
              {
                "system": "http://terminology.hl7.org/CodeSystem/observation-category",
                "code": "laboratory"
              }
            ]
          }
        ],
        "code": {
          "coding": [
            {
              "code": "32167-9",
              "system": "http://loinc.org",
              "display": "Clarity of Urine"
            }
          ],
          "text": "Clarity of Urine"
        },
        "text": {
          "status": "generated",
          "div": "<div xmlns=\"http://www.w3.org/1999/xhtml\"><table class=\"hl7__eu__lab__report\"><tr><th>Test</th><th>23-Dec-2022</th><th>Reference&#xA0;Range</th><th>Unit</th></tr><tr><td>Clarity of Urine</td></tr></table></div>"
        },
        "status": "final",
        "subject": {
          "reference": "urn:uuid:c51b2660-7c5d-4e53-8cf6-a65b51f45c48",
          "display": "Victor Lagarde"
        },
        "effectiveDateTime": "2022-12-23T04:48:18Z",
        "specimen": {
          "reference": "urn:uuid:0b8d51b7-d9df-4f3a-a5b2-a89396b17385"
        }
      }
    },
    {
      "fullUrl": "urn:uuid:748c0cbe-a43b-4046-87f1-7b47e5ae06ab",
      "resource": {
        "resourceType": "Observation",
        "id": "748c0cbe-a43b-4046-87f1-7b47e5ae06ab",
        "meta": {
          "profile": [
            "http://hl7.eu/fhir/laboratory/StructureDefinition/Observation-resultslab-eu-lab"
          ]
        },
        "performer": [
          {
            "display": "The Central European Lab"
          }
        ],
        "category": [
          {
            "coding": [
              {
                "system": "http://terminology.hl7.org/CodeSystem/observation-category",
                "code": "laboratory"
              }
            ]
          }
        ],
        "code": {
          "coding": [
            {
              "code": "5778-6",
              "system": "http://loinc.org",
              "display": "Color of Urine"
            }
          ],
          "text": "Color of Urine"
        },
        "text": {
          "status": "generated",
          "div": "<div xmlns=\"http://www.w3.org/1999/xhtml\"><table class=\"hl7__eu__lab__report\"><tr><th>Test</th><th>23-Dec-2022</th><th>Reference&#xA0;Range</th><th>Unit</th></tr><tr><td>Color of Urine</td></tr></table></div>"
        },
        "status": "final",
        "subject": {
          "reference": "urn:uuid:c51b2660-7c5d-4e53-8cf6-a65b51f45c48",
          "display": "Victor Lagarde"
        },
        "effectiveDateTime": "2022-12-23T04:48:18Z",
        "specimen": {
          "reference": "urn:uuid:0b8d51b7-d9df-4f3a-a5b2-a89396b17385"
        }
      }
    },
    {
      "fullUrl": "urn:uuid:8fe5285b-966c-4cd0-b11c-67e32d4eb431",
      "resource": {
        "resourceType": "Observation",
        "id": "8fe5285b-966c-4cd0-b11c-67e32d4eb431",
        "meta": {
          "profile": [
            "http://hl7.eu/fhir/laboratory/StructureDefinition/Observation-resultslab-eu-lab"
          ]
        },
        "performer": [
          {
            "display": "The Central European Lab"
          }
        ],
        "category": [
          {
            "coding": [
              {
                "system": "http://terminology.hl7.org/CodeSystem/observation-category",
                "code": "laboratory"
              }
            ]
          }
        ],
        "code": {
          "coding": [
            {
              "code": "5792-7",
              "system": "http://loinc.org",
              "display": "Glucose [Mass/volume] in Urine by Test strip"
            }
          ],
          "text": "Glucose [Mass/volume] in Urine by Test strip"
        },
        "valueQuantity": {
          "system": "http://unitsofmeasure.org",
          "value": 2.2,
          "unit": "mg/dL",
          "code": "mg/dL"
        },
        "referenceRange": [
          {
            "low": {
              "value": 0,
              "code": "mg/dL",
              "system": "http://unitsofmeasure.org"
            }
          },
          {
            "high": {
              "value": 0.8,
              "code": "mg/dL",
              "system": "http://unitsofmeasure.org"
            }
          }
        ],
        "interpretation": [
          {
            "coding": [
              {
                "code": "H",
                "system": "http://terminology.hl7.org/CodeSystem/v3-ObservationInterpretation",
                "display": "High"
              }
            ]
          }
        ],
        "text": {
          "status": "generated",
          "div": "<div xmlns=\"http://www.w3.org/1999/xhtml\"><table class=\"hl7__eu__lab__report\"><tr><th>Test</th><th>23-Dec-2022</th><th>Reference&#xA0;Range</th><th>Unit</th></tr><tr><td>Glucose [Mass/volume] in Urine by Test strip</td><td>2.2</td><td>0 - 0.8</td><td>H</td><td>mg/dL</td></tr></table></div>"
        },
        "status": "final",
        "subject": {
          "reference": "urn:uuid:c51b2660-7c5d-4e53-8cf6-a65b51f45c48",
          "display": "Victor Lagarde"
        },
        "effectiveDateTime": "2022-12-23T04:48:18Z",
        "specimen": {
          "reference": "urn:uuid:0b8d51b7-d9df-4f3a-a5b2-a89396b17385"
        }
      }
    },
    {
      "fullUrl": "urn:uuid:ca486d5d-0cb8-44e7-aefc-556a2b04c5f2",
      "resource": {
        "resourceType": "Observation",
        "id": "ca486d5d-0cb8-44e7-aefc-556a2b04c5f2",
        "meta": {
          "profile": [
            "http://hl7.eu/fhir/laboratory/StructureDefinition/Observation-resultslab-eu-lab"
          ]
        },
        "performer": [
          {
            "display": "The Central European Lab"
          }
        ],
        "category": [
          {
            "coding": [
              {
                "system": "http://terminology.hl7.org/CodeSystem/observation-category",
                "code": "laboratory"
              }
            ]
          }
        ],
        "code": {
          "coding": [
            {
              "code": "25428-4",
              "system": "http://loinc.org",
              "display": "Glucose [Presence] in Urine by Test strip"
            }
          ],
          "text": "Glucose [Presence] in Urine by Test strip"
        },
        "text": {
          "status": "generated",
          "div": "<div xmlns=\"http://www.w3.org/1999/xhtml\"><table class=\"hl7__eu__lab__report\"><tr><th>Test</th><th>23-Dec-2022</th><th>Reference&#xA0;Range</th><th>Unit</th></tr><tr><td>Glucose [Presence] in Urine by Test strip</td></tr></table></div>"
        },
        "status": "final",
        "subject": {
          "reference": "urn:uuid:c51b2660-7c5d-4e53-8cf6-a65b51f45c48",
          "display": "Victor Lagarde"
        },
        "effectiveDateTime": "2022-12-23T04:48:18Z",
        "specimen": {
          "reference": "urn:uuid:0b8d51b7-d9df-4f3a-a5b2-a89396b17385"
        }
      }
    },
    {
      "fullUrl": "urn:uuid:495e1d71-2428-49bd-8aba-ef650edcdcaa",
      "resource": {
        "resourceType": "Observation",
        "id": "495e1d71-2428-49bd-8aba-ef650edcdcaa",
        "meta": {
          "profile": [
            "http://hl7.eu/fhir/laboratory/StructureDefinition/Observation-resultslab-eu-lab"
          ]
        },
        "performer": [
          {
            "display": "The Central European Lab"
          }
        ],
        "category": [
          {
            "coding": [
              {
                "system": "http://terminology.hl7.org/CodeSystem/observation-category",
                "code": "laboratory"
              }
            ]
          }
        ],
        "code": {
          "coding": [
            {
              "code": "20505-4",
              "system": "http://loinc.org",
              "display": "Bilirubin.total [Mass/volume] in Urine by Test strip"
            }
          ],
          "text": "Bilirubin.total [Mass/volume] in Urine by Test strip"
        },
        "valueQuantity": {
          "system": "http://unitsofmeasure.org",
          "value": 1.4,
          "unit": "mg/dL",
          "code": "mg/dL"
        },
        "referenceRange": [
          {
            "low": {
              "value": 0,
              "code": "mg/dL",
              "system": "http://unitsofmeasure.org"
            }
          },
          {
            "high": {
              "value": 1.9,
              "code": "mg/dL",
              "system": "http://unitsofmeasure.org"
            }
          }
        ],
        "text": {
          "status": "generated",
          "div": "<div xmlns=\"http://www.w3.org/1999/xhtml\"><table class=\"hl7__eu__lab__report\"><tr><th>Test</th><th>23-Dec-2022</th><th>Reference&#xA0;Range</th><th>Unit</th></tr><tr><td>Bilirubin.total [Mass/volume] in Urine by Test strip</td><td>1.4</td><td>0 - 1.9</td><td></td><td>mg/dL</td></tr></table></div>"
        },
        "status": "final",
        "subject": {
          "reference": "urn:uuid:c51b2660-7c5d-4e53-8cf6-a65b51f45c48",
          "display": "Victor Lagarde"
        },
        "effectiveDateTime": "2022-12-23T04:48:18Z",
        "specimen": {
          "reference": "urn:uuid:0b8d51b7-d9df-4f3a-a5b2-a89396b17385"
        }
      }
    },
    {
      "fullUrl": "urn:uuid:e4712a42-6b14-4f96-9dce-e941a5a4449e",
      "resource": {
        "resourceType": "Observation",
        "id": "e4712a42-6b14-4f96-9dce-e941a5a4449e",
        "meta": {
          "profile": [
            "http://hl7.eu/fhir/laboratory/StructureDefinition/Observation-resultslab-eu-lab"
          ]
        },
        "performer": [
          {
            "display": "The Central European Lab"
          }
        ],
        "category": [
          {
            "coding": [
              {
                "system": "http://terminology.hl7.org/CodeSystem/observation-category",
                "code": "laboratory"
              }
            ]
          }
        ],
        "code": {
          "coding": [
            {
              "code": "5770-3",
              "system": "http://loinc.org",
              "display": "Bilirubin.total [Presence] in Urine by Test strip"
            }
          ],
          "text": "Bilirubin.total [Presence] in Urine by Test strip"
        },
        "text": {
          "status": "generated",
          "div": "<div xmlns=\"http://www.w3.org/1999/xhtml\"><table class=\"hl7__eu__lab__report\"><tr><th>Test</th><th>23-Dec-2022</th><th>Reference&#xA0;Range</th><th>Unit</th></tr><tr><td>Bilirubin.total [Presence] in Urine by Test strip</td></tr></table></div>"
        },
        "status": "final",
        "subject": {
          "reference": "urn:uuid:c51b2660-7c5d-4e53-8cf6-a65b51f45c48",
          "display": "Victor Lagarde"
        },
        "effectiveDateTime": "2022-12-23T04:48:18Z",
        "specimen": {
          "reference": "urn:uuid:0b8d51b7-d9df-4f3a-a5b2-a89396b17385"
        }
      }
    },
    {
      "fullUrl": "urn:uuid:d19dbeed-58a9-4b98-bdba-13376b0e5407",
      "resource": {
        "resourceType": "Observation",
        "id": "d19dbeed-58a9-4b98-bdba-13376b0e5407",
        "meta": {
          "profile": [
            "http://hl7.eu/fhir/laboratory/StructureDefinition/Observation-resultslab-eu-lab"
          ]
        },
        "performer": [
          {
            "display": "The Central European Lab"
          }
        ],
        "category": [
          {
            "coding": [
              {
                "system": "http://terminology.hl7.org/CodeSystem/observation-category",
                "code": "laboratory"
              }
            ]
          }
        ],
        "code": {
          "coding": [
            {
              "code": "5797-6",
              "system": "http://loinc.org",
              "display": "Ketones [Mass/volume] in Urine by Test strip"
            }
          ],
          "text": "Ketones [Mass/volume] in Urine by Test strip"
        },
        "valueQuantity": {
          "system": "http://unitsofmeasure.org",
          "value": 10.3,
          "unit": "mg/dL",
          "code": "mg/dL"
        },
        "referenceRange": [
          {
            "low": {
              "value": 0,
              "code": "mg/dL",
              "system": "http://unitsofmeasure.org"
            }
          },
          {
            "high": {
              "value": 3,
              "code": "mg/dL",
              "system": "http://unitsofmeasure.org"
            }
          }
        ],
        "interpretation": [
          {
            "coding": [
              {
                "code": "H",
                "system": "http://terminology.hl7.org/CodeSystem/v3-ObservationInterpretation",
                "display": "High"
              }
            ]
          }
        ],
        "text": {
          "status": "generated",
          "div": "<div xmlns=\"http://www.w3.org/1999/xhtml\"><table class=\"hl7__eu__lab__report\"><tr><th>Test</th><th>23-Dec-2022</th><th>Reference&#xA0;Range</th><th>Unit</th></tr><tr><td>Ketones [Mass/volume] in Urine by Test strip</td><td>10.3</td><td>0 - 3</td><td>H</td><td>mg/dL</td></tr></table></div>"
        },
        "status": "final",
        "subject": {
          "reference": "urn:uuid:c51b2660-7c5d-4e53-8cf6-a65b51f45c48",
          "display": "Victor Lagarde"
        },
        "effectiveDateTime": "2022-12-23T04:48:18Z",
        "specimen": {
          "reference": "urn:uuid:0b8d51b7-d9df-4f3a-a5b2-a89396b17385"
        }
      }
    },
    {
      "fullUrl": "urn:uuid:88a247f8-938e-4eb1-86e7-3c19e9c04e28",
      "resource": {
        "resourceType": "Observation",
        "id": "88a247f8-938e-4eb1-86e7-3c19e9c04e28",
        "meta": {
          "profile": [
            "http://hl7.eu/fhir/laboratory/StructureDefinition/Observation-resultslab-eu-lab"
          ]
        },
        "performer": [
          {
            "display": "The Central European Lab"
          }
        ],
        "category": [
          {
            "coding": [
              {
                "system": "http://terminology.hl7.org/CodeSystem/observation-category",
                "code": "laboratory"
              }
            ]
          }
        ],
        "code": {
          "coding": [
            {
              "code": "2514-8",
              "system": "http://loinc.org",
              "display": "Ketones [Presence] in Urine by Test strip"
            }
          ],
          "text": "Ketones [Presence] in Urine by Test strip"
        },
        "text": {
          "status": "generated",
          "div": "<div xmlns=\"http://www.w3.org/1999/xhtml\"><table class=\"hl7__eu__lab__report\"><tr><th>Test</th><th>23-Dec-2022</th><th>Reference&#xA0;Range</th><th>Unit</th></tr><tr><td>Ketones [Presence] in Urine by Test strip</td></tr></table></div>"
        },
        "status": "final",
        "subject": {
          "reference": "urn:uuid:c51b2660-7c5d-4e53-8cf6-a65b51f45c48",
          "display": "Victor Lagarde"
        },
        "effectiveDateTime": "2022-12-23T04:48:18Z",
        "specimen": {
          "reference": "urn:uuid:0b8d51b7-d9df-4f3a-a5b2-a89396b17385"
        }
      }
    },
    {
      "fullUrl": "urn:uuid:5ac7b254-4531-4f84-b559-6b12dfab3436",
      "resource": {
        "resourceType": "Observation",
        "id": "5ac7b254-4531-4f84-b559-6b12dfab3436",
        "meta": {
          "profile": [
            "http://hl7.eu/fhir/laboratory/StructureDefinition/Observation-resultslab-eu-lab"
          ]
        },
        "performer": [
          {
            "display": "The Central European Lab"
          }
        ],
        "category": [
          {
            "coding": [
              {
                "system": "http://terminology.hl7.org/CodeSystem/observation-category",
                "code": "laboratory"
              }
            ]
          }
        ],
        "code": {
          "coding": [
            {
              "code": "5811-5",
              "system": "http://loinc.org",
              "display": "Specific gravity of Urine by Test strip"
            }
          ],
          "text": "Specific gravity of Urine by Test strip"
        },
        "valueQuantity": {
          "system": "http://unitsofmeasure.org",
          "value": 1,
          "unit": "{nominal}",
          "code": "{nominal}"
        },
        "referenceRange": [
          {
            "low": {
              "value": 1.01,
              "code": "g/mL",
              "system": "http://unitsofmeasure.org"
            }
          },
          {
            "high": {
              "value": 1.03,
              "code": "g/mL",
              "system": "http://unitsofmeasure.org"
            }
          }
        ],
        "interpretation": [
          {
            "coding": [
              {
                "code": "L",
                "system": "http://terminology.hl7.org/CodeSystem/v3-ObservationInterpretation",
                "display": "Low"
              }
            ]
          }
        ],
        "text": {
          "status": "generated",
          "div": "<div xmlns=\"http://www.w3.org/1999/xhtml\"><table class=\"hl7__eu__lab__report\"><tr><th>Test</th><th>23-Dec-2022</th><th>Reference&#xA0;Range</th><th>Unit</th></tr><tr><td>Specific gravity of Urine by Test strip</td><td>1.0</td><td>1.01 - 1.03</td><td>L</td><td>{nominal}</td></tr></table></div>"
        },
        "status": "final",
        "subject": {
          "reference": "urn:uuid:c51b2660-7c5d-4e53-8cf6-a65b51f45c48",
          "display": "Victor Lagarde"
        },
        "effectiveDateTime": "2022-12-23T04:48:18Z",
        "specimen": {
          "reference": "urn:uuid:0b8d51b7-d9df-4f3a-a5b2-a89396b17385"
        }
      }
    },
    {
      "fullUrl": "urn:uuid:22ae01bf-3471-4c42-8751-9b88a91344cf",
      "resource": {
        "resourceType": "Observation",
        "id": "22ae01bf-3471-4c42-8751-9b88a91344cf",
        "meta": {
          "profile": [
            "http://hl7.eu/fhir/laboratory/StructureDefinition/Observation-resultslab-eu-lab"
          ]
        },
        "performer": [
          {
            "display": "The Central European Lab"
          }
        ],
        "category": [
          {
            "coding": [
              {
                "system": "http://terminology.hl7.org/CodeSystem/observation-category",
                "code": "laboratory"
              }
            ]
          }
        ],
        "code": {
          "coding": [
            {
              "code": "5803-2",
              "system": "http://loinc.org",
              "display": "pH of Urine by Test strip"
            }
          ],
          "text": "pH of Urine by Test strip"
        },
        "valueQuantity": {
          "system": "http://unitsofmeasure.org",
          "value": 5.3,
          "unit": "pH",
          "code": "pH"
        },
        "referenceRange": [
          {
            "low": {
              "value": 4.5,
              "code": "pH",
              "system": "http://unitsofmeasure.org"
            }
          },
          {
            "high": {
              "value": 7.5,
              "code": "pH",
              "system": "http://unitsofmeasure.org"
            }
          }
        ],
        "text": {
          "status": "generated",
          "div": "<div xmlns=\"http://www.w3.org/1999/xhtml\"><table class=\"hl7__eu__lab__report\"><tr><th>Test</th><th>23-Dec-2022</th><th>Reference&#xA0;Range</th><th>Unit</th></tr><tr><td>pH of Urine by Test strip</td><td>5.3</td><td>4.5 - 7.5</td><td></td><td>pH</td></tr></table></div>"
        },
        "status": "final",
        "subject": {
          "reference": "urn:uuid:c51b2660-7c5d-4e53-8cf6-a65b51f45c48",
          "display": "Victor Lagarde"
        },
        "effectiveDateTime": "2022-12-23T04:48:18Z",
        "specimen": {
          "reference": "urn:uuid:0b8d51b7-d9df-4f3a-a5b2-a89396b17385"
        }
      }
    },
    {
      "fullUrl": "urn:uuid:63f7d75f-a37f-4d61-80ec-5fed7438bf40",
      "resource": {
        "resourceType": "Observation",
        "id": "63f7d75f-a37f-4d61-80ec-5fed7438bf40",
        "meta": {
          "profile": [
            "http://hl7.eu/fhir/laboratory/StructureDefinition/Observation-resultslab-eu-lab"
          ]
        },
        "performer": [
          {
            "display": "The Central European Lab"
          }
        ],
        "category": [
          {
            "coding": [
              {
                "system": "http://terminology.hl7.org/CodeSystem/observation-category",
                "code": "laboratory"
              }
            ]
          }
        ],
        "code": {
          "coding": [
            {
              "code": "5804-0",
              "system": "http://loinc.org",
              "display": "Protein [Mass/volume] in Urine by Test strip"
            }
          ],
          "text": "Protein [Mass/volume] in Urine by Test strip"
        },
        "valueQuantity": {
          "system": "http://unitsofmeasure.org",
          "value": 275.3,
          "unit": "mg/dL",
          "code": "mg/dL"
        },
        "referenceRange": [
          {
            "low": {
              "value": 0,
              "code": "mg/dL",
              "system": "http://unitsofmeasure.org"
            }
          },
          {
            "high": {
              "value": 149,
              "code": "mg/dL",
              "system": "http://unitsofmeasure.org"
            }
          }
        ],
        "interpretation": [
          {
            "coding": [
              {
                "code": "H",
                "system": "http://terminology.hl7.org/CodeSystem/v3-ObservationInterpretation",
                "display": "High"
              }
            ]
          }
        ],
        "text": {
          "status": "generated",
          "div": "<div xmlns=\"http://www.w3.org/1999/xhtml\"><table class=\"hl7__eu__lab__report\"><tr><th>Test</th><th>23-Dec-2022</th><th>Reference&#xA0;Range</th><th>Unit</th></tr><tr><td>Protein [Mass/volume] in Urine by Test strip</td><td>275.3</td><td>0 - 149</td><td>H</td><td>mg/dL</td></tr></table></div>"
        },
        "status": "final",
        "subject": {
          "reference": "urn:uuid:c51b2660-7c5d-4e53-8cf6-a65b51f45c48",
          "display": "Victor Lagarde"
        },
        "effectiveDateTime": "2022-12-23T04:48:18Z",
        "specimen": {
          "reference": "urn:uuid:0b8d51b7-d9df-4f3a-a5b2-a89396b17385"
        }
      }
    },
    {
      "fullUrl": "urn:uuid:a100a4cb-3e2d-40b0-9c58-13beefe8da0d",
      "resource": {
        "resourceType": "Observation",
        "id": "a100a4cb-3e2d-40b0-9c58-13beefe8da0d",
        "meta": {
          "profile": [
            "http://hl7.eu/fhir/laboratory/StructureDefinition/Observation-resultslab-eu-lab"
          ]
        },
        "performer": [
          {
            "display": "The Central European Lab"
          }
        ],
        "category": [
          {
            "coding": [
              {
                "system": "http://terminology.hl7.org/CodeSystem/observation-category",
                "code": "laboratory"
              }
            ]
          }
        ],
        "code": {
          "coding": [
            {
              "code": "20454-5",
              "system": "http://loinc.org",
              "display": "Protein [Presence] in Urine by Test strip"
            }
          ],
          "text": "Protein [Presence] in Urine by Test strip"
        },
        "text": {
          "status": "generated",
          "div": "<div xmlns=\"http://www.w3.org/1999/xhtml\"><table class=\"hl7__eu__lab__report\"><tr><th>Test</th><th>23-Dec-2022</th><th>Reference&#xA0;Range</th><th>Unit</th></tr><tr><td>Protein [Presence] in Urine by Test strip</td></tr></table></div>"
        },
        "status": "final",
        "subject": {
          "reference": "urn:uuid:c51b2660-7c5d-4e53-8cf6-a65b51f45c48",
          "display": "Victor Lagarde"
        },
        "effectiveDateTime": "2022-12-23T04:48:18Z",
        "specimen": {
          "reference": "urn:uuid:0b8d51b7-d9df-4f3a-a5b2-a89396b17385"
        }
      }
    },
    {
      "fullUrl": "urn:uuid:9b43c00f-989e-404a-bbb6-7ff7c0a6a334",
      "resource": {
        "resourceType": "Observation",
        "id": "9b43c00f-989e-404a-bbb6-7ff7c0a6a334",
        "meta": {
          "profile": [
            "http://hl7.eu/fhir/laboratory/StructureDefinition/Observation-resultslab-eu-lab"
          ]
        },
        "performer": [
          {
            "display": "The Central European Lab"
          }
        ],
        "category": [
          {
            "coding": [
              {
                "system": "http://terminology.hl7.org/CodeSystem/observation-category",
                "code": "laboratory"
              }
            ]
          }
        ],
        "code": {
          "coding": [
            {
              "code": "5802-4",
              "system": "http://loinc.org",
              "display": "Nitrite [Presence] in Urine by Test strip"
            }
          ],
          "text": "Nitrite [Presence] in Urine by Test strip"
        },
        "text": {
          "status": "generated",
          "div": "<div xmlns=\"http://www.w3.org/1999/xhtml\"><table class=\"hl7__eu__lab__report\"><tr><th>Test</th><th>23-Dec-2022</th><th>Reference&#xA0;Range</th><th>Unit</th></tr><tr><td>Nitrite [Presence] in Urine by Test strip</td></tr></table></div>"
        },
        "status": "final",
        "subject": {
          "reference": "urn:uuid:c51b2660-7c5d-4e53-8cf6-a65b51f45c48",
          "display": "Victor Lagarde"
        },
        "effectiveDateTime": "2022-12-23T04:48:18Z",
        "specimen": {
          "reference": "urn:uuid:0b8d51b7-d9df-4f3a-a5b2-a89396b17385"
        }
      }
    },
    {
      "fullUrl": "urn:uuid:f6d8f58c-187d-4ae2-86fb-9e690345252f",
      "resource": {
        "resourceType": "Observation",
        "id": "f6d8f58c-187d-4ae2-86fb-9e690345252f",
        "meta": {
          "profile": [
            "http://hl7.eu/fhir/laboratory/StructureDefinition/Observation-resultslab-eu-lab"
          ]
        },
        "performer": [
          {
            "display": "The Central European Lab"
          }
        ],
        "category": [
          {
            "coding": [
              {
                "system": "http://terminology.hl7.org/CodeSystem/observation-category",
                "code": "laboratory"
              }
            ]
          }
        ],
        "code": {
          "coding": [
            {
              "code": "5794-3",
              "system": "http://loinc.org",
              "display": "Hemoglobin [Presence] in Urine by Test strip"
            }
          ],
          "text": "Hemoglobin [Presence] in Urine by Test strip"
        },
        "text": {
          "status": "generated",
          "div": "<div xmlns=\"http://www.w3.org/1999/xhtml\"><table class=\"hl7__eu__lab__report\"><tr><th>Test</th><th>23-Dec-2022</th><th>Reference&#xA0;Range</th><th>Unit</th></tr><tr><td>Hemoglobin [Presence] in Urine by Test strip</td></tr></table></div>"
        },
        "status": "final",
        "subject": {
          "reference": "urn:uuid:c51b2660-7c5d-4e53-8cf6-a65b51f45c48",
          "display": "Victor Lagarde"
        },
        "effectiveDateTime": "2022-12-23T04:48:18Z",
        "specimen": {
          "reference": "urn:uuid:0b8d51b7-d9df-4f3a-a5b2-a89396b17385"
        }
      }
    },
    {
      "fullUrl": "urn:uuid:4d603ea5-dce8-455d-8763-76bf02abfa15",
      "resource": {
        "resourceType": "Observation",
        "id": "4d603ea5-dce8-455d-8763-76bf02abfa15",
        "meta": {
          "profile": [
            "http://hl7.eu/fhir/laboratory/StructureDefinition/Observation-resultslab-eu-lab"
          ]
        },
        "performer": [
          {
            "display": "The Central European Lab"
          }
        ],
        "category": [
          {
            "coding": [
              {
                "system": "http://terminology.hl7.org/CodeSystem/observation-category",
                "code": "laboratory"
              }
            ]
          }
        ],
        "code": {
          "coding": [
            {
              "code": "5799-2",
              "system": "http://loinc.org",
              "display": "Leukocyte esterase [Presence] in Urine by Test strip"
            }
          ],
          "text": "Leukocyte esterase [Presence] in Urine by Test strip"
        },
        "text": {
          "status": "generated",
          "div": "<div xmlns=\"http://www.w3.org/1999/xhtml\"><table class=\"hl7__eu__lab__report\"><tr><th>Test</th><th>23-Dec-2022</th><th>Reference&#xA0;Range</th><th>Unit</th></tr><tr><td>Leukocyte esterase [Presence] in Urine by Test strip</td></tr></table></div>"
        },
        "status": "final",
        "subject": {
          "reference": "urn:uuid:c51b2660-7c5d-4e53-8cf6-a65b51f45c48",
          "display": "Victor Lagarde"
        },
        "effectiveDateTime": "2022-12-23T04:48:18Z",
        "specimen": {
          "reference": "urn:uuid:0b8d51b7-d9df-4f3a-a5b2-a89396b17385"
        }
      }
    },
    {
      "fullUrl": "urn:uuid:b912314f-cd65-4969-a072-1b55ed0682e1",
      "resource": {
        "resourceType": "Observation",
        "id": "b912314f-cd65-4969-a072-1b55ed0682e1",
        "meta": {
          "profile": [
            "http://hl7.eu/fhir/laboratory/StructureDefinition/Observation-resultslab-eu-lab"
          ]
        },
        "performer": [
          {
            "display": "The Central European Lab"
          }
        ],
        "category": [
          {
            "coding": [
              {
                "system": "http://terminology.hl7.org/CodeSystem/observation-category",
                "code": "laboratory"
              }
            ]
          }
        ],
        "code": {
          "coding": [
            {
              "code": "4548-4",
              "system": "http://loinc.org",
              "display": "Hemoglobin A1c/Hemoglobin.total in Blood"
            }
          ],
          "text": "Hemoglobin A1c/Hemoglobin.total in Blood"
        },
        "valueQuantity": {
          "system": "http://unitsofmeasure.org",
          "value": 3,
          "unit": "%",
          "code": "%"
        },
        "referenceRange": [
          {
            "low": {
              "value": 4.3,
              "code": "%",
              "system": "http://unitsofmeasure.org"
            }
          },
          {
            "high": {
              "value": 6,
              "code": "%",
              "system": "http://unitsofmeasure.org"
            }
          }
        ],
        "interpretation": [
          {
            "coding": [
              {
                "code": "L",
                "system": "http://terminology.hl7.org/CodeSystem/v3-ObservationInterpretation",
                "display": "Low"
              }
            ]
          }
        ],
        "text": {
          "status": "generated",
          "div": "<div xmlns=\"http://www.w3.org/1999/xhtml\"><table class=\"hl7__eu__lab__report\"><tr><th>Test</th><th>23-Dec-2022</th><th>Reference&#xA0;Range</th><th>Unit</th></tr><tr><td>Hemoglobin A1c/Hemoglobin.total in Blood</td><td>3.0</td><td>4.3 - 6</td><td>L</td><td>%</td></tr></table></div>"
        },
        "status": "final",
        "subject": {
          "reference": "urn:uuid:c51b2660-7c5d-4e53-8cf6-a65b51f45c48",
          "display": "Victor Lagarde"
        },
        "effectiveDateTime": "2022-12-23T04:48:18Z",
        "specimen": {
          "reference": "urn:uuid:c525026a-f15d-4810-b9f4-0dabecc85e13"
        }
      }
    },
    {
      "fullUrl": "urn:uuid:db6bb4f7-dd1e-4cb4-8106-d6d338d0565a",
      "resource": {
        "resourceType": "Observation",
        "id": "db6bb4f7-dd1e-4cb4-8106-d6d338d0565a",
        "meta": {
          "profile": [
            "http://hl7.eu/fhir/laboratory/StructureDefinition/Observation-resultslab-eu-lab"
          ]
        },
        "performer": [
          {
            "display": "The Central European Lab"
          }
        ],
        "category": [
          {
            "coding": [
              {
                "system": "http://terminology.hl7.org/CodeSystem/observation-category",
                "code": "laboratory"
              }
            ]
          }
        ],
        "code": {
          "coding": [
            {
              "code": "2339-0",
              "system": "http://loinc.org",
              "display": "Glucose [Mass/volume] in Blood"
            }
          ],
          "text": "Glucose [Mass/volume] in Blood"
        },
        "valueQuantity": {
          "system": "http://unitsofmeasure.org",
          "value": 65.8,
          "unit": "mg/dL",
          "code": "mg/dL"
        },
        "referenceRange": [
          {
            "low": {
              "value": 70,
              "code": "mg/dL",
              "system": "http://unitsofmeasure.org"
            }
          },
          {
            "high": {
              "value": 140,
              "code": "mg/dL",
              "system": "http://unitsofmeasure.org"
            }
          }
        ],
        "interpretation": [
          {
            "coding": [
              {
                "code": "L",
                "system": "http://terminology.hl7.org/CodeSystem/v3-ObservationInterpretation",
                "display": "Low"
              }
            ]
          }
        ],
        "text": {
          "status": "generated",
          "div": "<div xmlns=\"http://www.w3.org/1999/xhtml\"><table class=\"hl7__eu__lab__report\"><tr><th>Test</th><th>23-Dec-2022</th><th>Reference&#xA0;Range</th><th>Unit</th></tr><tr><td>Glucose [Mass/volume] in Blood</td><td>65.8</td><td>70 - 140</td><td>L</td><td>mg/dL</td></tr></table></div>"
        },
        "status": "final",
        "subject": {
          "reference": "urn:uuid:c51b2660-7c5d-4e53-8cf6-a65b51f45c48",
          "display": "Victor Lagarde"
        },
        "effectiveDateTime": "2022-12-23T04:48:18Z",
        "specimen": {
          "reference": "urn:uuid:c525026a-f15d-4810-b9f4-0dabecc85e13"
        }
      }
    },
    {
      "fullUrl": "urn:uuid:c14efb50-92d2-4be5-a8f7-bd01f9232f97",
      "resource": {
        "resourceType": "Observation",
        "id": "c14efb50-92d2-4be5-a8f7-bd01f9232f97",
        "meta": {
          "profile": [
            "http://hl7.eu/fhir/laboratory/StructureDefinition/Observation-resultslab-eu-lab"
          ]
        },
        "performer": [
          {
            "display": "The Central European Lab"
          }
        ],
        "category": [
          {
            "coding": [
              {
                "system": "http://terminology.hl7.org/CodeSystem/observation-category",
                "code": "laboratory"
              }
            ]
          }
        ],
        "code": {
          "coding": [
            {
              "code": "6299-2",
              "system": "http://loinc.org",
              "display": "Urea nitrogen [Mass/volume] in Blood"
            }
          ],
          "text": "Urea nitrogen [Mass/volume] in Blood"
        },
        "valueQuantity": {
          "system": "http://unitsofmeasure.org",
          "value": 15.5,
          "unit": "mg/dL",
          "code": "mg/dL"
        },
        "referenceRange": [
          {
            "low": {
              "value": 7,
              "code": "mg/dL",
              "system": "http://unitsofmeasure.org"
            }
          },
          {
            "high": {
              "value": 20,
              "code": "mg/dL",
              "system": "http://unitsofmeasure.org"
            }
          }
        ],
        "text": {
          "status": "generated",
          "div": "<div xmlns=\"http://www.w3.org/1999/xhtml\"><table class=\"hl7__eu__lab__report\"><tr><th>Test</th><th>23-Dec-2022</th><th>Reference&#xA0;Range</th><th>Unit</th></tr><tr><td>Urea nitrogen [Mass/volume] in Blood</td><td>15.5</td><td>7 - 20</td><td></td><td>mg/dL</td></tr></table></div>"
        },
        "status": "final",
        "subject": {
          "reference": "urn:uuid:c51b2660-7c5d-4e53-8cf6-a65b51f45c48",
          "display": "Victor Lagarde"
        },
        "effectiveDateTime": "2022-12-23T04:48:18Z",
        "specimen": {
          "reference": "urn:uuid:c525026a-f15d-4810-b9f4-0dabecc85e13"
        }
      }
    },
    {
      "fullUrl": "urn:uuid:e07d4794-7569-485d-8653-f5462d743ce7",
      "resource": {
        "resourceType": "Observation",
        "id": "e07d4794-7569-485d-8653-f5462d743ce7",
        "meta": {
          "profile": [
            "http://hl7.eu/fhir/laboratory/StructureDefinition/Observation-resultslab-eu-lab"
          ]
        },
        "performer": [
          {
            "display": "The Central European Lab"
          }
        ],
        "category": [
          {
            "coding": [
              {
                "system": "http://terminology.hl7.org/CodeSystem/observation-category",
                "code": "laboratory"
              }
            ]
          }
        ],
        "code": {
          "coding": [
            {
              "code": "38483-4",
              "system": "http://loinc.org",
              "display": "Creatinine [Mass/volume] in Blood"
            }
          ],
          "text": "Creatinine [Mass/volume] in Blood"
        },
        "valueQuantity": {
          "system": "http://unitsofmeasure.org",
          "value": 3.8,
          "unit": "mg/dL",
          "code": "mg/dL"
        },
        "referenceRange": [
          {
            "low": {
              "value": 0.9,
              "code": "mg/dL",
              "system": "http://unitsofmeasure.org"
            }
          },
          {
            "high": {
              "value": 1.3,
              "code": "mg/dL",
              "system": "http://unitsofmeasure.org"
            }
          }
        ],
        "interpretation": [
          {
            "coding": [
              {
                "code": "H",
                "system": "http://terminology.hl7.org/CodeSystem/v3-ObservationInterpretation",
                "display": "High"
              }
            ]
          }
        ],
        "text": {
          "status": "generated",
          "div": "<div xmlns=\"http://www.w3.org/1999/xhtml\"><table class=\"hl7__eu__lab__report\"><tr><th>Test</th><th>23-Dec-2022</th><th>Reference&#xA0;Range</th><th>Unit</th></tr><tr><td>Creatinine [Mass/volume] in Blood</td><td>3.8</td><td>0.9 - 1.3</td><td>H</td><td>mg/dL</td></tr></table></div>"
        },
        "status": "final",
        "subject": {
          "reference": "urn:uuid:c51b2660-7c5d-4e53-8cf6-a65b51f45c48",
          "display": "Victor Lagarde"
        },
        "effectiveDateTime": "2022-12-23T04:48:18Z",
        "specimen": {
          "reference": "urn:uuid:c525026a-f15d-4810-b9f4-0dabecc85e13"
        }
      }
    },
    {
      "fullUrl": "urn:uuid:6facda8d-a6ee-4d9d-bcab-fa17e8fdb30d",
      "resource": {
        "resourceType": "Observation",
        "id": "6facda8d-a6ee-4d9d-bcab-fa17e8fdb30d",
        "meta": {
          "profile": [
            "http://hl7.eu/fhir/laboratory/StructureDefinition/Observation-resultslab-eu-lab"
          ]
        },
        "performer": [
          {
            "display": "The Central European Lab"
          }
        ],
        "category": [
          {
            "coding": [
              {
                "system": "http://terminology.hl7.org/CodeSystem/observation-category",
                "code": "laboratory"
              }
            ]
          }
        ],
        "code": {
          "coding": [
            {
              "code": "49765-1",
              "system": "http://loinc.org",
              "display": "Calcium [Mass/volume] in Blood"
            }
          ],
          "text": "Calcium [Mass/volume] in Blood"
        },
        "valueQuantity": {
          "system": "http://unitsofmeasure.org",
          "value": 9.9,
          "unit": "mg/dL",
          "code": "mg/dL"
        },
        "referenceRange": [
          {
            "low": {
              "value": 8.5,
              "code": "mg/dL",
              "system": "http://unitsofmeasure.org"
            }
          },
          {
            "high": {
              "value": 10.5,
              "code": "mg/dL",
              "system": "http://unitsofmeasure.org"
            }
          }
        ],
        "text": {
          "status": "generated",
          "div": "<div xmlns=\"http://www.w3.org/1999/xhtml\"><table class=\"hl7__eu__lab__report\"><tr><th>Test</th><th>23-Dec-2022</th><th>Reference&#xA0;Range</th><th>Unit</th></tr><tr><td>Calcium [Mass/volume] in Blood</td><td>9.9</td><td>8.5 - 10.5</td><td></td><td>mg/dL</td></tr></table></div>"
        },
        "status": "final",
        "subject": {
          "reference": "urn:uuid:c51b2660-7c5d-4e53-8cf6-a65b51f45c48",
          "display": "Victor Lagarde"
        },
        "effectiveDateTime": "2022-12-23T04:48:18Z",
        "specimen": {
          "reference": "urn:uuid:c525026a-f15d-4810-b9f4-0dabecc85e13"
        }
      }
    },
    {
      "fullUrl": "urn:uuid:130ed08d-7484-43e2-88f7-5b578cbcb835",
      "resource": {
        "resourceType": "Observation",
        "id": "130ed08d-7484-43e2-88f7-5b578cbcb835",
        "meta": {
          "profile": [
            "http://hl7.eu/fhir/laboratory/StructureDefinition/Observation-resultslab-eu-lab"
          ]
        },
        "performer": [
          {
            "display": "The Central European Lab"
          }
        ],
        "category": [
          {
            "coding": [
              {
                "system": "http://terminology.hl7.org/CodeSystem/observation-category",
                "code": "laboratory"
              }
            ]
          }
        ],
        "code": {
          "coding": [
            {
              "code": "2947-0",
              "system": "http://loinc.org",
              "display": "Sodium [Moles/volume] in Blood"
            }
          ],
          "text": "Sodium [Moles/volume] in Blood"
        },
        "valueQuantity": {
          "system": "http://unitsofmeasure.org",
          "value": 142.8,
          "unit": "mmol/L",
          "code": "mmol/L"
        },
        "referenceRange": [
          {
            "low": {
              "value": 135,
              "code": "mmol/L",
              "system": "http://unitsofmeasure.org"
            }
          },
          {
            "high": {
              "value": 145,
              "code": "mmol/L",
              "system": "http://unitsofmeasure.org"
            }
          }
        ],
        "text": {
          "status": "generated",
          "div": "<div xmlns=\"http://www.w3.org/1999/xhtml\"><table class=\"hl7__eu__lab__report\"><tr><th>Test</th><th>23-Dec-2022</th><th>Reference&#xA0;Range</th><th>Unit</th></tr><tr><td>Sodium [Moles/volume] in Blood</td><td>142.8</td><td>135 - 145</td><td></td><td>mmol/L</td></tr></table></div>"
        },
        "status": "final",
        "subject": {
          "reference": "urn:uuid:c51b2660-7c5d-4e53-8cf6-a65b51f45c48",
          "display": "Victor Lagarde"
        },
        "effectiveDateTime": "2022-12-23T04:48:18Z",
        "specimen": {
          "reference": "urn:uuid:c525026a-f15d-4810-b9f4-0dabecc85e13"
        }
      }
    },
    {
      "fullUrl": "urn:uuid:074f2020-eda3-45f9-8508-de4446661732",
      "resource": {
        "resourceType": "Observation",
        "id": "074f2020-eda3-45f9-8508-de4446661732",
        "meta": {
          "profile": [
            "http://hl7.eu/fhir/laboratory/StructureDefinition/Observation-resultslab-eu-lab"
          ]
        },
        "performer": [
          {
            "display": "The Central European Lab"
          }
        ],
        "category": [
          {
            "coding": [
              {
                "system": "http://terminology.hl7.org/CodeSystem/observation-category",
                "code": "laboratory"
              }
            ]
          }
        ],
        "code": {
          "coding": [
            {
              "code": "6298-4",
              "system": "http://loinc.org",
              "display": "Potassium [Moles/volume] in Blood"
            }
          ],
          "text": "Potassium [Moles/volume] in Blood"
        },
        "valueQuantity": {
          "system": "http://unitsofmeasure.org",
          "value": 4.2,
          "unit": "mmol/L",
          "code": "mmol/L"
        },
        "referenceRange": [
          {
            "low": {
              "value": 3.5,
              "code": "mmol/L",
              "system": "http://unitsofmeasure.org"
            }
          },
          {
            "high": {
              "value": 5.1,
              "code": "mmol/L",
              "system": "http://unitsofmeasure.org"
            }
          }
        ],
        "text": {
          "status": "generated",
          "div": "<div xmlns=\"http://www.w3.org/1999/xhtml\"><table class=\"hl7__eu__lab__report\"><tr><th>Test</th><th>23-Dec-2022</th><th>Reference&#xA0;Range</th><th>Unit</th></tr><tr><td>Potassium [Moles/volume] in Blood</td><td>4.2</td><td>3.5 - 5.1</td><td></td><td>mmol/L</td></tr></table></div>"
        },
        "status": "final",
        "subject": {
          "reference": "urn:uuid:c51b2660-7c5d-4e53-8cf6-a65b51f45c48",
          "display": "Victor Lagarde"
        },
        "effectiveDateTime": "2022-12-23T04:48:18Z",
        "specimen": {
          "reference": "urn:uuid:c525026a-f15d-4810-b9f4-0dabecc85e13"
        }
      }
    },
    {
      "fullUrl": "urn:uuid:1522e14e-ac38-4280-af89-e0665ac133be",
      "resource": {
        "resourceType": "Observation",
        "id": "1522e14e-ac38-4280-af89-e0665ac133be",
        "meta": {
          "profile": [
            "http://hl7.eu/fhir/laboratory/StructureDefinition/Observation-resultslab-eu-lab"
          ]
        },
        "performer": [
          {
            "display": "The Central European Lab"
          }
        ],
        "category": [
          {
            "coding": [
              {
                "system": "http://terminology.hl7.org/CodeSystem/observation-category",
                "code": "laboratory"
              }
            ]
          }
        ],
        "code": {
          "coding": [
            {
              "code": "2069-3",
              "system": "http://loinc.org",
              "display": "Chloride [Moles/volume] in Blood"
            }
          ],
          "text": "Chloride [Moles/volume] in Blood"
        },
        "valueQuantity": {
          "system": "http://unitsofmeasure.org",
          "value": 104,
          "unit": "mmol/L",
          "code": "mmol/L"
        },
        "referenceRange": [
          {
            "low": {
              "value": 98,
              "code": "mmol/L",
              "system": "http://unitsofmeasure.org"
            }
          },
          {
            "high": {
              "value": 108,
              "code": "mmol/L",
              "system": "http://unitsofmeasure.org"
            }
          }
        ],
        "text": {
          "status": "generated",
          "div": "<div xmlns=\"http://www.w3.org/1999/xhtml\"><table class=\"hl7__eu__lab__report\"><tr><th>Test</th><th>23-Dec-2022</th><th>Reference&#xA0;Range</th><th>Unit</th></tr><tr><td>Chloride [Moles/volume] in Blood</td><td>104.0</td><td>98 - 108</td><td></td><td>mmol/L</td></tr></table></div>"
        },
        "status": "final",
        "subject": {
          "reference": "urn:uuid:c51b2660-7c5d-4e53-8cf6-a65b51f45c48",
          "display": "Victor Lagarde"
        },
        "effectiveDateTime": "2022-12-23T04:48:18Z",
        "specimen": {
          "reference": "urn:uuid:c525026a-f15d-4810-b9f4-0dabecc85e13"
        }
      }
    },
    {
      "fullUrl": "urn:uuid:345014ee-cdcf-470d-a4d5-098bfa91f675",
      "resource": {
        "resourceType": "Observation",
        "id": "345014ee-cdcf-470d-a4d5-098bfa91f675",
        "meta": {
          "profile": [
            "http://hl7.eu/fhir/laboratory/StructureDefinition/Observation-resultslab-eu-lab"
          ]
        },
        "performer": [
          {
            "display": "The Central European Lab"
          }
        ],
        "category": [
          {
            "coding": [
              {
                "system": "http://terminology.hl7.org/CodeSystem/observation-category",
                "code": "laboratory"
              }
            ]
          }
        ],
        "code": {
          "coding": [
            {
              "code": "20565-8",
              "system": "http://loinc.org",
              "display": "Carbon dioxide, total [Moles/volume] in Blood"
            }
          ],
          "text": "Carbon dioxide, total [Moles/volume] in Blood"
        },
        "valueQuantity": {
          "system": "http://unitsofmeasure.org",
          "value": 28.3,
          "unit": "mmol/L",
          "code": "mmol/L"
        },
        "referenceRange": [
          {
            "low": {
              "value": 22,
              "code": "mmol/L",
              "system": "http://unitsofmeasure.org"
            }
          },
          {
            "high": {
              "value": 29,
              "code": "mmol/L",
              "system": "http://unitsofmeasure.org"
            }
          }
        ],
        "text": {
          "status": "generated",
          "div": "<div xmlns=\"http://www.w3.org/1999/xhtml\"><table class=\"hl7__eu__lab__report\"><tr><th>Test</th><th>23-Dec-2022</th><th>Reference&#xA0;Range</th><th>Unit</th></tr><tr><td>Carbon dioxide, total [Moles/volume] in Blood</td><td>28.3</td><td>22 - 29</td><td></td><td>mmol/L</td></tr></table></div>"
        },
        "status": "final",
        "subject": {
          "reference": "urn:uuid:c51b2660-7c5d-4e53-8cf6-a65b51f45c48",
          "display": "Victor Lagarde"
        },
        "effectiveDateTime": "2022-12-23T04:48:18Z",
        "specimen": {
          "reference": "urn:uuid:c525026a-f15d-4810-b9f4-0dabecc85e13"
        }
      }
    },
    {
      "fullUrl": "urn:uuid:6b823ad7-2715-4a48-8cf3-692552c96cbb",
      "resource": {
        "resourceType": "Device",
        "id": "6b823ad7-2715-4a48-8cf3-692552c96cbb",
        "deviceName": [
          {
            "name": "SYNDERAI Synthetic Generator",
            "type": "manufacturer-name"
          }
        ],
        "version": [
          {
            "value": "5.0"
          }
        ],
        "text": {
          "status": "generated",
          "div": "<div xmlns=\"http://www.w3.org/1999/xhtml\">SYNDERAI Synthetic Generator v5.0</div>"
        },
        "status": "active\"",
        "distinctIdentifier": "synderai-generator-50",
        "manufacturer": "SYNDERAI Project"
      }
    },
    {
      "fullUrl": "urn:uuid:0499dbe0-852f-4921-8bf6-9eeb91bb3a54",
      "resource": {
        "resourceType": "Provenance",
        "id": "0499dbe0-852f-4921-8bf6-9eeb91bb3a54",
        "target": [
          {
            "reference": "Patient/c51b2660-7c5d-4e53-8cf6-a65b51f45c48"
          },
          {
            "reference": "Bundle/8f812806-1ef7-4194-8d96-54657a44fc5a"
          },
          {
            "reference": "Composition/2f9fd8ec-5006-4e18-b51f-bcea79f51ff6"
          },
          {
            "reference": "PractitionerRole/1a214250-a11a-44a7-928a-fd0bc54d1dce"
          },
          {
            "reference": "Practitioner/645d3c6a-8f44-49dd-86bb-ec3ad48acb4f"
          },
          {
            "reference": "PractitionerRole/9edc6370-1bca-463f-9ba3-9a5e91e5910f"
          },
          {
            "reference": "Organization/aa578d00-2804-4a4e-a1f3-3c02ec70339a"
          }
        ],
        "activity": {
          "text": "Synthetic Example Data Generation"
        },
        "policy": [
          "https://synderai.net/synderai-synthetic-data-policy"
        ],
        "agent": [
          {
            "type": {
              "text": "author"
            },
            "who": {
              "reference": "Device/6b823ad7-2715-4a48-8cf3-692552c96cbb"
            }
          }
        ],
        "reason": [
          {
            "text": "Interoperability Testing and Training (non-clinical use)"
          }
        ],
        "text": {
          "status": "generated",
          "div": "<div xmlns=\"http://www.w3.org/1999/xhtml\">Provenance for SYNDERAI Synthetic Example Data Resource</div>"
        },
        "recorded": "2022-12-23T05:48:18Z"
      }
    },
    {
      "fullUrl": "urn:uuid:1a214250-a11a-44a7-928a-fd0bc54d1dce",
      "resource": {
        "resourceType": "PractitionerRole",
        "id": "1a214250-a11a-44a7-928a-fd0bc54d1dce",
        "meta": {
          "profile": [
            "http://hl7.eu/fhir/base/StructureDefinition/practitionerRole-eu"
          ]
        },
        "text": {
          "status": "generated",
          "div": "<div xmlns=\"http://www.w3.org/1999/xhtml\">Laboratory Role Id: 1a214250-a11a-44a7-928a-fd0bc54d1dce</div>"
        },
        "practitioner": {
          "reference": "urn:uuid:645d3c6a-8f44-49dd-86bb-ec3ad48acb4f"
        }
      }
    },
    {
      "fullUrl": "urn:uuid:645d3c6a-8f44-49dd-86bb-ec3ad48acb4f",
      "resource": {
        "resourceType": "Practitioner",
        "id": "645d3c6a-8f44-49dd-86bb-ec3ad48acb4f",
        "meta": {
          "profile": [
            "http://hl7.eu/fhir/base/StructureDefinition/practitioner-eu"
          ]
        },
        "identifier": [
          {
            "assigner": {
              "display": "HL7 Europe"
            },
            "system": "urn:oid:2.16.840.1.113883.2.51.999",
            "value": "b51f4d4c-bd17-415b-9378-8e02e685c460"
          }
        ],
        "name": [
          {
            "prefix": [
              "dr"
            ],
            "given": [
              "Ex"
            ],
            "family": "Ample"
          }
        ],
        "address": [
          {
            "line": [
              "Laboratoire Central Europenne",
              "Boulevard du Jardin Botanique 32"
            ],
            "postalCode": "1000",
            "city": "Brussels",
            "country": "Belgium"
          }
        ],
        "text": {
          "status": "generated",
          "div": "<div xmlns=\"http://www.w3.org/1999/xhtml\">Laboratory: Laboratoire Central Europenne, 1000 Brussels, Belgium</div>"
        }
      }
    }
  ],
  "type": "document",
  "timestamp": "2022-12-23T05:48:18Z"
}
