{
  "resourceType": "Bundle",
  "id": "35b9d544-ae23-4d68-8c90-2e6d44ed0b57",
  "meta": {
    "profile": [
      "http://hl7.eu/fhir/laboratory/StructureDefinition/Bundle-eu-lab"
    ]
  },
  "identifier": {
    "assigner": {
      "display": "HL7 Europe"
    },
    "system": "urn:oid:2.16.840.1.113883.2.51.999",
    "value": "3d357f10-da48-42e8-beef-30d36b059a22"
  },
  "entry": [
    {
      "fullUrl": "urn:uuid:a823e9be-5b89-4465-9beb-0723e32a62ed",
      "resource": {
        "resourceType": "Composition",
        "id": "a823e9be-5b89-4465-9beb-0723e32a62ed",
        "meta": {
          "profile": [
            "http://hl7.eu/fhir/laboratory/StructureDefinition/Composition-eu-lab"
          ]
        },
        "identifier": {
          "assigner": {
            "display": "HL7 Europe"
          },
          "system": "urn:oid:2.16.840.1.113883.2.51.999",
          "value": "c5abf2e0-7824-4574-a8f4-526c7e8519d3"
        },
        "author": [
          {
            "reference": "urn:uuid:26e8018d-a8fd-4533-bda1-0cecc3776fcd"
          }
        ],
        "category": [
          {
            "coding": [
              {
                "code": "26436-6",
                "system": "http://loinc.org",
                "display": "Laboratory studies (set)"
              }
            ]
          }
        ],
        "type": {
          "coding": [
            {
              "code": "11502-2",
              "system": "http://loinc.org",
              "display": "Laboratory report"
            }
          ],
          "text": "Laboratory Report"
        },
        "section": [
          {
            "code": {
              "coding": [
                {
                  "code": "26436-6",
                  "system": "http://loinc.org",
                  "display": "Laboratory studies (set)"
                }
              ],
              "text": "Laboratory studies"
            },
            "section": [
              {
                "code": {
                  "coding": [
                    {
                      "code": "$18719-5",
                      "system": "http://loinc.org",
                      "display": "Chemistry studies (set)"
                    }
                  ],
                  "text": "Chemistry"
                },
                "entry": [
                  {
                    "reference": "urn:uuid:ddf1d86b-defe-4b45-8c6b-d197bc050e9d"
                  },
                  {
                    "reference": "urn:uuid:0ec3f06b-cbb1-41a3-ad18-b3a0203b3aae"
                  },
                  {
                    "reference": "urn:uuid:afa162bf-3250-437b-add1-c2b6d510b166"
                  },
                  {
                    "reference": "urn:uuid:a341a9c3-427f-42e0-b4a5-68e41899b730"
                  }
                ],
                "text": {
                  "status": "generated",
                  "div": "<div xmlns=\"http://www.w3.org/1999/xhtml\"><h3>Chemistry</h3><table class=\"hl7__eu__lab__report\"><thead><tr><th>Test</th><th>19-JAN-2025</th><th>Reference&#xA0;Range</th><th>Unit</th></tr></thead><tbody><tr><td>Cholesterol [Mass/volume] in Serum or Plasma</td><td><strong>255.1 H</strong></td><td>0 - 200</td><td>mg/dL</td></tr><tr><td>Triglyceride [Mass/volume] in Serum or Plasma</td><td>110.8</td><td>0 - 150</td><td>mg/dL</td></tr><tr><td>Cholesterol in LDL [Mass/volume] in Serum or Plasma by Direct assay</td><td><strong>181.2 H</strong></td><td>0 - 130</td><td>mg/dL</td></tr><tr><td>Cholesterol in HDL [Mass/volume] in Serum or Plasma</td><td>51.8</td><td>40 - 60</td><td>mg/dL</td></tr></tbody></table></div>"
                },
                "title": "Chemistry"
              }
            ],
            "title": "Laboratory Report"
          },
          {
            "text": {
              "status": "generated",
              "div": "<div xmlns=\"http://www.w3.org/1999/xhtml\"><h3>Annotation</h3><table class=\"hl7__eu__lab__report\"><tr><th>Conclusion and Recommendations based on this report and previous findings known to us</th></tr><tr><td>The patient shows elevated total cholesterol and LDL cholesterol, while triglycerides and HDL cholesterol are within normal limits. These findings indicate increased cardiovascular risk, primarily due to high LDL. Clinical correlation and consideration of lifestyle modification or lipid-lowering therapy are recommended.</td></tr></table></div>"
            },
            "code": {
              "coding": [
                {
                  "system": "http://loinc.org",
                  "code": "48767-8",
                  "display": "Annotation comment"
                }
              ]
            },
            "title": "Annotation comment"
          }
        ],
        "status": "final",
        "subject": {
          "reference": "urn:uuid:c8ff7f5a-342a-4313-a22d-ef2654d1dc7b",
          "display": "Russell Khan"
        },
        "date": "2025-01-19T14:31:07Z",
        "title": "Laboratory Report",
        "confidentiality": "N"
      }
    },
    {
      "fullUrl": "urn:uuid:70561901-fef4-40ff-9ac6-322d0fe7097c",
      "resource": {
        "resourceType": "DiagnosticReport",
        "id": "70561901-fef4-40ff-9ac6-322d0fe7097c",
        "meta": {
          "profile": [
            "http://hl7.eu/fhir/laboratory/StructureDefinition/DiagnosticReport-eu-lab"
          ]
        },
        "identifier": [
          {
            "assigner": {
              "display": "HL7 Europe"
            },
            "system": "urn:oid:2.16.840.1.113883.2.51.999",
            "value": "a33e93c1-f554-4f73-a87b-5245b07c98b8"
          }
        ],
        "extension": [
          {
            "url": "http://hl7.org/fhir/5.0/StructureDefinition/extension-DiagnosticReport.composition",
            "valueReference": {
              "reference": "urn:uuid:c5abf2e0-7824-4574-a8f4-526c7e8519d3"
            }
          }
        ],
        "category": [
          {
            "coding": [
              {
                "code": "26436-6",
                "system": "http://loinc.org",
                "display": "Laboratory studies (set)"
              }
            ]
          }
        ],
        "specimen": [
          {
            "reference": "urn:uuid:538671d5-ba3a-4d72-b617-ee1451f3ae53"
          }
        ],
        "result": [
          {
            "reference": "urn:uuid:ddf1d86b-defe-4b45-8c6b-d197bc050e9d"
          },
          {
            "reference": "urn:uuid:0ec3f06b-cbb1-41a3-ad18-b3a0203b3aae"
          },
          {
            "reference": "urn:uuid:afa162bf-3250-437b-add1-c2b6d510b166"
          },
          {
            "reference": "urn:uuid:a341a9c3-427f-42e0-b4a5-68e41899b730"
          }
        ],
        "status": "registered",
        "code": {
          "coding": [
            {
              "code": "11502-2",
              "system": "http://loinc.org",
              "display": "Laboratory report"
            }
          ]
        },
        "subject": {
          "reference": "urn:uuid:c8ff7f5a-342a-4313-a22d-ef2654d1dc7b",
          "display": "Russell Khan"
        }
      }
    },
    {
      "fullUrl": "urn:uuid:c8ff7f5a-342a-4313-a22d-ef2654d1dc7b",
      "resource": {
        "resourceType": "Patient",
        "id": "c8ff7f5a-342a-4313-a22d-ef2654d1dc7b",
        "meta": {
          "security": [
            {
              "system": "http://terminology.hl7.org/CodeSystem/v3-ActReason",
              "code": "HTEST"
            },
            {
              "system": "http://terminology.hl7.org/CodeSystem/v3-ActReason",
              "code": "TRAIN"
            }
          ],
          "tag": [
            {
              "system": "https://synderai.net/fhir/CodeSystem/tags",
              "code": "synthetic",
              "display": "SYNDERAI Synthetic data"
            }
          ],
          "profile": [
            "http://hl7.eu/fhir/base/StructureDefinition/patient-eu-core"
          ]
        },
        "identifier": [
          {
            "type": {
              "coding": [
                {
                  "code": "PT",
                  "system": "http://terminology.hl7.org/CodeSystem/v2-0203"
                }
              ]
            },
            "system": "http://ec.europa.eu/identifier/eci",
            "value": "7982-255119-2"
          },
          {
            "type": {
              "coding": [
                {
                  "code": "MR",
                  "system": "http://terminology.hl7.org/CodeSystem/v2-0203"
                }
              ]
            },
            "system": "http://local.setting.eu/identifier",
            "value": "7070b0e2-4aa2-c981-d552-92289a13285c"
          }
        ],
        "name": [
          {
            "family": "Khan"
          },
          {
            "given": [
              "Russell"
            ]
          },
          {
            "text": "Russell Khan"
          }
        ],
        "address": [
          {
            "line": [
              "1 Holly well"
            ],
            "use": "home",
            "type": "physical",
            "postalCode": "B9",
            "city": "Allantown",
            "country": "United Kingdom"
          }
        ],
        "telecom": [
          {
            "system": "phone",
            "value": "0115 4960345"
          }
        ],
        "extension": [
          {
            "url": "http://hl7.org/fhir/StructureDefinition/patient-nationality",
            "valueCodeableConcept": {
              "coding": [
                {
                  "code": "GB",
                  "system": "http://hl7.org/fhir/ValueSet/country"
                }
              ]
            }
          }
        ],
        "text": {
          "status": "generated",
          "div": "<div xmlns=\"http://www.w3.org/1999/xhtml\"><table class=\"hl7__ips\"><tr><td>Russell Khan</td><td>male</td><td>29-Aug-1980</td></tr></table></div>"
        },
        "gender": "male",
        "birthDate": "1980-08-29"
      }
    },
    {
      "fullUrl": "urn:uuid:dbc01fb7-99a3-426b-badb-711af8834218",
      "resource": {
        "resourceType": "ServiceRequest",
        "id": "dbc01fb7-99a3-426b-badb-711af8834218",
        "meta": {
          "profile": [
            "http://hl7.eu/fhir/laboratory/StructureDefinition/ServiceRequest-eu-lab"
          ]
        },
        "identifier": [
          {
            "system": "http://example.org",
            "value": "7ab709f2-c438-4d04-ad9d-8ae2604ce790"
          }
        ],
        "specimen": [
          {
            "reference": "urn:uuid:538671d5-ba3a-4d72-b617-ee1451f3ae53"
          }
        ],
        "reasonCode": [
          {
            "coding": [
              {
                "code": "59621000",
                "system": "http://snomed.info/sct",
                "display": "Essential hypertension"
              }
            ]
          }
        ],
        "status": "active",
        "intent": "order",
        "code": {
          "coding": [
            {
              "code": "108252007",
              "system": "http://snomed.info/sct",
              "display": "Laboratory procedure"
            }
          ]
        },
        "subject": {
          "reference": "urn:uuid:c8ff7f5a-342a-4313-a22d-ef2654d1dc7b",
          "display": "Russell Khan"
        },
        "requester": {
          "reference": "urn:uuid:4f12482a-d69e-4426-8def-bfc26f774d25"
        }
      }
    },
    {
      "fullUrl": "urn:uuid:4f12482a-d69e-4426-8def-bfc26f774d25",
      "resource": {
        "resourceType": "PractitionerRole",
        "id": "4f12482a-d69e-4426-8def-bfc26f774d25",
        "meta": {
          "profile": [
            "http://hl7.eu/fhir/base/StructureDefinition/practitionerRole-eu"
          ]
        },
        "text": {
          "status": "generated",
          "div": "<div xmlns=\"http://www.w3.org/1999/xhtml\">Provider Role Id: 4f12482a-d69e-4426-8def-bfc26f774d25</div>"
        },
        "organization": {
          "reference": "urn:uuid:d8dddc9b-f8ff-4651-ac29-8d2405c74aa5"
        }
      }
    },
    {
      "fullUrl": "urn:uuid:d8dddc9b-f8ff-4651-ac29-8d2405c74aa5",
      "resource": {
        "resourceType": "Organization",
        "id": "d8dddc9b-f8ff-4651-ac29-8d2405c74aa5",
        "meta": {
          "profile": [
            "http://hl7.eu/fhir/base/StructureDefinition/organization-eu"
          ]
        },
        "identifier": [
          {
            "assigner": {
              "display": "HL7 Europe"
            },
            "system": "urn:oid:2.16.840.1.113883.2.51.999",
            "value": "9f64f067-c887-4eb8-915c-1b7ef5b4f393"
          }
        ],
        "address": [
          {
            "city": "Birmingham",
            "postalCode": "B4 6",
            "country": "United Kingdom"
          }
        ],
        "text": {
          "status": "generated",
          "div": "<div xmlns=\"http://www.w3.org/1999/xhtml\">Provider Organization: Birmingham Children&#039;s Hospital</div>"
        },
        "name": "Birmingham Children&#039;s Hospital"
      }
    },
    {
      "fullUrl": "urn:uuid:538671d5-ba3a-4d72-b617-ee1451f3ae53",
      "resource": {
        "resourceType": "Specimen",
        "id": "538671d5-ba3a-4d72-b617-ee1451f3ae53",
        "meta": {
          "profile": [
            "http://hl7.eu/fhir/laboratory/StructureDefinition/Specimen-eu-lab"
          ]
        },
        "collection": {
          "collectedDateTime": "2025-01-19"
        },
        "text": {
          "status": "generated",
          "div": "<div xmlns=\"http://www.w3.org/1999/xhtml\"><table class=\"hl7__eu__lab__report\"><tr><th>Specimen</th><th>Collection Date</th></tr><tr><td>Acellular blood (serum or plasma) specimen</td><td><span class=\"nb\">19-Jan-2025</span></td></tr></table></div>"
        },
        "type": {
          "coding": [
            {
              "code": "122592007",
              "system": "http://snomed.info/sct",
              "display": "Acellular blood (serum or plasma) specimen"
            }
          ]
        }
      }
    },
    {
      "fullUrl": "urn:uuid:ddf1d86b-defe-4b45-8c6b-d197bc050e9d",
      "resource": {
        "resourceType": "Observation",
        "id": "ddf1d86b-defe-4b45-8c6b-d197bc050e9d",
        "meta": {
          "profile": [
            "http://hl7.eu/fhir/laboratory/StructureDefinition/Observation-resultslab-eu-lab"
          ]
        },
        "performer": [
          {
            "display": "The Central European Lab"
          }
        ],
        "category": [
          {
            "coding": [
              {
                "system": "http://terminology.hl7.org/CodeSystem/observation-category",
                "code": "laboratory"
              }
            ]
          }
        ],
        "code": {
          "coding": [
            {
              "code": "2093-3",
              "system": "http://loinc.org",
              "display": "Cholesterol [Mass/volume] in Serum or Plasma"
            }
          ],
          "text": "Cholesterol [Mass/volume] in Serum or Plasma"
        },
        "valueQuantity": {
          "system": "http://unitsofmeasure.org",
          "value": 255.1,
          "unit": "mg/dL",
          "code": "mg/dL"
        },
        "referenceRange": [
          {
            "low": {
              "value": 0,
              "code": "mg/dL",
              "system": "http://unitsofmeasure.org"
            }
          },
          {
            "high": {
              "value": 200,
              "code": "mg/dL",
              "system": "http://unitsofmeasure.org"
            }
          }
        ],
        "interpretation": [
          {
            "coding": [
              {
                "code": "H",
                "system": "http://terminology.hl7.org/CodeSystem/v3-ObservationInterpretation",
                "display": "High"
              }
            ]
          }
        ],
        "text": {
          "status": "generated",
          "div": "<div xmlns=\"http://www.w3.org/1999/xhtml\"><table class=\"hl7__eu__lab__report\"><tr><th>Test</th><th>19-Jan-2025</th><th>Reference&#xA0;Range</th><th>Unit</th></tr><tr><td>Cholesterol [Mass/volume] in Serum or Plasma</td><td>255.1</td><td>0 - 200</td><td>H</td><td>mg/dL</td></tr></table></div>"
        },
        "status": "final",
        "subject": {
          "reference": "urn:uuid:c8ff7f5a-342a-4313-a22d-ef2654d1dc7b",
          "display": "Russell Khan"
        },
        "effectiveDateTime": "2025-01-19T13:31:07Z",
        "specimen": {
          "reference": "urn:uuid:538671d5-ba3a-4d72-b617-ee1451f3ae53"
        }
      }
    },
    {
      "fullUrl": "urn:uuid:0ec3f06b-cbb1-41a3-ad18-b3a0203b3aae",
      "resource": {
        "resourceType": "Observation",
        "id": "0ec3f06b-cbb1-41a3-ad18-b3a0203b3aae",
        "meta": {
          "profile": [
            "http://hl7.eu/fhir/laboratory/StructureDefinition/Observation-resultslab-eu-lab"
          ]
        },
        "performer": [
          {
            "display": "The Central European Lab"
          }
        ],
        "category": [
          {
            "coding": [
              {
                "system": "http://terminology.hl7.org/CodeSystem/observation-category",
                "code": "laboratory"
              }
            ]
          }
        ],
        "code": {
          "coding": [
            {
              "code": "2571-8",
              "system": "http://loinc.org",
              "display": "Triglyceride [Mass/volume] in Serum or Plasma"
            }
          ],
          "text": "Triglyceride [Mass/volume] in Serum or Plasma"
        },
        "valueQuantity": {
          "system": "http://unitsofmeasure.org",
          "value": 110.8,
          "unit": "mg/dL",
          "code": "mg/dL"
        },
        "referenceRange": [
          {
            "low": {
              "value": 0,
              "code": "mg/dL",
              "system": "http://unitsofmeasure.org"
            }
          },
          {
            "high": {
              "value": 150,
              "code": "mg/dL",
              "system": "http://unitsofmeasure.org"
            }
          }
        ],
        "text": {
          "status": "generated",
          "div": "<div xmlns=\"http://www.w3.org/1999/xhtml\"><table class=\"hl7__eu__lab__report\"><tr><th>Test</th><th>19-Jan-2025</th><th>Reference&#xA0;Range</th><th>Unit</th></tr><tr><td>Triglyceride [Mass/volume] in Serum or Plasma</td><td>110.8</td><td>0 - 150</td><td></td><td>mg/dL</td></tr></table></div>"
        },
        "status": "final",
        "subject": {
          "reference": "urn:uuid:c8ff7f5a-342a-4313-a22d-ef2654d1dc7b",
          "display": "Russell Khan"
        },
        "effectiveDateTime": "2025-01-19T13:31:07Z",
        "specimen": {
          "reference": "urn:uuid:538671d5-ba3a-4d72-b617-ee1451f3ae53"
        }
      }
    },
    {
      "fullUrl": "urn:uuid:afa162bf-3250-437b-add1-c2b6d510b166",
      "resource": {
        "resourceType": "Observation",
        "id": "afa162bf-3250-437b-add1-c2b6d510b166",
        "meta": {
          "profile": [
            "http://hl7.eu/fhir/laboratory/StructureDefinition/Observation-resultslab-eu-lab"
          ]
        },
        "performer": [
          {
            "display": "The Central European Lab"
          }
        ],
        "category": [
          {
            "coding": [
              {
                "system": "http://terminology.hl7.org/CodeSystem/observation-category",
                "code": "laboratory"
              }
            ]
          }
        ],
        "code": {
          "coding": [
            {
              "code": "18262-6",
              "system": "http://loinc.org",
              "display": "Cholesterol in LDL [Mass/volume] in Serum or Plasma by Direct assay"
            }
          ],
          "text": "Cholesterol in LDL [Mass/volume] in Serum or Plasma by Direct assay"
        },
        "valueQuantity": {
          "system": "http://unitsofmeasure.org",
          "value": 181.2,
          "unit": "mg/dL",
          "code": "mg/dL"
        },
        "referenceRange": [
          {
            "low": {
              "value": 0,
              "code": "mg/dL",
              "system": "http://unitsofmeasure.org"
            }
          },
          {
            "high": {
              "value": 130,
              "code": "mg/dL",
              "system": "http://unitsofmeasure.org"
            }
          }
        ],
        "interpretation": [
          {
            "coding": [
              {
                "code": "H",
                "system": "http://terminology.hl7.org/CodeSystem/v3-ObservationInterpretation",
                "display": "High"
              }
            ]
          }
        ],
        "text": {
          "status": "generated",
          "div": "<div xmlns=\"http://www.w3.org/1999/xhtml\"><table class=\"hl7__eu__lab__report\"><tr><th>Test</th><th>19-Jan-2025</th><th>Reference&#xA0;Range</th><th>Unit</th></tr><tr><td>Cholesterol in LDL [Mass/volume] in Serum or Plasma by Direct assay</td><td>181.2</td><td>0 - 130</td><td>H</td><td>mg/dL</td></tr></table></div>"
        },
        "status": "final",
        "subject": {
          "reference": "urn:uuid:c8ff7f5a-342a-4313-a22d-ef2654d1dc7b",
          "display": "Russell Khan"
        },
        "effectiveDateTime": "2025-01-19T13:31:07Z",
        "specimen": {
          "reference": "urn:uuid:538671d5-ba3a-4d72-b617-ee1451f3ae53"
        }
      }
    },
    {
      "fullUrl": "urn:uuid:a341a9c3-427f-42e0-b4a5-68e41899b730",
      "resource": {
        "resourceType": "Observation",
        "id": "a341a9c3-427f-42e0-b4a5-68e41899b730",
        "meta": {
          "profile": [
            "http://hl7.eu/fhir/laboratory/StructureDefinition/Observation-resultslab-eu-lab"
          ]
        },
        "performer": [
          {
            "display": "The Central European Lab"
          }
        ],
        "category": [
          {
            "coding": [
              {
                "system": "http://terminology.hl7.org/CodeSystem/observation-category",
                "code": "laboratory"
              }
            ]
          }
        ],
        "code": {
          "coding": [
            {
              "code": "2085-9",
              "system": "http://loinc.org",
              "display": "Cholesterol in HDL [Mass/volume] in Serum or Plasma"
            }
          ],
          "text": "Cholesterol in HDL [Mass/volume] in Serum or Plasma"
        },
        "valueQuantity": {
          "system": "http://unitsofmeasure.org",
          "value": 51.8,
          "unit": "mg/dL",
          "code": "mg/dL"
        },
        "referenceRange": [
          {
            "low": {
              "value": 40,
              "code": "mg/dL",
              "system": "http://unitsofmeasure.org"
            }
          },
          {
            "high": {
              "value": 60,
              "code": "mg/dL",
              "system": "http://unitsofmeasure.org"
            }
          }
        ],
        "text": {
          "status": "generated",
          "div": "<div xmlns=\"http://www.w3.org/1999/xhtml\"><table class=\"hl7__eu__lab__report\"><tr><th>Test</th><th>19-Jan-2025</th><th>Reference&#xA0;Range</th><th>Unit</th></tr><tr><td>Cholesterol in HDL [Mass/volume] in Serum or Plasma</td><td>51.8</td><td>40 - 60</td><td></td><td>mg/dL</td></tr></table></div>"
        },
        "status": "final",
        "subject": {
          "reference": "urn:uuid:c8ff7f5a-342a-4313-a22d-ef2654d1dc7b",
          "display": "Russell Khan"
        },
        "effectiveDateTime": "2025-01-19T13:31:07Z",
        "specimen": {
          "reference": "urn:uuid:538671d5-ba3a-4d72-b617-ee1451f3ae53"
        }
      }
    },
    {
      "fullUrl": "urn:uuid:abe78853-dfbb-4a4b-822d-b5b456c78883",
      "resource": {
        "resourceType": "Device",
        "id": "abe78853-dfbb-4a4b-822d-b5b456c78883",
        "deviceName": [
          {
            "name": "SYNDERAI Synthetic Generator",
            "type": "manufacturer-name"
          }
        ],
        "version": [
          {
            "value": "5.0"
          }
        ],
        "text": {
          "status": "generated",
          "div": "<div xmlns=\"http://www.w3.org/1999/xhtml\">SYNDERAI Synthetic Generator v5.0</div>"
        },
        "status": "active\"",
        "distinctIdentifier": "synderai-generator-50",
        "manufacturer": "SYNDERAI Project"
      }
    },
    {
      "fullUrl": "urn:uuid:0bc54e94-626d-47d8-9934-1a030da4fa4f",
      "resource": {
        "resourceType": "Provenance",
        "id": "0bc54e94-626d-47d8-9934-1a030da4fa4f",
        "target": [
          {
            "reference": "Patient/c8ff7f5a-342a-4313-a22d-ef2654d1dc7b"
          },
          {
            "reference": "Bundle/35b9d544-ae23-4d68-8c90-2e6d44ed0b57"
          },
          {
            "reference": "Composition/a823e9be-5b89-4465-9beb-0723e32a62ed"
          },
          {
            "reference": "PractitionerRole/26e8018d-a8fd-4533-bda1-0cecc3776fcd"
          },
          {
            "reference": "Practitioner/527a84fb-97b5-43e1-a28a-8e24daa3e3e6"
          },
          {
            "reference": "PractitionerRole/4f12482a-d69e-4426-8def-bfc26f774d25"
          },
          {
            "reference": "Organization/d8dddc9b-f8ff-4651-ac29-8d2405c74aa5"
          }
        ],
        "activity": {
          "text": "Synthetic Example Data Generation"
        },
        "policy": [
          "https://synderai.net/synderai-synthetic-data-policy"
        ],
        "agent": [
          {
            "type": {
              "text": "author"
            },
            "who": {
              "reference": "Device/abe78853-dfbb-4a4b-822d-b5b456c78883"
            }
          }
        ],
        "reason": [
          {
            "text": "Interoperability Testing and Training (non-clinical use)"
          }
        ],
        "text": {
          "status": "generated",
          "div": "<div xmlns=\"http://www.w3.org/1999/xhtml\">Provenance for SYNDERAI Synthetic Example Data Resource</div>"
        },
        "recorded": "2025-01-19T14:31:07Z"
      }
    },
    {
      "fullUrl": "urn:uuid:26e8018d-a8fd-4533-bda1-0cecc3776fcd",
      "resource": {
        "resourceType": "PractitionerRole",
        "id": "26e8018d-a8fd-4533-bda1-0cecc3776fcd",
        "meta": {
          "profile": [
            "http://hl7.eu/fhir/base/StructureDefinition/practitionerRole-eu"
          ]
        },
        "text": {
          "status": "generated",
          "div": "<div xmlns=\"http://www.w3.org/1999/xhtml\">Laboratory Role Id: 26e8018d-a8fd-4533-bda1-0cecc3776fcd</div>"
        },
        "practitioner": {
          "reference": "urn:uuid:527a84fb-97b5-43e1-a28a-8e24daa3e3e6"
        }
      }
    },
    {
      "fullUrl": "urn:uuid:527a84fb-97b5-43e1-a28a-8e24daa3e3e6",
      "resource": {
        "resourceType": "Practitioner",
        "id": "527a84fb-97b5-43e1-a28a-8e24daa3e3e6",
        "meta": {
          "profile": [
            "http://hl7.eu/fhir/base/StructureDefinition/practitioner-eu"
          ]
        },
        "identifier": [
          {
            "assigner": {
              "display": "HL7 Europe"
            },
            "system": "urn:oid:2.16.840.1.113883.2.51.999",
            "value": "23878a89-ad87-4dfe-bf19-22a5ab0d6283"
          }
        ],
        "name": [
          {
            "prefix": [
              "dr"
            ],
            "given": [
              "Ex"
            ],
            "family": "Ample"
          }
        ],
        "address": [
          {
            "line": [
              "Laboratoire Central Européenne",
              "Boulevard du Jardin Botanique 32"
            ],
            "postalCode": "1000",
            "city": "Brussels",
            "country": "Belgium"
          }
        ],
        "text": {
          "status": "generated",
          "div": "<div xmlns=\"http://www.w3.org/1999/xhtml\">Laboratory: Laboratoire Central Européenne, 1000 Brussels, Belgium</div>"
        }
      }
    }
  ],
  "type": "document",
  "timestamp": "2025-01-19T14:31:07Z"
}
