{
  "resourceType": "Bundle",
  "id": "18609641-b20b-4bf6-a7e6-1b0afa572700",
  "meta": {
    "profile": [
      "http://hl7.eu/fhir/laboratory/StructureDefinition/Bundle-eu-lab"
    ]
  },
  "identifier": {
    "assigner": {
      "display": "HL7 Europe"
    },
    "system": "urn:oid:2.16.840.1.113883.2.51.999",
    "value": "1f0aa7a5-3de6-4c5c-8c84-8f24f7633844"
  },
  "entry": [
    {
      "fullUrl": "urn:uuid:3da3b7ec-e7ff-4020-a81b-29265067c664",
      "resource": {
        "resourceType": "Composition",
        "id": "3da3b7ec-e7ff-4020-a81b-29265067c664",
        "meta": {
          "profile": [
            "http://hl7.eu/fhir/laboratory/StructureDefinition/Composition-eu-lab"
          ]
        },
        "identifier": {
          "assigner": {
            "display": "HL7 Europe"
          },
          "system": "urn:oid:2.16.840.1.113883.2.51.999",
          "value": "43575d37-f6b3-4dbf-b317-f34a9c76ffa3"
        },
        "author": [
          {
            "reference": "urn:uuid:25ce9f9d-3b5c-4ea0-a073-e389d4a4e697"
          }
        ],
        "category": [
          {
            "coding": [
              {
                "code": "26436-6",
                "system": "http://loinc.org",
                "display": "Laboratory studies (set)"
              }
            ]
          }
        ],
        "type": {
          "coding": [
            {
              "code": "11502-2",
              "system": "http://loinc.org",
              "display": "Laboratory report"
            }
          ],
          "text": "Laboratory Report"
        },
        "section": [
          {
            "code": {
              "coding": [
                {
                  "code": "26436-6",
                  "system": "http://loinc.org",
                  "display": "Laboratory studies (set)"
                }
              ],
              "text": "Laboratory studies"
            },
            "section": [
              {
                "code": {
                  "coding": [
                    {
                      "code": "$18719-5",
                      "system": "http://loinc.org",
                      "display": "Chemistry studies (set)"
                    }
                  ],
                  "text": "Chemistry"
                },
                "entry": [
                  {
                    "reference": "urn:uuid:5d825def-70e0-4a4a-b4ef-656ffbc1091e"
                  },
                  {
                    "reference": "urn:uuid:1b70f8a9-9b03-4372-ac47-61a81aafa846"
                  },
                  {
                    "reference": "urn:uuid:df73ae35-5cfb-49f3-8db8-46a6587b43ec"
                  },
                  {
                    "reference": "urn:uuid:69252bf2-d85b-46b8-8d1e-f8709acd0732"
                  },
                  {
                    "reference": "urn:uuid:06d2ecef-3736-4fe9-8cad-dd5987d8fe2f"
                  },
                  {
                    "reference": "urn:uuid:c3b7a1c2-3619-4851-acc3-a47a3d308f4b"
                  },
                  {
                    "reference": "urn:uuid:df5926b6-1856-4e5d-ad72-bf209200f690"
                  },
                  {
                    "reference": "urn:uuid:49c358ce-ef10-48ac-84e2-79eabb56fdf6"
                  },
                  {
                    "reference": "urn:uuid:34cd0bd9-d6c0-4936-ac14-38c1289ffcb5"
                  }
                ],
                "text": {
                  "status": "generated",
                  "div": "<div xmlns=\"http://www.w3.org/1999/xhtml\"><h3>Chemistry</h3><table class=\"hl7__eu__lab__report\"><thead><tr><th>Test</th><th>26-MAR-2021</th><th>Reference&#xA0;Range</th><th>Unit</th></tr></thead><tbody><tr><td>Hemoglobin A1c/Hemoglobin.total in Blood</td><td><strong>6.3 H</strong></td><td>4.8 - 5.7</td><td>%</td></tr><tr><td>Glucose [Mass/volume] in Blood</td><td>78.6</td><td>70 - 140</td><td>mg/dL</td></tr><tr><td>Urea nitrogen [Mass/volume] in Blood</td><td>15.9</td><td>7 - 25</td><td>mg/dL</td></tr><tr><td>Creatinine [Mass/volume] in Blood</td><td>0.9</td><td>0.6 - 1.3</td><td>mg/dL</td></tr><tr><td>Calcium [Mass/volume] in Blood</td><td>10.2</td><td>8.5 - 10.5</td><td>mg/dL</td></tr><tr><td>Sodium [Moles/volume] in Blood</td><td>141.4</td><td>135 - 145</td><td>mmol/L</td></tr><tr><td>Potassium [Moles/volume] in Blood</td><td>4.0</td><td>3.5 - 5.1</td><td>mmol/L</td></tr><tr><td>Chloride [Moles/volume] in Blood</td><td>103.7</td><td>98 - 108</td><td>mmol/L</td></tr><tr><td>Carbon dioxide, total [Moles/volume] in Blood</td><td>28.1</td><td>22 - 29</td><td>mmol/L</td></tr></tbody></table></div>"
                },
                "title": "Chemistry"
              }
            ],
            "title": "Laboratory Report"
          },
          {
            "text": {
              "status": "generated",
              "div": "<div xmlns=\"http://www.w3.org/1999/xhtml\"><h3>Annotation</h3><table class=\"hl7__eu__lab__report\"><tr><th>Conclusion and Recommendations based on this report and previous findings known to us</th></tr><tr><td>The only abnormal finding is a mildly elevated HbA1c (6.3%), indicating impaired glucose metabolism or possible prediabetes/early diabetes, despite a normal fasting glucose. All other parameters, including renal function and electrolytes, are within normal limits. Recommend clinical correlation and consideration of further evaluation or lifestyle intervention for glycemic control.</td></tr></table></div>"
            },
            "code": {
              "coding": [
                {
                  "system": "http://loinc.org",
                  "code": "48767-8",
                  "display": "Annotation comment"
                }
              ]
            },
            "title": "Annotation comment"
          }
        ],
        "status": "final",
        "subject": {
          "reference": "urn:uuid:b061fec8-6d28-44d2-9896-a57d3a398f9c",
          "display": "Bethany Begum"
        },
        "date": "2021-03-26T12:40:40Z",
        "title": "Laboratory Report",
        "confidentiality": "N"
      }
    },
    {
      "fullUrl": "urn:uuid:8b5e4878-09c9-419c-84c5-509599de23ee",
      "resource": {
        "resourceType": "DiagnosticReport",
        "id": "8b5e4878-09c9-419c-84c5-509599de23ee",
        "meta": {
          "profile": [
            "http://hl7.eu/fhir/laboratory/StructureDefinition/DiagnosticReport-eu-lab"
          ]
        },
        "identifier": [
          {
            "assigner": {
              "display": "HL7 Europe"
            },
            "system": "urn:oid:2.16.840.1.113883.2.51.999",
            "value": "932ff230-7e34-4995-80ab-1f2943bca2e6"
          }
        ],
        "extension": [
          {
            "url": "http://hl7.org/fhir/5.0/StructureDefinition/extension-DiagnosticReport.composition",
            "valueReference": {
              "reference": "urn:uuid:43575d37-f6b3-4dbf-b317-f34a9c76ffa3"
            }
          }
        ],
        "category": [
          {
            "coding": [
              {
                "code": "26436-6",
                "system": "http://loinc.org",
                "display": "Laboratory studies (set)"
              }
            ]
          }
        ],
        "specimen": [
          {
            "reference": "urn:uuid:49b9077a-71fa-4eed-ae93-c00a8aa6038e"
          }
        ],
        "result": [
          {
            "reference": "urn:uuid:5d825def-70e0-4a4a-b4ef-656ffbc1091e"
          },
          {
            "reference": "urn:uuid:1b70f8a9-9b03-4372-ac47-61a81aafa846"
          },
          {
            "reference": "urn:uuid:df73ae35-5cfb-49f3-8db8-46a6587b43ec"
          },
          {
            "reference": "urn:uuid:69252bf2-d85b-46b8-8d1e-f8709acd0732"
          },
          {
            "reference": "urn:uuid:06d2ecef-3736-4fe9-8cad-dd5987d8fe2f"
          },
          {
            "reference": "urn:uuid:c3b7a1c2-3619-4851-acc3-a47a3d308f4b"
          },
          {
            "reference": "urn:uuid:df5926b6-1856-4e5d-ad72-bf209200f690"
          },
          {
            "reference": "urn:uuid:49c358ce-ef10-48ac-84e2-79eabb56fdf6"
          },
          {
            "reference": "urn:uuid:34cd0bd9-d6c0-4936-ac14-38c1289ffcb5"
          }
        ],
        "status": "registered",
        "code": {
          "coding": [
            {
              "code": "11502-2",
              "system": "http://loinc.org",
              "display": "Laboratory report"
            }
          ]
        },
        "subject": {
          "reference": "urn:uuid:b061fec8-6d28-44d2-9896-a57d3a398f9c",
          "display": "Bethany Begum"
        }
      }
    },
    {
      "fullUrl": "urn:uuid:b061fec8-6d28-44d2-9896-a57d3a398f9c",
      "resource": {
        "resourceType": "Patient",
        "id": "b061fec8-6d28-44d2-9896-a57d3a398f9c",
        "meta": {
          "security": [
            {
              "system": "http://terminology.hl7.org/CodeSystem/v3-ActReason",
              "code": "HTEST"
            },
            {
              "system": "http://terminology.hl7.org/CodeSystem/v3-ActReason",
              "code": "TRAIN"
            }
          ],
          "tag": [
            {
              "system": "https://synderai.net/fhir/CodeSystem/tags",
              "code": "synthetic",
              "display": "SYNDERAI Synthetic data"
            }
          ],
          "profile": [
            "http://hl7.eu/fhir/base/StructureDefinition/patient-eu-core"
          ]
        },
        "identifier": [
          {
            "type": {
              "coding": [
                {
                  "code": "PT",
                  "system": "http://terminology.hl7.org/CodeSystem/v2-0203"
                }
              ]
            },
            "system": "http://ec.europa.eu/identifier/eci",
            "value": "2365-936148-1"
          },
          {
            "type": {
              "coding": [
                {
                  "code": "MR",
                  "system": "http://terminology.hl7.org/CodeSystem/v2-0203"
                }
              ]
            },
            "system": "http://local.setting.eu/identifier",
            "value": "853b213b-8bf3-d90f-2018-79d547156fd7"
          }
        ],
        "name": [
          {
            "family": "Begum"
          },
          {
            "given": [
              "Bethany"
            ]
          },
          {
            "text": "Bethany Begum"
          }
        ],
        "address": [
          {
            "line": [
              "Studio 22e",
              "Joe unions"
            ],
            "use": "home",
            "type": "physical",
            "postalCode": "M1",
            "city": "Manchester",
            "country": "United Kingdom"
          }
        ],
        "telecom": [
          {
            "system": "phone",
            "value": "(029) 2018200"
          }
        ],
        "extension": [
          {
            "url": "http://hl7.org/fhir/StructureDefinition/patient-nationality",
            "valueCodeableConcept": {
              "coding": [
                {
                  "code": "GB",
                  "system": "http://hl7.org/fhir/ValueSet/country"
                }
              ]
            }
          }
        ],
        "text": {
          "status": "generated",
          "div": "<div xmlns=\"http://www.w3.org/1999/xhtml\"><table class=\"hl7__ips\"><tr><td>Bethany Begum</td><td>female</td><td>19-Jan-1976</td></tr></table></div>"
        },
        "gender": "female",
        "birthDate": "1976-01-19"
      }
    },
    {
      "fullUrl": "urn:uuid:7ab3b086-6dd6-44b1-9a82-d4a7af0e88fb",
      "resource": {
        "resourceType": "ServiceRequest",
        "id": "7ab3b086-6dd6-44b1-9a82-d4a7af0e88fb",
        "meta": {
          "profile": [
            "http://hl7.eu/fhir/laboratory/StructureDefinition/ServiceRequest-eu-lab"
          ]
        },
        "identifier": [
          {
            "system": "http://example.org",
            "value": "b48eb5eb-3c7b-47ba-9c3a-9e9f065f9fc3"
          }
        ],
        "specimen": [
          {
            "reference": "urn:uuid:49b9077a-71fa-4eed-ae93-c00a8aa6038e"
          }
        ],
        "reasonCode": [
          {
            "coding": [
              {
                "code": "55822004",
                "system": "http://snomed.info/sct",
                "display": "Hyperlipidemia"
              }
            ]
          },
          {
            "coding": [
              {
                "code": "15777000",
                "system": "http://snomed.info/sct",
                "display": "Prediabetes"
              }
            ]
          },
          {
            "coding": [
              {
                "code": "40055000",
                "system": "http://snomed.info/sct",
                "display": "Chronic sinusitis"
              }
            ]
          }
        ],
        "status": "active",
        "intent": "order",
        "code": {
          "coding": [
            {
              "code": "108252007",
              "system": "http://snomed.info/sct",
              "display": "Laboratory procedure"
            }
          ]
        },
        "subject": {
          "reference": "urn:uuid:b061fec8-6d28-44d2-9896-a57d3a398f9c",
          "display": "Bethany Begum"
        },
        "requester": {
          "reference": "urn:uuid:8f639bd4-991d-450a-8af2-4d05f84a8590"
        }
      }
    },
    {
      "fullUrl": "urn:uuid:8f639bd4-991d-450a-8af2-4d05f84a8590",
      "resource": {
        "resourceType": "PractitionerRole",
        "id": "8f639bd4-991d-450a-8af2-4d05f84a8590",
        "meta": {
          "profile": [
            "http://hl7.eu/fhir/base/StructureDefinition/practitionerRole-eu"
          ]
        },
        "text": {
          "status": "generated",
          "div": "<div xmlns=\"http://www.w3.org/1999/xhtml\">Provider Role Id: 8f639bd4-991d-450a-8af2-4d05f84a8590</div>"
        },
        "organization": {
          "reference": "urn:uuid:3b713ef1-4e6d-4c2c-b76d-66d52f4847a1"
        }
      }
    },
    {
      "fullUrl": "urn:uuid:3b713ef1-4e6d-4c2c-b76d-66d52f4847a1",
      "resource": {
        "resourceType": "Organization",
        "id": "3b713ef1-4e6d-4c2c-b76d-66d52f4847a1",
        "meta": {
          "profile": [
            "http://hl7.eu/fhir/base/StructureDefinition/organization-eu"
          ]
        },
        "identifier": [
          {
            "assigner": {
              "display": "HL7 Europe"
            },
            "system": "urn:oid:2.16.840.1.113883.2.51.999",
            "value": "603316fd-3285-43a7-9407-584392bfe435"
          }
        ],
        "address": [
          {
            "line": [
              "City Road 204"
            ],
            "city": "Manchester",
            "postalCode": "M3 3",
            "country": "United Kingdom"
          }
        ],
        "text": {
          "status": "generated",
          "div": "<div xmlns=\"http://www.w3.org/1999/xhtml\">Provider Organization: Cornbrook Medical Practice</div>"
        },
        "name": "Cornbrook Medical Practice"
      }
    },
    {
      "fullUrl": "urn:uuid:49b9077a-71fa-4eed-ae93-c00a8aa6038e",
      "resource": {
        "resourceType": "Specimen",
        "id": "49b9077a-71fa-4eed-ae93-c00a8aa6038e",
        "meta": {
          "profile": [
            "http://hl7.eu/fhir/laboratory/StructureDefinition/Specimen-eu-lab"
          ]
        },
        "collection": {
          "collectedDateTime": "2021-03-26"
        },
        "text": {
          "status": "generated",
          "div": "<div xmlns=\"http://www.w3.org/1999/xhtml\"><table class=\"hl7__eu__lab__report\"><tr><th>Specimen</th><th>Collection Date</th></tr><tr><td>Whole blood specimen (specimen)</td><td><span class=\"nb\">26-Mar-2021</span></td></tr></table></div>"
        },
        "type": {
          "coding": [
            {
              "code": "258580003",
              "system": "http://snomed.info/sct",
              "display": "Whole blood specimen (specimen)"
            }
          ]
        }
      }
    },
    {
      "fullUrl": "urn:uuid:5d825def-70e0-4a4a-b4ef-656ffbc1091e",
      "resource": {
        "resourceType": "Observation",
        "id": "5d825def-70e0-4a4a-b4ef-656ffbc1091e",
        "meta": {
          "profile": [
            "http://hl7.eu/fhir/laboratory/StructureDefinition/Observation-resultslab-eu-lab"
          ]
        },
        "performer": [
          {
            "display": "The Central European Lab"
          }
        ],
        "category": [
          {
            "coding": [
              {
                "system": "http://terminology.hl7.org/CodeSystem/observation-category",
                "code": "laboratory"
              }
            ]
          }
        ],
        "code": {
          "coding": [
            {
              "code": "4548-4",
              "system": "http://loinc.org",
              "display": "Hemoglobin A1c/Hemoglobin.total in Blood"
            }
          ],
          "text": "Hemoglobin A1c/Hemoglobin.total in Blood"
        },
        "valueQuantity": {
          "system": "http://unitsofmeasure.org",
          "value": 6.3,
          "unit": "%",
          "code": "%"
        },
        "referenceRange": [
          {
            "low": {
              "value": 4.8,
              "code": "%",
              "system": "http://unitsofmeasure.org"
            }
          },
          {
            "high": {
              "value": 5.7,
              "code": "%",
              "system": "http://unitsofmeasure.org"
            }
          }
        ],
        "interpretation": [
          {
            "coding": [
              {
                "code": "H",
                "system": "http://terminology.hl7.org/CodeSystem/v3-ObservationInterpretation",
                "display": "High"
              }
            ]
          }
        ],
        "text": {
          "status": "generated",
          "div": "<div xmlns=\"http://www.w3.org/1999/xhtml\"><table class=\"hl7__eu__lab__report\"><tr><th>Test</th><th>26-Mar-2021</th><th>Reference&#xA0;Range</th><th>Unit</th></tr><tr><td>Hemoglobin A1c/Hemoglobin.total in Blood</td><td>6.3</td><td>4.8 - 5.7</td><td>H</td><td>%</td></tr></table></div>"
        },
        "status": "final",
        "subject": {
          "reference": "urn:uuid:b061fec8-6d28-44d2-9896-a57d3a398f9c",
          "display": "Bethany Begum"
        },
        "effectiveDateTime": "2021-03-26T11:40:40Z",
        "specimen": {
          "reference": "urn:uuid:49b9077a-71fa-4eed-ae93-c00a8aa6038e"
        }
      }
    },
    {
      "fullUrl": "urn:uuid:1b70f8a9-9b03-4372-ac47-61a81aafa846",
      "resource": {
        "resourceType": "Observation",
        "id": "1b70f8a9-9b03-4372-ac47-61a81aafa846",
        "meta": {
          "profile": [
            "http://hl7.eu/fhir/laboratory/StructureDefinition/Observation-resultslab-eu-lab"
          ]
        },
        "performer": [
          {
            "display": "The Central European Lab"
          }
        ],
        "category": [
          {
            "coding": [
              {
                "system": "http://terminology.hl7.org/CodeSystem/observation-category",
                "code": "laboratory"
              }
            ]
          }
        ],
        "code": {
          "coding": [
            {
              "code": "2339-0",
              "system": "http://loinc.org",
              "display": "Glucose [Mass/volume] in Blood"
            }
          ],
          "text": "Glucose [Mass/volume] in Blood"
        },
        "valueQuantity": {
          "system": "http://unitsofmeasure.org",
          "value": 78.6,
          "unit": "mg/dL",
          "code": "mg/dL"
        },
        "referenceRange": [
          {
            "low": {
              "value": 70,
              "code": "mg/dL",
              "system": "http://unitsofmeasure.org"
            }
          },
          {
            "high": {
              "value": 140,
              "code": "mg/dL",
              "system": "http://unitsofmeasure.org"
            }
          }
        ],
        "text": {
          "status": "generated",
          "div": "<div xmlns=\"http://www.w3.org/1999/xhtml\"><table class=\"hl7__eu__lab__report\"><tr><th>Test</th><th>26-Mar-2021</th><th>Reference&#xA0;Range</th><th>Unit</th></tr><tr><td>Glucose [Mass/volume] in Blood</td><td>78.6</td><td>70 - 140</td><td></td><td>mg/dL</td></tr></table></div>"
        },
        "status": "final",
        "subject": {
          "reference": "urn:uuid:b061fec8-6d28-44d2-9896-a57d3a398f9c",
          "display": "Bethany Begum"
        },
        "effectiveDateTime": "2021-03-26T11:40:40Z",
        "specimen": {
          "reference": "urn:uuid:49b9077a-71fa-4eed-ae93-c00a8aa6038e"
        }
      }
    },
    {
      "fullUrl": "urn:uuid:df73ae35-5cfb-49f3-8db8-46a6587b43ec",
      "resource": {
        "resourceType": "Observation",
        "id": "df73ae35-5cfb-49f3-8db8-46a6587b43ec",
        "meta": {
          "profile": [
            "http://hl7.eu/fhir/laboratory/StructureDefinition/Observation-resultslab-eu-lab"
          ]
        },
        "performer": [
          {
            "display": "The Central European Lab"
          }
        ],
        "category": [
          {
            "coding": [
              {
                "system": "http://terminology.hl7.org/CodeSystem/observation-category",
                "code": "laboratory"
              }
            ]
          }
        ],
        "code": {
          "coding": [
            {
              "code": "6299-2",
              "system": "http://loinc.org",
              "display": "Urea nitrogen [Mass/volume] in Blood"
            }
          ],
          "text": "Urea nitrogen [Mass/volume] in Blood"
        },
        "valueQuantity": {
          "system": "http://unitsofmeasure.org",
          "value": 15.9,
          "unit": "mg/dL",
          "code": "mg/dL"
        },
        "referenceRange": [
          {
            "low": {
              "value": 7,
              "code": "mg/dL",
              "system": "http://unitsofmeasure.org"
            }
          },
          {
            "high": {
              "value": 25,
              "code": "mg/dL",
              "system": "http://unitsofmeasure.org"
            }
          }
        ],
        "text": {
          "status": "generated",
          "div": "<div xmlns=\"http://www.w3.org/1999/xhtml\"><table class=\"hl7__eu__lab__report\"><tr><th>Test</th><th>26-Mar-2021</th><th>Reference&#xA0;Range</th><th>Unit</th></tr><tr><td>Urea nitrogen [Mass/volume] in Blood</td><td>15.9</td><td>7 - 25</td><td></td><td>mg/dL</td></tr></table></div>"
        },
        "status": "final",
        "subject": {
          "reference": "urn:uuid:b061fec8-6d28-44d2-9896-a57d3a398f9c",
          "display": "Bethany Begum"
        },
        "effectiveDateTime": "2021-03-26T11:40:40Z",
        "specimen": {
          "reference": "urn:uuid:49b9077a-71fa-4eed-ae93-c00a8aa6038e"
        }
      }
    },
    {
      "fullUrl": "urn:uuid:69252bf2-d85b-46b8-8d1e-f8709acd0732",
      "resource": {
        "resourceType": "Observation",
        "id": "69252bf2-d85b-46b8-8d1e-f8709acd0732",
        "meta": {
          "profile": [
            "http://hl7.eu/fhir/laboratory/StructureDefinition/Observation-resultslab-eu-lab"
          ]
        },
        "performer": [
          {
            "display": "The Central European Lab"
          }
        ],
        "category": [
          {
            "coding": [
              {
                "system": "http://terminology.hl7.org/CodeSystem/observation-category",
                "code": "laboratory"
              }
            ]
          }
        ],
        "code": {
          "coding": [
            {
              "code": "38483-4",
              "system": "http://loinc.org",
              "display": "Creatinine [Mass/volume] in Blood"
            }
          ],
          "text": "Creatinine [Mass/volume] in Blood"
        },
        "valueQuantity": {
          "system": "http://unitsofmeasure.org",
          "value": 0.9,
          "unit": "mg/dL",
          "code": "mg/dL"
        },
        "referenceRange": [
          {
            "low": {
              "value": 0.6,
              "code": "mg/dL",
              "system": "http://unitsofmeasure.org"
            }
          },
          {
            "high": {
              "value": 1.3,
              "code": "mg/dL",
              "system": "http://unitsofmeasure.org"
            }
          }
        ],
        "text": {
          "status": "generated",
          "div": "<div xmlns=\"http://www.w3.org/1999/xhtml\"><table class=\"hl7__eu__lab__report\"><tr><th>Test</th><th>26-Mar-2021</th><th>Reference&#xA0;Range</th><th>Unit</th></tr><tr><td>Creatinine [Mass/volume] in Blood</td><td>0.9</td><td>0.6 - 1.3</td><td></td><td>mg/dL</td></tr></table></div>"
        },
        "status": "final",
        "subject": {
          "reference": "urn:uuid:b061fec8-6d28-44d2-9896-a57d3a398f9c",
          "display": "Bethany Begum"
        },
        "effectiveDateTime": "2021-03-26T11:40:40Z",
        "specimen": {
          "reference": "urn:uuid:49b9077a-71fa-4eed-ae93-c00a8aa6038e"
        }
      }
    },
    {
      "fullUrl": "urn:uuid:06d2ecef-3736-4fe9-8cad-dd5987d8fe2f",
      "resource": {
        "resourceType": "Observation",
        "id": "06d2ecef-3736-4fe9-8cad-dd5987d8fe2f",
        "meta": {
          "profile": [
            "http://hl7.eu/fhir/laboratory/StructureDefinition/Observation-resultslab-eu-lab"
          ]
        },
        "performer": [
          {
            "display": "The Central European Lab"
          }
        ],
        "category": [
          {
            "coding": [
              {
                "system": "http://terminology.hl7.org/CodeSystem/observation-category",
                "code": "laboratory"
              }
            ]
          }
        ],
        "code": {
          "coding": [
            {
              "code": "49765-1",
              "system": "http://loinc.org",
              "display": "Calcium [Mass/volume] in Blood"
            }
          ],
          "text": "Calcium [Mass/volume] in Blood"
        },
        "valueQuantity": {
          "system": "http://unitsofmeasure.org",
          "value": 10.2,
          "unit": "mg/dL",
          "code": "mg/dL"
        },
        "referenceRange": [
          {
            "low": {
              "value": 8.5,
              "code": "mg/dL",
              "system": "http://unitsofmeasure.org"
            }
          },
          {
            "high": {
              "value": 10.5,
              "code": "mg/dL",
              "system": "http://unitsofmeasure.org"
            }
          }
        ],
        "text": {
          "status": "generated",
          "div": "<div xmlns=\"http://www.w3.org/1999/xhtml\"><table class=\"hl7__eu__lab__report\"><tr><th>Test</th><th>26-Mar-2021</th><th>Reference&#xA0;Range</th><th>Unit</th></tr><tr><td>Calcium [Mass/volume] in Blood</td><td>10.2</td><td>8.5 - 10.5</td><td></td><td>mg/dL</td></tr></table></div>"
        },
        "status": "final",
        "subject": {
          "reference": "urn:uuid:b061fec8-6d28-44d2-9896-a57d3a398f9c",
          "display": "Bethany Begum"
        },
        "effectiveDateTime": "2021-03-26T11:40:40Z",
        "specimen": {
          "reference": "urn:uuid:49b9077a-71fa-4eed-ae93-c00a8aa6038e"
        }
      }
    },
    {
      "fullUrl": "urn:uuid:c3b7a1c2-3619-4851-acc3-a47a3d308f4b",
      "resource": {
        "resourceType": "Observation",
        "id": "c3b7a1c2-3619-4851-acc3-a47a3d308f4b",
        "meta": {
          "profile": [
            "http://hl7.eu/fhir/laboratory/StructureDefinition/Observation-resultslab-eu-lab"
          ]
        },
        "performer": [
          {
            "display": "The Central European Lab"
          }
        ],
        "category": [
          {
            "coding": [
              {
                "system": "http://terminology.hl7.org/CodeSystem/observation-category",
                "code": "laboratory"
              }
            ]
          }
        ],
        "code": {
          "coding": [
            {
              "code": "2947-0",
              "system": "http://loinc.org",
              "display": "Sodium [Moles/volume] in Blood"
            }
          ],
          "text": "Sodium [Moles/volume] in Blood"
        },
        "valueQuantity": {
          "system": "http://unitsofmeasure.org",
          "value": 141.4,
          "unit": "mmol/L",
          "code": "mmol/L"
        },
        "referenceRange": [
          {
            "low": {
              "value": 135,
              "code": "mmol/L",
              "system": "http://unitsofmeasure.org"
            }
          },
          {
            "high": {
              "value": 145,
              "code": "mmol/L",
              "system": "http://unitsofmeasure.org"
            }
          }
        ],
        "text": {
          "status": "generated",
          "div": "<div xmlns=\"http://www.w3.org/1999/xhtml\"><table class=\"hl7__eu__lab__report\"><tr><th>Test</th><th>26-Mar-2021</th><th>Reference&#xA0;Range</th><th>Unit</th></tr><tr><td>Sodium [Moles/volume] in Blood</td><td>141.4</td><td>135 - 145</td><td></td><td>mmol/L</td></tr></table></div>"
        },
        "status": "final",
        "subject": {
          "reference": "urn:uuid:b061fec8-6d28-44d2-9896-a57d3a398f9c",
          "display": "Bethany Begum"
        },
        "effectiveDateTime": "2021-03-26T11:40:40Z",
        "specimen": {
          "reference": "urn:uuid:49b9077a-71fa-4eed-ae93-c00a8aa6038e"
        }
      }
    },
    {
      "fullUrl": "urn:uuid:df5926b6-1856-4e5d-ad72-bf209200f690",
      "resource": {
        "resourceType": "Observation",
        "id": "df5926b6-1856-4e5d-ad72-bf209200f690",
        "meta": {
          "profile": [
            "http://hl7.eu/fhir/laboratory/StructureDefinition/Observation-resultslab-eu-lab"
          ]
        },
        "performer": [
          {
            "display": "The Central European Lab"
          }
        ],
        "category": [
          {
            "coding": [
              {
                "system": "http://terminology.hl7.org/CodeSystem/observation-category",
                "code": "laboratory"
              }
            ]
          }
        ],
        "code": {
          "coding": [
            {
              "code": "6298-4",
              "system": "http://loinc.org",
              "display": "Potassium [Moles/volume] in Blood"
            }
          ],
          "text": "Potassium [Moles/volume] in Blood"
        },
        "valueQuantity": {
          "system": "http://unitsofmeasure.org",
          "value": 4,
          "unit": "mmol/L",
          "code": "mmol/L"
        },
        "referenceRange": [
          {
            "low": {
              "value": 3.5,
              "code": "mmol/L",
              "system": "http://unitsofmeasure.org"
            }
          },
          {
            "high": {
              "value": 5.1,
              "code": "mmol/L",
              "system": "http://unitsofmeasure.org"
            }
          }
        ],
        "text": {
          "status": "generated",
          "div": "<div xmlns=\"http://www.w3.org/1999/xhtml\"><table class=\"hl7__eu__lab__report\"><tr><th>Test</th><th>26-Mar-2021</th><th>Reference&#xA0;Range</th><th>Unit</th></tr><tr><td>Potassium [Moles/volume] in Blood</td><td>4.0</td><td>3.5 - 5.1</td><td></td><td>mmol/L</td></tr></table></div>"
        },
        "status": "final",
        "subject": {
          "reference": "urn:uuid:b061fec8-6d28-44d2-9896-a57d3a398f9c",
          "display": "Bethany Begum"
        },
        "effectiveDateTime": "2021-03-26T11:40:40Z",
        "specimen": {
          "reference": "urn:uuid:49b9077a-71fa-4eed-ae93-c00a8aa6038e"
        }
      }
    },
    {
      "fullUrl": "urn:uuid:49c358ce-ef10-48ac-84e2-79eabb56fdf6",
      "resource": {
        "resourceType": "Observation",
        "id": "49c358ce-ef10-48ac-84e2-79eabb56fdf6",
        "meta": {
          "profile": [
            "http://hl7.eu/fhir/laboratory/StructureDefinition/Observation-resultslab-eu-lab"
          ]
        },
        "performer": [
          {
            "display": "The Central European Lab"
          }
        ],
        "category": [
          {
            "coding": [
              {
                "system": "http://terminology.hl7.org/CodeSystem/observation-category",
                "code": "laboratory"
              }
            ]
          }
        ],
        "code": {
          "coding": [
            {
              "code": "2069-3",
              "system": "http://loinc.org",
              "display": "Chloride [Moles/volume] in Blood"
            }
          ],
          "text": "Chloride [Moles/volume] in Blood"
        },
        "valueQuantity": {
          "system": "http://unitsofmeasure.org",
          "value": 103.7,
          "unit": "mmol/L",
          "code": "mmol/L"
        },
        "referenceRange": [
          {
            "low": {
              "value": 98,
              "code": "mmol/L",
              "system": "http://unitsofmeasure.org"
            }
          },
          {
            "high": {
              "value": 108,
              "code": "mmol/L",
              "system": "http://unitsofmeasure.org"
            }
          }
        ],
        "text": {
          "status": "generated",
          "div": "<div xmlns=\"http://www.w3.org/1999/xhtml\"><table class=\"hl7__eu__lab__report\"><tr><th>Test</th><th>26-Mar-2021</th><th>Reference&#xA0;Range</th><th>Unit</th></tr><tr><td>Chloride [Moles/volume] in Blood</td><td>103.7</td><td>98 - 108</td><td></td><td>mmol/L</td></tr></table></div>"
        },
        "status": "final",
        "subject": {
          "reference": "urn:uuid:b061fec8-6d28-44d2-9896-a57d3a398f9c",
          "display": "Bethany Begum"
        },
        "effectiveDateTime": "2021-03-26T11:40:40Z",
        "specimen": {
          "reference": "urn:uuid:49b9077a-71fa-4eed-ae93-c00a8aa6038e"
        }
      }
    },
    {
      "fullUrl": "urn:uuid:34cd0bd9-d6c0-4936-ac14-38c1289ffcb5",
      "resource": {
        "resourceType": "Observation",
        "id": "34cd0bd9-d6c0-4936-ac14-38c1289ffcb5",
        "meta": {
          "profile": [
            "http://hl7.eu/fhir/laboratory/StructureDefinition/Observation-resultslab-eu-lab"
          ]
        },
        "performer": [
          {
            "display": "The Central European Lab"
          }
        ],
        "category": [
          {
            "coding": [
              {
                "system": "http://terminology.hl7.org/CodeSystem/observation-category",
                "code": "laboratory"
              }
            ]
          }
        ],
        "code": {
          "coding": [
            {
              "code": "20565-8",
              "system": "http://loinc.org",
              "display": "Carbon dioxide, total [Moles/volume] in Blood"
            }
          ],
          "text": "Carbon dioxide, total [Moles/volume] in Blood"
        },
        "valueQuantity": {
          "system": "http://unitsofmeasure.org",
          "value": 28.1,
          "unit": "mmol/L",
          "code": "mmol/L"
        },
        "referenceRange": [
          {
            "low": {
              "value": 22,
              "code": "mmol/L",
              "system": "http://unitsofmeasure.org"
            }
          },
          {
            "high": {
              "value": 29,
              "code": "mmol/L",
              "system": "http://unitsofmeasure.org"
            }
          }
        ],
        "text": {
          "status": "generated",
          "div": "<div xmlns=\"http://www.w3.org/1999/xhtml\"><table class=\"hl7__eu__lab__report\"><tr><th>Test</th><th>26-Mar-2021</th><th>Reference&#xA0;Range</th><th>Unit</th></tr><tr><td>Carbon dioxide, total [Moles/volume] in Blood</td><td>28.1</td><td>22 - 29</td><td></td><td>mmol/L</td></tr></table></div>"
        },
        "status": "final",
        "subject": {
          "reference": "urn:uuid:b061fec8-6d28-44d2-9896-a57d3a398f9c",
          "display": "Bethany Begum"
        },
        "effectiveDateTime": "2021-03-26T11:40:40Z",
        "specimen": {
          "reference": "urn:uuid:49b9077a-71fa-4eed-ae93-c00a8aa6038e"
        }
      }
    },
    {
      "fullUrl": "urn:uuid:5dd84c3f-af56-4165-b514-3edfdc962b7f",
      "resource": {
        "resourceType": "Device",
        "id": "5dd84c3f-af56-4165-b514-3edfdc962b7f",
        "deviceName": [
          {
            "name": "SYNDERAI Synthetic Generator",
            "type": "manufacturer-name"
          }
        ],
        "version": [
          {
            "value": "5.0"
          }
        ],
        "text": {
          "status": "generated",
          "div": "<div xmlns=\"http://www.w3.org/1999/xhtml\">SYNDERAI Synthetic Generator v5.0</div>"
        },
        "status": "active\"",
        "distinctIdentifier": "synderai-generator-50",
        "manufacturer": "SYNDERAI Project"
      }
    },
    {
      "fullUrl": "urn:uuid:0f395d3a-be98-41fd-b6d3-e42f0a7af334",
      "resource": {
        "resourceType": "Provenance",
        "id": "0f395d3a-be98-41fd-b6d3-e42f0a7af334",
        "target": [
          {
            "reference": "Patient/b061fec8-6d28-44d2-9896-a57d3a398f9c"
          },
          {
            "reference": "Bundle/18609641-b20b-4bf6-a7e6-1b0afa572700"
          },
          {
            "reference": "Composition/3da3b7ec-e7ff-4020-a81b-29265067c664"
          },
          {
            "reference": "PractitionerRole/25ce9f9d-3b5c-4ea0-a073-e389d4a4e697"
          },
          {
            "reference": "Practitioner/caaa136e-809c-4e71-ab51-a1f29834243d"
          },
          {
            "reference": "PractitionerRole/8f639bd4-991d-450a-8af2-4d05f84a8590"
          },
          {
            "reference": "Organization/3b713ef1-4e6d-4c2c-b76d-66d52f4847a1"
          }
        ],
        "activity": {
          "text": "Synthetic Example Data Generation"
        },
        "policy": [
          "https://synderai.net/synderai-synthetic-data-policy"
        ],
        "agent": [
          {
            "type": {
              "text": "author"
            },
            "who": {
              "reference": "Device/5dd84c3f-af56-4165-b514-3edfdc962b7f"
            }
          }
        ],
        "reason": [
          {
            "text": "Interoperability Testing and Training (non-clinical use)"
          }
        ],
        "text": {
          "status": "generated",
          "div": "<div xmlns=\"http://www.w3.org/1999/xhtml\">Provenance for SYNDERAI Synthetic Example Data Resource</div>"
        },
        "recorded": "2021-03-26T12:40:40Z"
      }
    },
    {
      "fullUrl": "urn:uuid:25ce9f9d-3b5c-4ea0-a073-e389d4a4e697",
      "resource": {
        "resourceType": "PractitionerRole",
        "id": "25ce9f9d-3b5c-4ea0-a073-e389d4a4e697",
        "meta": {
          "profile": [
            "http://hl7.eu/fhir/base/StructureDefinition/practitionerRole-eu"
          ]
        },
        "text": {
          "status": "generated",
          "div": "<div xmlns=\"http://www.w3.org/1999/xhtml\">Laboratory Role Id: 25ce9f9d-3b5c-4ea0-a073-e389d4a4e697</div>"
        },
        "practitioner": {
          "reference": "urn:uuid:caaa136e-809c-4e71-ab51-a1f29834243d"
        }
      }
    },
    {
      "fullUrl": "urn:uuid:caaa136e-809c-4e71-ab51-a1f29834243d",
      "resource": {
        "resourceType": "Practitioner",
        "id": "caaa136e-809c-4e71-ab51-a1f29834243d",
        "meta": {
          "profile": [
            "http://hl7.eu/fhir/base/StructureDefinition/practitioner-eu"
          ]
        },
        "identifier": [
          {
            "assigner": {
              "display": "HL7 Europe"
            },
            "system": "urn:oid:2.16.840.1.113883.2.51.999",
            "value": "2b17863b-a5e4-442b-9a40-9afbccbf562f"
          }
        ],
        "name": [
          {
            "prefix": [
              "dr"
            ],
            "given": [
              "Ex"
            ],
            "family": "Ample"
          }
        ],
        "address": [
          {
            "line": [
              "Laboratoire Central Européenne",
              "Boulevard du Jardin Botanique 32"
            ],
            "postalCode": "1000",
            "city": "Brussels",
            "country": "Belgium"
          }
        ],
        "text": {
          "status": "generated",
          "div": "<div xmlns=\"http://www.w3.org/1999/xhtml\">Laboratory: Laboratoire Central Européenne, 1000 Brussels, Belgium</div>"
        }
      }
    }
  ],
  "type": "document",
  "timestamp": "2021-03-26T12:40:40Z"
}
