{
  "resourceType": "Bundle",
  "id": "0bcc59d5-5051-452a-a5c9-b007e94354a0",
  "meta": {
    "profile": [
      "http://hl7.eu/fhir/laboratory/StructureDefinition/Bundle-eu-lab"
    ]
  },
  "identifier": {
    "assigner": {
      "display": "HL7 Europe"
    },
    "system": "urn:oid:2.16.840.1.113883.2.51.999",
    "value": "26bd7d08-4d93-43e0-957e-71d7a51e127e"
  },
  "entry": [
    {
      "fullUrl": "urn:uuid:32643c8f-e01b-4fb1-b7df-e425e5fe30f5",
      "resource": {
        "resourceType": "Composition",
        "id": "32643c8f-e01b-4fb1-b7df-e425e5fe30f5",
        "meta": {
          "profile": [
            "http://hl7.eu/fhir/laboratory/StructureDefinition/Composition-eu-lab"
          ]
        },
        "identifier": {
          "assigner": {
            "display": "HL7 Europe"
          },
          "system": "urn:oid:2.16.840.1.113883.2.51.999",
          "value": "5a1cc689-0175-4120-9822-84227025425e"
        },
        "author": [
          {
            "reference": "urn:uuid:9db26477-775b-44e8-ad49-1bf2d2ff318a"
          }
        ],
        "category": [
          {
            "coding": [
              {
                "code": "26436-6",
                "system": "http://loinc.org",
                "display": "Laboratory studies (set)"
              }
            ]
          }
        ],
        "type": {
          "coding": [
            {
              "code": "11502-2",
              "system": "http://loinc.org",
              "display": "Laboratory report"
            }
          ],
          "text": "Laboratory Report"
        },
        "section": [
          {
            "code": {
              "coding": [
                {
                  "code": "26436-6",
                  "system": "http://loinc.org",
                  "display": "Laboratory studies (set)"
                }
              ],
              "text": "Laboratory studies"
            },
            "section": [
              {
                "code": {
                  "coding": [
                    {
                      "code": "$18719-5",
                      "system": "http://loinc.org",
                      "display": "Chemistry studies (set)"
                    }
                  ],
                  "text": "Chemistry"
                },
                "entry": [
                  {
                    "reference": "urn:uuid:a322a66b-9f87-4564-b3b0-0a83176909e7"
                  },
                  {
                    "reference": "urn:uuid:af09f157-43e2-4489-a04b-e1a5bfcc01fc"
                  },
                  {
                    "reference": "urn:uuid:d6cfdc61-ef09-43c1-81e0-fd993f4e9654"
                  },
                  {
                    "reference": "urn:uuid:59229d13-3c77-4810-9b1d-343c0934a4af"
                  },
                  {
                    "reference": "urn:uuid:92cf0795-41b8-440d-bbd9-76a44a32a9e9"
                  },
                  {
                    "reference": "urn:uuid:3096b982-747a-4601-9c69-00257f71e3ee"
                  },
                  {
                    "reference": "urn:uuid:b9fbaa7f-5609-43e6-b3b5-ff18289db92c"
                  },
                  {
                    "reference": "urn:uuid:5d969c9a-ec15-48f8-9df4-7e39142e59ec"
                  },
                  {
                    "reference": "urn:uuid:00aa745f-75a0-4443-adb3-0828f4889f8a"
                  },
                  {
                    "reference": "urn:uuid:b2cfee2a-52c8-44cd-8d36-489fb7de2157"
                  },
                  {
                    "reference": "urn:uuid:7a1a9a7d-327e-4fe3-90c6-62650e9b32c3"
                  },
                  {
                    "reference": "urn:uuid:b244e704-4816-49d5-8dee-61b644ad9669"
                  },
                  {
                    "reference": "urn:uuid:cc82e645-5ff5-48f6-897c-10f1d7641964"
                  },
                  {
                    "reference": "urn:uuid:f075c0bb-b9c0-4401-9412-a3d355b9124c"
                  },
                  {
                    "reference": "urn:uuid:2b68b058-3111-42f9-ac12-7dfd027228c8"
                  },
                  {
                    "reference": "urn:uuid:e6316df6-9ead-4ff6-b78f-4a8c9caddb11"
                  },
                  {
                    "reference": "urn:uuid:8f89f11a-72bb-4175-961e-7532618fed6d"
                  },
                  {
                    "reference": "urn:uuid:bd8a9802-85fc-4a61-8a93-06e87f0c91e8"
                  },
                  {
                    "reference": "urn:uuid:99eeda54-8680-4b85-b70a-6413a7587bff"
                  },
                  {
                    "reference": "urn:uuid:d8e4761b-477f-4dfb-b926-53042ed0ad2b"
                  },
                  {
                    "reference": "urn:uuid:4d5b3ac8-402c-494f-8c8d-252f545d1502"
                  },
                  {
                    "reference": "urn:uuid:dbff9860-2840-46cf-894b-b3f58a7e59f3"
                  }
                ],
                "text": {
                  "status": "generated",
                  "div": "<div xmlns=\"http://www.w3.org/1999/xhtml\"><h3>Chemistry</h3><table class=\"hl7__eu__lab__report\"><thead><tr><th>Test</th><th>24-OCT-2018</th><th>Reference&#xA0;Range</th><th>Unit</th></tr></thead><tbody><tr><td>Glucose [Mass/volume] in Serum or Plasma</td><td>73.6</td><td>70 - 140</td><td>mg/dL</td></tr><tr><td>Urea nitrogen [Mass/volume] in Serum or Plasma</td><td>12.0</td><td>7 - 20</td><td>mg/dL</td></tr><tr><td>Creatinine [Mass/volume] in Serum or Plasma</td><td><strong>2.0 H</strong></td><td>0.9 - 1.3</td><td>mg/dL</td></tr><tr><td>Calcium [Mass/volume] in Serum or Plasma</td><td>9.9</td><td>8.5 - 10.5</td><td>mg/dL</td></tr><tr><td>Sodium [Moles/volume] in Serum or Plasma</td><td>141.7</td><td>135 - 145</td><td>mmol/L</td></tr><tr><td>Potassium [Moles/volume] in Serum or Plasma</td><td>3.9</td><td>3.5 - 5</td><td>mmol/L</td></tr><tr><td>Chloride [Moles/volume] in Serum or Plasma</td><td>101.5</td><td>98 - 108</td><td>mmol/L</td></tr><tr><td>Carbon dioxide, total [Moles/volume] in Serum or Plasma</td><td><strong>21.9 L</strong></td><td>22 - 29</td><td>mmol/L</td></tr><tr><td>Ketones [Presence] in Urine by Test strip</td><td>Urine ketone test = ++</td><td></td><td></td></tr><tr><td>Hemoglobin A1c/Hemoglobin.total in Blood</td><td><strong>2.9 L</strong></td><td>4.3 - 6.4</td><td>%</td></tr><tr><td>Glucose [Mass/volume] in Blood</td><td>73.6</td><td>70 - 140</td><td>mg/dL</td></tr><tr><td>Urea nitrogen [Mass/volume] in Blood</td><td>12.0</td><td>7 - 20</td><td>mg/dL</td></tr><tr><td>Creatinine [Mass/volume] in Blood</td><td><strong>7.6 H</strong></td><td>0.6 - 1.3</td><td>mg/dL</td></tr><tr><td>Calcium [Mass/volume] in Blood</td><td>9.9</td><td>8.5 - 10.5</td><td>mg/dL</td></tr><tr><td>Sodium [Moles/volume] in Blood</td><td>141.7</td><td>135 - 145</td><td>mmol/L</td></tr><tr><td>Potassium [Moles/volume] in Blood</td><td>3.9</td><td>3.5 - 5.3</td><td>mmol/L</td></tr><tr><td>Chloride [Moles/volume] in Blood</td><td>101.5</td><td>98 - 110</td><td>mmol/L</td></tr><tr><td>Carbon dioxide, total [Moles/volume] in Blood</td><td><strong>21.9 L</strong></td><td>22 - 29</td><td>mmol/L</td></tr><tr><td>Cholesterol [Mass/volume] in Serum or Plasma</td><td><strong>107.2 L</strong></td><td>125 - 200</td><td>mg/dL</td></tr><tr><td>Triglyceride [Mass/volume] in Serum or Plasma</td><td>142.5</td><td>0 - 150</td><td>mg/dL</td></tr><tr><td>Cholesterol in LDL [Mass/volume] in Serum or Plasma by Direct assay</td><td>50.9</td><td>0 - 130</td><td>mg/dL</td></tr><tr><td>Cholesterol in HDL [Mass/volume] in Serum or Plasma</td><td><strong>27.8 L</strong></td><td>40 - 60</td><td>mg/dL</td></tr></tbody></table></div>"
                },
                "title": "Chemistry"
              },
              {
                "code": {
                  "coding": [
                    {
                      "code": "$18729-4",
                      "system": "http://loinc.org",
                      "display": "Urinalysis studies (set)"
                    }
                  ],
                  "text": "Urinalysis"
                },
                "entry": [
                  {
                    "reference": "urn:uuid:07801fdb-0331-4b41-b6e7-921a1969a591"
                  },
                  {
                    "reference": "urn:uuid:f1ecf098-f94b-4eae-b44f-b13af618d21d"
                  },
                  {
                    "reference": "urn:uuid:870c9d32-28c3-4dde-bbe9-6166d7816b19"
                  },
                  {
                    "reference": "urn:uuid:0b9d8036-ff2d-4074-80e2-d764e2d04fe8"
                  },
                  {
                    "reference": "urn:uuid:0bf63ea3-4499-464d-b56e-4f4554f346aa"
                  },
                  {
                    "reference": "urn:uuid:6a3cb603-dfff-469e-b999-1147f9d81f8f"
                  },
                  {
                    "reference": "urn:uuid:ddcf7311-445b-4bd9-9396-300883a2f1b9"
                  },
                  {
                    "reference": "urn:uuid:685287a3-4250-4954-b1f7-f0c1e1724468"
                  },
                  {
                    "reference": "urn:uuid:e3ef6cbb-c488-412e-b56c-f0672f99419e"
                  },
                  {
                    "reference": "urn:uuid:ba61ee41-81b0-440e-932d-340a51838e4d"
                  },
                  {
                    "reference": "urn:uuid:bd62c43f-108a-40c4-b639-9bea0ca8c85d"
                  },
                  {
                    "reference": "urn:uuid:107d0160-bdcd-477e-bf6d-ea27e8fb00e8"
                  }
                ],
                "text": {
                  "status": "generated",
                  "div": "<div xmlns=\"http://www.w3.org/1999/xhtml\"><h3>Urinalysis</h3><table class=\"hl7__eu__lab__report\"><thead><tr><th>Test</th><th>24-OCT-2018</th><th>Reference&#xA0;Range</th><th>Unit</th></tr></thead><tbody><tr><td>Glucose [Mass/volume] in Urine by Test strip</td><td><strong>1.7 H</strong></td><td>0 - 0.8</td><td>mg/dL</td></tr><tr><td>Glucose [Presence] in Urine by Test strip</td><td>++</td><td></td><td></td></tr><tr><td>Bilirubin.total [Mass/volume] in Urine by Test strip</td><td>0.7</td><td>0.2 - 1</td><td>mg/dL</td></tr><tr><td>Bilirubin.total [Presence] in Urine by Test strip</td><td>Finding of bilirubin in urine</td><td></td><td></td></tr><tr><td>Ketones [Mass/volume] in Urine by Test strip</td><td><strong>5.3 H</strong></td><td>0 - 5</td><td>mg/dL</td></tr><tr><td>Specific gravity of Urine by Test strip</td><td><strong>1.0 L</strong></td><td>1.005 - 1.03</td><td>{nominal}</td></tr><tr><td>pH of Urine by Test strip</td><td>5.2</td><td>4.6 - 7</td><td>pH</td></tr><tr><td>Protein [Mass/volume] in Urine by Test strip</td><td><strong>272.0 H</strong></td><td>0 - 150</td><td>mg/dL</td></tr><tr><td>Protein [Presence] in Urine by Test strip</td><td>Urine protein test = ++</td><td></td><td></td></tr><tr><td>Nitrite [Presence] in Urine by Test strip</td><td>Urine nitrite negative</td><td></td><td></td></tr><tr><td>Hemoglobin [Presence] in Urine by Test strip</td><td>Urine blood test = negative</td><td></td><td></td></tr><tr><td>Leukocyte esterase [Presence] in Urine by Test strip</td><td>Urine leukocyte test negative</td><td></td><td></td></tr></tbody></table></div>"
                },
                "title": "Urinalysis"
              },
              {
                "code": {
                  "coding": [
                    {
                      "code": "$LP7846-1",
                      "system": "http://loinc.org",
                      "display": "Specimen information"
                    }
                  ],
                  "text": "Specimen information"
                },
                "entry": [
                  {
                    "reference": "urn:uuid:fb1fdaa1-ff37-4e7d-bb1d-e691fce83c6a"
                  },
                  {
                    "reference": "urn:uuid:b4eb4440-0104-4c54-9dd4-697ddadfa788"
                  },
                  {
                    "reference": "urn:uuid:9f04c5c8-9bda-4c32-8323-18bcb1c4ab0c"
                  },
                  {
                    "reference": "urn:uuid:b55dfc09-b838-449c-8920-2246dc33aaf8"
                  }
                ],
                "text": {
                  "status": "generated",
                  "div": "<div xmlns=\"http://www.w3.org/1999/xhtml\"><h3>Specimen information</h3><table class=\"hl7__eu__lab__report\"><thead><tr><th>Test</th><th>24-OCT-2018</th><th>Specimen</th><th></th></tr></thead><tbody><tr><td>Appearance of Urine</td><td>Cloudy urine</td><td>Urine</td><td></td></tr><tr><td>Odor of Urine</td><td>Urine smell ammoniacal</td><td>Urine</td><td></td></tr><tr><td>Clarity of Urine</td><td>Translucent</td><td>Urine</td><td></td></tr><tr><td>Color of Urine</td><td>Brown color</td><td>Urine</td><td></td></tr></tbody></table></div>"
                },
                "title": "Specimen information"
              }
            ],
            "title": "Laboratory Report"
          },
          {
            "text": {
              "status": "generated",
              "div": "<div xmlns=\"http://www.w3.org/1999/xhtml\"><h3>Annotation</h3><table class=\"hl7__eu__lab__report\"><tr><th>Conclusion and Recommendations based on this report and previous findings known to us</th></tr><tr><td>The patient shows markedly elevated creatinine, proteinuria, and abnormal urine findings (cloudy, brown, low specific gravity), suggesting significant renal dysfunction. Low HbA1c and normal glucose argue against diabetes. Mild metabolic acidosis is present (low CO₂). Lipid profile shows low total and HDL cholesterol. Urinalysis also reveals glucosuria and ketonuria. Findings are consistent with acute or chronic kidney disease, possibly with nephrotic features and impaired concentrating ability. Prompt nephrology evaluation is recommended.</td></tr></table></div>"
            },
            "code": {
              "coding": [
                {
                  "system": "http://loinc.org",
                  "code": "48767-8",
                  "display": "Annotation comment"
                }
              ]
            },
            "title": "Annotation comment"
          }
        ],
        "status": "final",
        "subject": {
          "reference": "urn:uuid:184bd31b-0b71-4884-b06d-b42535f1d5bf",
          "display": "Θεμιστοκλής Λιναρδάκη"
        },
        "date": "2018-10-24T08:16:00Z",
        "title": "Laboratory Report",
        "confidentiality": "N"
      }
    },
    {
      "fullUrl": "urn:uuid:8fe3f13f-a20c-4059-a38a-6f3d5cdf4368",
      "resource": {
        "resourceType": "DiagnosticReport",
        "id": "8fe3f13f-a20c-4059-a38a-6f3d5cdf4368",
        "meta": {
          "profile": [
            "http://hl7.eu/fhir/laboratory/StructureDefinition/DiagnosticReport-eu-lab"
          ]
        },
        "identifier": [
          {
            "assigner": {
              "display": "HL7 Europe"
            },
            "system": "urn:oid:2.16.840.1.113883.2.51.999",
            "value": "f94d9d11-2245-4e5f-9323-f506830220a5"
          }
        ],
        "extension": [
          {
            "url": "http://hl7.org/fhir/5.0/StructureDefinition/extension-DiagnosticReport.composition",
            "valueReference": {
              "reference": "urn:uuid:5a1cc689-0175-4120-9822-84227025425e"
            }
          }
        ],
        "category": [
          {
            "coding": [
              {
                "code": "26436-6",
                "system": "http://loinc.org",
                "display": "Laboratory studies (set)"
              }
            ]
          }
        ],
        "specimen": [
          {
            "reference": "urn:uuid:ba9f7054-b3a4-4133-8e95-79a231f6afb7"
          },
          {
            "reference": "urn:uuid:72512b40-c302-4fc5-a47b-5a13454f31a6"
          },
          {
            "reference": "urn:uuid:337e4fb3-a6d8-4b3c-aeb5-347e169a14f2"
          }
        ],
        "result": [
          {
            "reference": "urn:uuid:a322a66b-9f87-4564-b3b0-0a83176909e7"
          },
          {
            "reference": "urn:uuid:af09f157-43e2-4489-a04b-e1a5bfcc01fc"
          },
          {
            "reference": "urn:uuid:d6cfdc61-ef09-43c1-81e0-fd993f4e9654"
          },
          {
            "reference": "urn:uuid:59229d13-3c77-4810-9b1d-343c0934a4af"
          },
          {
            "reference": "urn:uuid:92cf0795-41b8-440d-bbd9-76a44a32a9e9"
          },
          {
            "reference": "urn:uuid:3096b982-747a-4601-9c69-00257f71e3ee"
          },
          {
            "reference": "urn:uuid:b9fbaa7f-5609-43e6-b3b5-ff18289db92c"
          },
          {
            "reference": "urn:uuid:5d969c9a-ec15-48f8-9df4-7e39142e59ec"
          },
          {
            "reference": "urn:uuid:fb1fdaa1-ff37-4e7d-bb1d-e691fce83c6a"
          },
          {
            "reference": "urn:uuid:b4eb4440-0104-4c54-9dd4-697ddadfa788"
          },
          {
            "reference": "urn:uuid:9f04c5c8-9bda-4c32-8323-18bcb1c4ab0c"
          },
          {
            "reference": "urn:uuid:b55dfc09-b838-449c-8920-2246dc33aaf8"
          },
          {
            "reference": "urn:uuid:07801fdb-0331-4b41-b6e7-921a1969a591"
          },
          {
            "reference": "urn:uuid:f1ecf098-f94b-4eae-b44f-b13af618d21d"
          },
          {
            "reference": "urn:uuid:870c9d32-28c3-4dde-bbe9-6166d7816b19"
          },
          {
            "reference": "urn:uuid:0b9d8036-ff2d-4074-80e2-d764e2d04fe8"
          },
          {
            "reference": "urn:uuid:0bf63ea3-4499-464d-b56e-4f4554f346aa"
          },
          {
            "reference": "urn:uuid:00aa745f-75a0-4443-adb3-0828f4889f8a"
          },
          {
            "reference": "urn:uuid:6a3cb603-dfff-469e-b999-1147f9d81f8f"
          },
          {
            "reference": "urn:uuid:ddcf7311-445b-4bd9-9396-300883a2f1b9"
          },
          {
            "reference": "urn:uuid:685287a3-4250-4954-b1f7-f0c1e1724468"
          },
          {
            "reference": "urn:uuid:e3ef6cbb-c488-412e-b56c-f0672f99419e"
          },
          {
            "reference": "urn:uuid:ba61ee41-81b0-440e-932d-340a51838e4d"
          },
          {
            "reference": "urn:uuid:bd62c43f-108a-40c4-b639-9bea0ca8c85d"
          },
          {
            "reference": "urn:uuid:107d0160-bdcd-477e-bf6d-ea27e8fb00e8"
          },
          {
            "reference": "urn:uuid:b2cfee2a-52c8-44cd-8d36-489fb7de2157"
          },
          {
            "reference": "urn:uuid:7a1a9a7d-327e-4fe3-90c6-62650e9b32c3"
          },
          {
            "reference": "urn:uuid:b244e704-4816-49d5-8dee-61b644ad9669"
          },
          {
            "reference": "urn:uuid:cc82e645-5ff5-48f6-897c-10f1d7641964"
          },
          {
            "reference": "urn:uuid:f075c0bb-b9c0-4401-9412-a3d355b9124c"
          },
          {
            "reference": "urn:uuid:2b68b058-3111-42f9-ac12-7dfd027228c8"
          },
          {
            "reference": "urn:uuid:e6316df6-9ead-4ff6-b78f-4a8c9caddb11"
          },
          {
            "reference": "urn:uuid:8f89f11a-72bb-4175-961e-7532618fed6d"
          },
          {
            "reference": "urn:uuid:bd8a9802-85fc-4a61-8a93-06e87f0c91e8"
          },
          {
            "reference": "urn:uuid:99eeda54-8680-4b85-b70a-6413a7587bff"
          },
          {
            "reference": "urn:uuid:d8e4761b-477f-4dfb-b926-53042ed0ad2b"
          },
          {
            "reference": "urn:uuid:4d5b3ac8-402c-494f-8c8d-252f545d1502"
          },
          {
            "reference": "urn:uuid:dbff9860-2840-46cf-894b-b3f58a7e59f3"
          }
        ],
        "status": "registered",
        "code": {
          "coding": [
            {
              "code": "11502-2",
              "system": "http://loinc.org",
              "display": "Laboratory report"
            }
          ]
        },
        "subject": {
          "reference": "urn:uuid:184bd31b-0b71-4884-b06d-b42535f1d5bf",
          "display": "Θεμιστοκλής Λιναρδάκη"
        }
      }
    },
    {
      "fullUrl": "urn:uuid:184bd31b-0b71-4884-b06d-b42535f1d5bf",
      "resource": {
        "resourceType": "Patient",
        "id": "184bd31b-0b71-4884-b06d-b42535f1d5bf",
        "meta": {
          "security": [
            {
              "system": "http://terminology.hl7.org/CodeSystem/v3-ActReason",
              "code": "HTEST"
            },
            {
              "system": "http://terminology.hl7.org/CodeSystem/v3-ActReason",
              "code": "TRAIN"
            }
          ],
          "tag": [
            {
              "system": "https://synderai.net/fhir/CodeSystem/tags",
              "code": "synthetic",
              "display": "SYNDERAI Synthetic data"
            }
          ],
          "profile": [
            "http://hl7.eu/fhir/base/StructureDefinition/patient-eu-core"
          ]
        },
        "identifier": [
          {
            "type": {
              "coding": [
                {
                  "code": "PT",
                  "system": "http://terminology.hl7.org/CodeSystem/v2-0203"
                }
              ]
            },
            "system": "http://ec.europa.eu/identifier/eci",
            "value": "5962-476889-7"
          },
          {
            "type": {
              "coding": [
                {
                  "code": "MR",
                  "system": "http://terminology.hl7.org/CodeSystem/v2-0203"
                }
              ]
            },
            "system": "http://local.setting.eu/identifier",
            "value": "925e2603-2ef9-6bdf-1330-2ebf526636c4"
          }
        ],
        "name": [
          {
            "family": "Λιναρδάκη"
          },
          {
            "given": [
              "Θεμιστοκλής"
            ]
          },
          {
            "text": "Θεμιστοκλής Λιναρδάκη"
          }
        ],
        "address": [
          {
            "line": [
              "Αμαρύνθου 54-58"
            ],
            "use": "home",
            "type": "physical",
            "postalCode": "262 21",
            "city": "Πάτρα",
            "country": "Greece"
          }
        ],
        "telecom": [
          {
            "system": "phone",
            "value": "+302226364480"
          }
        ],
        "extension": [
          {
            "url": "http://hl7.org/fhir/StructureDefinition/patient-nationality",
            "valueCodeableConcept": {
              "coding": [
                {
                  "code": "GR",
                  "system": "http://hl7.org/fhir/ValueSet/country"
                }
              ]
            }
          }
        ],
        "text": {
          "status": "generated",
          "div": "<div xmlns=\"http://www.w3.org/1999/xhtml\"><table class=\"hl7__ips\"><tr><td>Θεμιστοκλής Λιναρδάκη</td><td>male</td><td>21-Jan-1974</td></tr></table></div>"
        },
        "gender": "male",
        "birthDate": "1974-01-21"
      }
    },
    {
      "fullUrl": "urn:uuid:caf7ab1d-1596-4753-8eb8-2be81cb02a16",
      "resource": {
        "resourceType": "ServiceRequest",
        "id": "caf7ab1d-1596-4753-8eb8-2be81cb02a16",
        "meta": {
          "profile": [
            "http://hl7.eu/fhir/laboratory/StructureDefinition/ServiceRequest-eu-lab"
          ]
        },
        "identifier": [
          {
            "system": "http://example.org",
            "value": "7086057c-b772-4d53-b0a3-42816a249b6a"
          }
        ],
        "specimen": [
          {
            "reference": "urn:uuid:ba9f7054-b3a4-4133-8e95-79a231f6afb7"
          },
          {
            "reference": "urn:uuid:72512b40-c302-4fc5-a47b-5a13454f31a6"
          },
          {
            "reference": "urn:uuid:337e4fb3-a6d8-4b3c-aeb5-347e169a14f2"
          }
        ],
        "reasonCode": [
          {
            "coding": [
              {
                "code": "237602007",
                "system": "http://snomed.info/sct",
                "display": "Metabolic syndrome X"
              }
            ]
          },
          {
            "coding": [
              {
                "code": "433144002",
                "system": "http://snomed.info/sct",
                "display": "Chronic kidney disease stage 3"
              }
            ]
          },
          {
            "coding": [
              {
                "code": "157141000119108",
                "system": "http://snomed.info/sct",
                "display": "Proteinuria due to type 2 diabetes mellitus"
              }
            ]
          },
          {
            "coding": [
              {
                "code": "431856006",
                "system": "http://snomed.info/sct",
                "display": "Chronic kidney disease stage 2"
              }
            ]
          },
          {
            "coding": [
              {
                "code": "90781000119102",
                "system": "http://snomed.info/sct",
                "display": "Microalbuminuria due to type 2 diabetes mellitus"
              }
            ]
          },
          {
            "coding": [
              {
                "code": "127013003",
                "system": "http://snomed.info/sct",
                "display": "Disorder of kidney due to diabetes mellitus"
              }
            ]
          },
          {
            "coding": [
              {
                "code": "431855005",
                "system": "http://snomed.info/sct",
                "display": "Chronic kidney disease stage 1"
              }
            ]
          },
          {
            "coding": [
              {
                "code": "59621000",
                "system": "http://snomed.info/sct",
                "display": "Essential hypertension"
              }
            ]
          },
          {
            "coding": [
              {
                "code": "15777000",
                "system": "http://snomed.info/sct",
                "display": "Prediabetes"
              }
            ]
          },
          {
            "coding": [
              {
                "code": "271737000",
                "system": "http://snomed.info/sct",
                "display": "Anemia"
              }
            ]
          }
        ],
        "status": "active",
        "intent": "order",
        "code": {
          "coding": [
            {
              "code": "108252007",
              "system": "http://snomed.info/sct",
              "display": "Laboratory procedure"
            }
          ]
        },
        "subject": {
          "reference": "urn:uuid:184bd31b-0b71-4884-b06d-b42535f1d5bf",
          "display": "Θεμιστοκλής Λιναρδάκη"
        },
        "requester": {
          "reference": "urn:uuid:197b578f-fdc1-4b84-90ea-472ec1018e55"
        }
      }
    },
    {
      "fullUrl": "urn:uuid:197b578f-fdc1-4b84-90ea-472ec1018e55",
      "resource": {
        "resourceType": "PractitionerRole",
        "id": "197b578f-fdc1-4b84-90ea-472ec1018e55",
        "meta": {
          "profile": [
            "http://hl7.eu/fhir/base/StructureDefinition/practitionerRole-eu"
          ]
        },
        "text": {
          "status": "generated",
          "div": "<div xmlns=\"http://www.w3.org/1999/xhtml\">Provider Role Id: 197b578f-fdc1-4b84-90ea-472ec1018e55</div>"
        },
        "organization": {
          "reference": "urn:uuid:2c5896f5-2891-41de-891f-160310361074"
        }
      }
    },
    {
      "fullUrl": "urn:uuid:2c5896f5-2891-41de-891f-160310361074",
      "resource": {
        "resourceType": "Organization",
        "id": "2c5896f5-2891-41de-891f-160310361074",
        "meta": {
          "profile": [
            "http://hl7.eu/fhir/base/StructureDefinition/organization-eu"
          ]
        },
        "identifier": [
          {
            "assigner": {
              "display": "HL7 Europe"
            },
            "system": "urn:oid:2.16.840.1.113883.2.51.999",
            "value": "cf7c0285-8599-4d3f-beac-7e44ed6722b2"
          }
        ],
        "address": [
          {
            "line": [
              "211 Odós Filellinon"
            ],
            "city": "Patras",
            "postalCode": "262 21",
            "country": "Greece"
          }
        ],
        "text": {
          "status": "generated",
          "div": "<div xmlns=\"http://www.w3.org/1999/xhtml\">Provider Organization: Dr. Dimitris Economou</div>"
        },
        "name": "Dr. Dimitris Economou"
      }
    },
    {
      "fullUrl": "urn:uuid:ba9f7054-b3a4-4133-8e95-79a231f6afb7",
      "resource": {
        "resourceType": "Specimen",
        "id": "ba9f7054-b3a4-4133-8e95-79a231f6afb7",
        "meta": {
          "profile": [
            "http://hl7.eu/fhir/laboratory/StructureDefinition/Specimen-eu-lab"
          ]
        },
        "collection": {
          "collectedDateTime": "2018-10-24"
        },
        "text": {
          "status": "generated",
          "div": "<div xmlns=\"http://www.w3.org/1999/xhtml\"><table class=\"hl7__eu__lab__report\"><tr><th>Specimen</th><th>Collection Date</th></tr><tr><td>Acellular blood (serum or plasma) specimen</td><td><span class=\"nb\">24-Oct-2018</span></td></tr></table></div>"
        },
        "type": {
          "coding": [
            {
              "code": "122592007",
              "system": "http://snomed.info/sct",
              "display": "Acellular blood (serum or plasma) specimen"
            }
          ]
        }
      }
    },
    {
      "fullUrl": "urn:uuid:72512b40-c302-4fc5-a47b-5a13454f31a6",
      "resource": {
        "resourceType": "Specimen",
        "id": "72512b40-c302-4fc5-a47b-5a13454f31a6",
        "meta": {
          "profile": [
            "http://hl7.eu/fhir/laboratory/StructureDefinition/Specimen-eu-lab"
          ]
        },
        "collection": {
          "collectedDateTime": "2018-10-24"
        },
        "text": {
          "status": "generated",
          "div": "<div xmlns=\"http://www.w3.org/1999/xhtml\"><table class=\"hl7__eu__lab__report\"><tr><th>Specimen</th><th>Collection Date</th></tr><tr><td>Urine specimen</td><td><span class=\"nb\">24-Oct-2018</span></td></tr></table></div>"
        },
        "type": {
          "coding": [
            {
              "code": "122575003",
              "system": "http://snomed.info/sct",
              "display": "Urine specimen"
            }
          ]
        }
      }
    },
    {
      "fullUrl": "urn:uuid:337e4fb3-a6d8-4b3c-aeb5-347e169a14f2",
      "resource": {
        "resourceType": "Specimen",
        "id": "337e4fb3-a6d8-4b3c-aeb5-347e169a14f2",
        "meta": {
          "profile": [
            "http://hl7.eu/fhir/laboratory/StructureDefinition/Specimen-eu-lab"
          ]
        },
        "collection": {
          "collectedDateTime": "2018-10-24"
        },
        "text": {
          "status": "generated",
          "div": "<div xmlns=\"http://www.w3.org/1999/xhtml\"><table class=\"hl7__eu__lab__report\"><tr><th>Specimen</th><th>Collection Date</th></tr><tr><td>Whole blood specimen (specimen)</td><td><span class=\"nb\">24-Oct-2018</span></td></tr></table></div>"
        },
        "type": {
          "coding": [
            {
              "code": "258580003",
              "system": "http://snomed.info/sct",
              "display": "Whole blood specimen (specimen)"
            }
          ]
        }
      }
    },
    {
      "fullUrl": "urn:uuid:a322a66b-9f87-4564-b3b0-0a83176909e7",
      "resource": {
        "resourceType": "Observation",
        "id": "a322a66b-9f87-4564-b3b0-0a83176909e7",
        "meta": {
          "profile": [
            "http://hl7.eu/fhir/laboratory/StructureDefinition/Observation-resultslab-eu-lab"
          ]
        },
        "performer": [
          {
            "display": "The Central European Lab"
          }
        ],
        "category": [
          {
            "coding": [
              {
                "system": "http://terminology.hl7.org/CodeSystem/observation-category",
                "code": "laboratory"
              }
            ]
          }
        ],
        "code": {
          "coding": [
            {
              "code": "2345-7",
              "system": "http://loinc.org",
              "display": "Glucose [Mass/volume] in Serum or Plasma"
            }
          ],
          "text": "Glucose [Mass/volume] in Serum or Plasma"
        },
        "valueQuantity": {
          "system": "http://unitsofmeasure.org",
          "value": 73.6,
          "unit": "mg/dL",
          "code": "mg/dL"
        },
        "referenceRange": [
          {
            "low": {
              "value": 70,
              "code": "mg/dL",
              "system": "http://unitsofmeasure.org"
            }
          },
          {
            "high": {
              "value": 140,
              "code": "mg/dL",
              "system": "http://unitsofmeasure.org"
            }
          }
        ],
        "text": {
          "status": "generated",
          "div": "<div xmlns=\"http://www.w3.org/1999/xhtml\"><table class=\"hl7__eu__lab__report\"><tr><th>Test</th><th>24-Oct-2018</th><th>Reference&#xA0;Range</th><th>Unit</th></tr><tr><td>Glucose [Mass/volume] in Serum or Plasma</td><td>73.6</td><td>70 - 140</td><td></td><td>mg/dL</td></tr></table></div>"
        },
        "status": "final",
        "subject": {
          "reference": "urn:uuid:184bd31b-0b71-4884-b06d-b42535f1d5bf",
          "display": "Θεμιστοκλής Λιναρδάκη"
        },
        "effectiveDateTime": "2018-10-24T06:16:00Z",
        "specimen": {
          "reference": "urn:uuid:ba9f7054-b3a4-4133-8e95-79a231f6afb7"
        }
      }
    },
    {
      "fullUrl": "urn:uuid:af09f157-43e2-4489-a04b-e1a5bfcc01fc",
      "resource": {
        "resourceType": "Observation",
        "id": "af09f157-43e2-4489-a04b-e1a5bfcc01fc",
        "meta": {
          "profile": [
            "http://hl7.eu/fhir/laboratory/StructureDefinition/Observation-resultslab-eu-lab"
          ]
        },
        "performer": [
          {
            "display": "The Central European Lab"
          }
        ],
        "category": [
          {
            "coding": [
              {
                "system": "http://terminology.hl7.org/CodeSystem/observation-category",
                "code": "laboratory"
              }
            ]
          }
        ],
        "code": {
          "coding": [
            {
              "code": "3094-0",
              "system": "http://loinc.org",
              "display": "Urea nitrogen [Mass/volume] in Serum or Plasma"
            }
          ],
          "text": "Urea nitrogen [Mass/volume] in Serum or Plasma"
        },
        "valueQuantity": {
          "system": "http://unitsofmeasure.org",
          "value": 12,
          "unit": "mg/dL",
          "code": "mg/dL"
        },
        "referenceRange": [
          {
            "low": {
              "value": 7,
              "code": "mg/dL",
              "system": "http://unitsofmeasure.org"
            }
          },
          {
            "high": {
              "value": 20,
              "code": "mg/dL",
              "system": "http://unitsofmeasure.org"
            }
          }
        ],
        "text": {
          "status": "generated",
          "div": "<div xmlns=\"http://www.w3.org/1999/xhtml\"><table class=\"hl7__eu__lab__report\"><tr><th>Test</th><th>24-Oct-2018</th><th>Reference&#xA0;Range</th><th>Unit</th></tr><tr><td>Urea nitrogen [Mass/volume] in Serum or Plasma</td><td>12.0</td><td>7 - 20</td><td></td><td>mg/dL</td></tr></table></div>"
        },
        "status": "final",
        "subject": {
          "reference": "urn:uuid:184bd31b-0b71-4884-b06d-b42535f1d5bf",
          "display": "Θεμιστοκλής Λιναρδάκη"
        },
        "effectiveDateTime": "2018-10-24T06:16:00Z",
        "specimen": {
          "reference": "urn:uuid:ba9f7054-b3a4-4133-8e95-79a231f6afb7"
        }
      }
    },
    {
      "fullUrl": "urn:uuid:d6cfdc61-ef09-43c1-81e0-fd993f4e9654",
      "resource": {
        "resourceType": "Observation",
        "id": "d6cfdc61-ef09-43c1-81e0-fd993f4e9654",
        "meta": {
          "profile": [
            "http://hl7.eu/fhir/laboratory/StructureDefinition/Observation-resultslab-eu-lab"
          ]
        },
        "performer": [
          {
            "display": "The Central European Lab"
          }
        ],
        "category": [
          {
            "coding": [
              {
                "system": "http://terminology.hl7.org/CodeSystem/observation-category",
                "code": "laboratory"
              }
            ]
          }
        ],
        "code": {
          "coding": [
            {
              "code": "2160-0",
              "system": "http://loinc.org",
              "display": "Creatinine [Mass/volume] in Serum or Plasma"
            }
          ],
          "text": "Creatinine [Mass/volume] in Serum or Plasma"
        },
        "valueQuantity": {
          "system": "http://unitsofmeasure.org",
          "value": 2,
          "unit": "mg/dL",
          "code": "mg/dL"
        },
        "referenceRange": [
          {
            "low": {
              "value": 0.9,
              "code": "mg/dL",
              "system": "http://unitsofmeasure.org"
            }
          },
          {
            "high": {
              "value": 1.3,
              "code": "mg/dL",
              "system": "http://unitsofmeasure.org"
            }
          }
        ],
        "interpretation": [
          {
            "coding": [
              {
                "code": "H",
                "system": "http://terminology.hl7.org/CodeSystem/v3-ObservationInterpretation",
                "display": "High"
              }
            ]
          }
        ],
        "text": {
          "status": "generated",
          "div": "<div xmlns=\"http://www.w3.org/1999/xhtml\"><table class=\"hl7__eu__lab__report\"><tr><th>Test</th><th>24-Oct-2018</th><th>Reference&#xA0;Range</th><th>Unit</th></tr><tr><td>Creatinine [Mass/volume] in Serum or Plasma</td><td>2.0</td><td>0.9 - 1.3</td><td>H</td><td>mg/dL</td></tr></table></div>"
        },
        "status": "final",
        "subject": {
          "reference": "urn:uuid:184bd31b-0b71-4884-b06d-b42535f1d5bf",
          "display": "Θεμιστοκλής Λιναρδάκη"
        },
        "effectiveDateTime": "2018-10-24T06:16:00Z",
        "specimen": {
          "reference": "urn:uuid:ba9f7054-b3a4-4133-8e95-79a231f6afb7"
        }
      }
    },
    {
      "fullUrl": "urn:uuid:59229d13-3c77-4810-9b1d-343c0934a4af",
      "resource": {
        "resourceType": "Observation",
        "id": "59229d13-3c77-4810-9b1d-343c0934a4af",
        "meta": {
          "profile": [
            "http://hl7.eu/fhir/laboratory/StructureDefinition/Observation-resultslab-eu-lab"
          ]
        },
        "performer": [
          {
            "display": "The Central European Lab"
          }
        ],
        "category": [
          {
            "coding": [
              {
                "system": "http://terminology.hl7.org/CodeSystem/observation-category",
                "code": "laboratory"
              }
            ]
          }
        ],
        "code": {
          "coding": [
            {
              "code": "17861-6",
              "system": "http://loinc.org",
              "display": "Calcium [Mass/volume] in Serum or Plasma"
            }
          ],
          "text": "Calcium [Mass/volume] in Serum or Plasma"
        },
        "valueQuantity": {
          "system": "http://unitsofmeasure.org",
          "value": 9.9,
          "unit": "mg/dL",
          "code": "mg/dL"
        },
        "referenceRange": [
          {
            "low": {
              "value": 8.5,
              "code": "mg/dL",
              "system": "http://unitsofmeasure.org"
            }
          },
          {
            "high": {
              "value": 10.5,
              "code": "mg/dL",
              "system": "http://unitsofmeasure.org"
            }
          }
        ],
        "text": {
          "status": "generated",
          "div": "<div xmlns=\"http://www.w3.org/1999/xhtml\"><table class=\"hl7__eu__lab__report\"><tr><th>Test</th><th>24-Oct-2018</th><th>Reference&#xA0;Range</th><th>Unit</th></tr><tr><td>Calcium [Mass/volume] in Serum or Plasma</td><td>9.9</td><td>8.5 - 10.5</td><td></td><td>mg/dL</td></tr></table></div>"
        },
        "status": "final",
        "subject": {
          "reference": "urn:uuid:184bd31b-0b71-4884-b06d-b42535f1d5bf",
          "display": "Θεμιστοκλής Λιναρδάκη"
        },
        "effectiveDateTime": "2018-10-24T06:16:00Z",
        "specimen": {
          "reference": "urn:uuid:ba9f7054-b3a4-4133-8e95-79a231f6afb7"
        }
      }
    },
    {
      "fullUrl": "urn:uuid:92cf0795-41b8-440d-bbd9-76a44a32a9e9",
      "resource": {
        "resourceType": "Observation",
        "id": "92cf0795-41b8-440d-bbd9-76a44a32a9e9",
        "meta": {
          "profile": [
            "http://hl7.eu/fhir/laboratory/StructureDefinition/Observation-resultslab-eu-lab"
          ]
        },
        "performer": [
          {
            "display": "The Central European Lab"
          }
        ],
        "category": [
          {
            "coding": [
              {
                "system": "http://terminology.hl7.org/CodeSystem/observation-category",
                "code": "laboratory"
              }
            ]
          }
        ],
        "code": {
          "coding": [
            {
              "code": "2951-2",
              "system": "http://loinc.org",
              "display": "Sodium [Moles/volume] in Serum or Plasma"
            }
          ],
          "text": "Sodium [Moles/volume] in Serum or Plasma"
        },
        "valueQuantity": {
          "system": "http://unitsofmeasure.org",
          "value": 141.7,
          "unit": "mmol/L",
          "code": "mmol/L"
        },
        "referenceRange": [
          {
            "low": {
              "value": 135,
              "code": "mmol/L",
              "system": "http://unitsofmeasure.org"
            }
          },
          {
            "high": {
              "value": 145,
              "code": "mmol/L",
              "system": "http://unitsofmeasure.org"
            }
          }
        ],
        "text": {
          "status": "generated",
          "div": "<div xmlns=\"http://www.w3.org/1999/xhtml\"><table class=\"hl7__eu__lab__report\"><tr><th>Test</th><th>24-Oct-2018</th><th>Reference&#xA0;Range</th><th>Unit</th></tr><tr><td>Sodium [Moles/volume] in Serum or Plasma</td><td>141.7</td><td>135 - 145</td><td></td><td>mmol/L</td></tr></table></div>"
        },
        "status": "final",
        "subject": {
          "reference": "urn:uuid:184bd31b-0b71-4884-b06d-b42535f1d5bf",
          "display": "Θεμιστοκλής Λιναρδάκη"
        },
        "effectiveDateTime": "2018-10-24T06:16:00Z",
        "specimen": {
          "reference": "urn:uuid:ba9f7054-b3a4-4133-8e95-79a231f6afb7"
        }
      }
    },
    {
      "fullUrl": "urn:uuid:3096b982-747a-4601-9c69-00257f71e3ee",
      "resource": {
        "resourceType": "Observation",
        "id": "3096b982-747a-4601-9c69-00257f71e3ee",
        "meta": {
          "profile": [
            "http://hl7.eu/fhir/laboratory/StructureDefinition/Observation-resultslab-eu-lab"
          ]
        },
        "performer": [
          {
            "display": "The Central European Lab"
          }
        ],
        "category": [
          {
            "coding": [
              {
                "system": "http://terminology.hl7.org/CodeSystem/observation-category",
                "code": "laboratory"
              }
            ]
          }
        ],
        "code": {
          "coding": [
            {
              "code": "2823-3",
              "system": "http://loinc.org",
              "display": "Potassium [Moles/volume] in Serum or Plasma"
            }
          ],
          "text": "Potassium [Moles/volume] in Serum or Plasma"
        },
        "valueQuantity": {
          "system": "http://unitsofmeasure.org",
          "value": 3.9,
          "unit": "mmol/L",
          "code": "mmol/L"
        },
        "referenceRange": [
          {
            "low": {
              "value": 3.5,
              "code": "mmol/L",
              "system": "http://unitsofmeasure.org"
            }
          },
          {
            "high": {
              "value": 5,
              "code": "mmol/L",
              "system": "http://unitsofmeasure.org"
            }
          }
        ],
        "text": {
          "status": "generated",
          "div": "<div xmlns=\"http://www.w3.org/1999/xhtml\"><table class=\"hl7__eu__lab__report\"><tr><th>Test</th><th>24-Oct-2018</th><th>Reference&#xA0;Range</th><th>Unit</th></tr><tr><td>Potassium [Moles/volume] in Serum or Plasma</td><td>3.9</td><td>3.5 - 5</td><td></td><td>mmol/L</td></tr></table></div>"
        },
        "status": "final",
        "subject": {
          "reference": "urn:uuid:184bd31b-0b71-4884-b06d-b42535f1d5bf",
          "display": "Θεμιστοκλής Λιναρδάκη"
        },
        "effectiveDateTime": "2018-10-24T06:16:00Z",
        "specimen": {
          "reference": "urn:uuid:ba9f7054-b3a4-4133-8e95-79a231f6afb7"
        }
      }
    },
    {
      "fullUrl": "urn:uuid:b9fbaa7f-5609-43e6-b3b5-ff18289db92c",
      "resource": {
        "resourceType": "Observation",
        "id": "b9fbaa7f-5609-43e6-b3b5-ff18289db92c",
        "meta": {
          "profile": [
            "http://hl7.eu/fhir/laboratory/StructureDefinition/Observation-resultslab-eu-lab"
          ]
        },
        "performer": [
          {
            "display": "The Central European Lab"
          }
        ],
        "category": [
          {
            "coding": [
              {
                "system": "http://terminology.hl7.org/CodeSystem/observation-category",
                "code": "laboratory"
              }
            ]
          }
        ],
        "code": {
          "coding": [
            {
              "code": "2075-0",
              "system": "http://loinc.org",
              "display": "Chloride [Moles/volume] in Serum or Plasma"
            }
          ],
          "text": "Chloride [Moles/volume] in Serum or Plasma"
        },
        "valueQuantity": {
          "system": "http://unitsofmeasure.org",
          "value": 101.5,
          "unit": "mmol/L",
          "code": "mmol/L"
        },
        "referenceRange": [
          {
            "low": {
              "value": 98,
              "code": "mmol/L",
              "system": "http://unitsofmeasure.org"
            }
          },
          {
            "high": {
              "value": 108,
              "code": "mmol/L",
              "system": "http://unitsofmeasure.org"
            }
          }
        ],
        "text": {
          "status": "generated",
          "div": "<div xmlns=\"http://www.w3.org/1999/xhtml\"><table class=\"hl7__eu__lab__report\"><tr><th>Test</th><th>24-Oct-2018</th><th>Reference&#xA0;Range</th><th>Unit</th></tr><tr><td>Chloride [Moles/volume] in Serum or Plasma</td><td>101.5</td><td>98 - 108</td><td></td><td>mmol/L</td></tr></table></div>"
        },
        "status": "final",
        "subject": {
          "reference": "urn:uuid:184bd31b-0b71-4884-b06d-b42535f1d5bf",
          "display": "Θεμιστοκλής Λιναρδάκη"
        },
        "effectiveDateTime": "2018-10-24T06:16:00Z",
        "specimen": {
          "reference": "urn:uuid:ba9f7054-b3a4-4133-8e95-79a231f6afb7"
        }
      }
    },
    {
      "fullUrl": "urn:uuid:5d969c9a-ec15-48f8-9df4-7e39142e59ec",
      "resource": {
        "resourceType": "Observation",
        "id": "5d969c9a-ec15-48f8-9df4-7e39142e59ec",
        "meta": {
          "profile": [
            "http://hl7.eu/fhir/laboratory/StructureDefinition/Observation-resultslab-eu-lab"
          ]
        },
        "performer": [
          {
            "display": "The Central European Lab"
          }
        ],
        "category": [
          {
            "coding": [
              {
                "system": "http://terminology.hl7.org/CodeSystem/observation-category",
                "code": "laboratory"
              }
            ]
          }
        ],
        "code": {
          "coding": [
            {
              "code": "2028-9",
              "system": "http://loinc.org",
              "display": "Carbon dioxide, total [Moles/volume] in Serum or Plasma"
            }
          ],
          "text": "Carbon dioxide, total [Moles/volume] in Serum or Plasma"
        },
        "valueQuantity": {
          "system": "http://unitsofmeasure.org",
          "value": 21.9,
          "unit": "mmol/L",
          "code": "mmol/L"
        },
        "referenceRange": [
          {
            "low": {
              "value": 22,
              "code": "mmol/L",
              "system": "http://unitsofmeasure.org"
            }
          },
          {
            "high": {
              "value": 29,
              "code": "mmol/L",
              "system": "http://unitsofmeasure.org"
            }
          }
        ],
        "interpretation": [
          {
            "coding": [
              {
                "code": "L",
                "system": "http://terminology.hl7.org/CodeSystem/v3-ObservationInterpretation",
                "display": "Low"
              }
            ]
          }
        ],
        "text": {
          "status": "generated",
          "div": "<div xmlns=\"http://www.w3.org/1999/xhtml\"><table class=\"hl7__eu__lab__report\"><tr><th>Test</th><th>24-Oct-2018</th><th>Reference&#xA0;Range</th><th>Unit</th></tr><tr><td>Carbon dioxide, total [Moles/volume] in Serum or Plasma</td><td>21.9</td><td>22 - 29</td><td>L</td><td>mmol/L</td></tr></table></div>"
        },
        "status": "final",
        "subject": {
          "reference": "urn:uuid:184bd31b-0b71-4884-b06d-b42535f1d5bf",
          "display": "Θεμιστοκλής Λιναρδάκη"
        },
        "effectiveDateTime": "2018-10-24T06:16:00Z",
        "specimen": {
          "reference": "urn:uuid:ba9f7054-b3a4-4133-8e95-79a231f6afb7"
        }
      }
    },
    {
      "fullUrl": "urn:uuid:fb1fdaa1-ff37-4e7d-bb1d-e691fce83c6a",
      "resource": {
        "resourceType": "Observation",
        "id": "fb1fdaa1-ff37-4e7d-bb1d-e691fce83c6a",
        "meta": {
          "profile": [
            "http://hl7.eu/fhir/laboratory/StructureDefinition/Observation-resultslab-eu-lab"
          ]
        },
        "performer": [
          {
            "display": "The Central European Lab"
          }
        ],
        "category": [
          {
            "coding": [
              {
                "system": "http://terminology.hl7.org/CodeSystem/observation-category",
                "code": "laboratory"
              }
            ]
          }
        ],
        "code": {
          "coding": [
            {
              "code": "5767-9",
              "system": "http://loinc.org",
              "display": "Appearance of Urine"
            }
          ],
          "text": "Appearance of Urine"
        },
        "text": {
          "status": "generated",
          "div": "<div xmlns=\"http://www.w3.org/1999/xhtml\"><table class=\"hl7__eu__lab__report\"><tr><th>Test</th><th>24-Oct-2018</th><th>Reference&#xA0;Range</th><th>Unit</th></tr><tr><td>Appearance of Urine</td></tr></table></div>"
        },
        "status": "final",
        "subject": {
          "reference": "urn:uuid:184bd31b-0b71-4884-b06d-b42535f1d5bf",
          "display": "Θεμιστοκλής Λιναρδάκη"
        },
        "effectiveDateTime": "2018-10-24T06:16:00Z",
        "specimen": {
          "reference": "urn:uuid:72512b40-c302-4fc5-a47b-5a13454f31a6"
        }
      }
    },
    {
      "fullUrl": "urn:uuid:b4eb4440-0104-4c54-9dd4-697ddadfa788",
      "resource": {
        "resourceType": "Observation",
        "id": "b4eb4440-0104-4c54-9dd4-697ddadfa788",
        "meta": {
          "profile": [
            "http://hl7.eu/fhir/laboratory/StructureDefinition/Observation-resultslab-eu-lab"
          ]
        },
        "performer": [
          {
            "display": "The Central European Lab"
          }
        ],
        "category": [
          {
            "coding": [
              {
                "system": "http://terminology.hl7.org/CodeSystem/observation-category",
                "code": "laboratory"
              }
            ]
          }
        ],
        "code": {
          "coding": [
            {
              "code": "34533-0",
              "system": "http://loinc.org",
              "display": "Odor of Urine"
            }
          ],
          "text": "Odor of Urine"
        },
        "text": {
          "status": "generated",
          "div": "<div xmlns=\"http://www.w3.org/1999/xhtml\"><table class=\"hl7__eu__lab__report\"><tr><th>Test</th><th>24-Oct-2018</th><th>Reference&#xA0;Range</th><th>Unit</th></tr><tr><td>Odor of Urine</td></tr></table></div>"
        },
        "status": "final",
        "subject": {
          "reference": "urn:uuid:184bd31b-0b71-4884-b06d-b42535f1d5bf",
          "display": "Θεμιστοκλής Λιναρδάκη"
        },
        "effectiveDateTime": "2018-10-24T06:16:00Z",
        "specimen": {
          "reference": "urn:uuid:72512b40-c302-4fc5-a47b-5a13454f31a6"
        }
      }
    },
    {
      "fullUrl": "urn:uuid:9f04c5c8-9bda-4c32-8323-18bcb1c4ab0c",
      "resource": {
        "resourceType": "Observation",
        "id": "9f04c5c8-9bda-4c32-8323-18bcb1c4ab0c",
        "meta": {
          "profile": [
            "http://hl7.eu/fhir/laboratory/StructureDefinition/Observation-resultslab-eu-lab"
          ]
        },
        "performer": [
          {
            "display": "The Central European Lab"
          }
        ],
        "category": [
          {
            "coding": [
              {
                "system": "http://terminology.hl7.org/CodeSystem/observation-category",
                "code": "laboratory"
              }
            ]
          }
        ],
        "code": {
          "coding": [
            {
              "code": "32167-9",
              "system": "http://loinc.org",
              "display": "Clarity of Urine"
            }
          ],
          "text": "Clarity of Urine"
        },
        "text": {
          "status": "generated",
          "div": "<div xmlns=\"http://www.w3.org/1999/xhtml\"><table class=\"hl7__eu__lab__report\"><tr><th>Test</th><th>24-Oct-2018</th><th>Reference&#xA0;Range</th><th>Unit</th></tr><tr><td>Clarity of Urine</td></tr></table></div>"
        },
        "status": "final",
        "subject": {
          "reference": "urn:uuid:184bd31b-0b71-4884-b06d-b42535f1d5bf",
          "display": "Θεμιστοκλής Λιναρδάκη"
        },
        "effectiveDateTime": "2018-10-24T06:16:00Z",
        "specimen": {
          "reference": "urn:uuid:72512b40-c302-4fc5-a47b-5a13454f31a6"
        }
      }
    },
    {
      "fullUrl": "urn:uuid:b55dfc09-b838-449c-8920-2246dc33aaf8",
      "resource": {
        "resourceType": "Observation",
        "id": "b55dfc09-b838-449c-8920-2246dc33aaf8",
        "meta": {
          "profile": [
            "http://hl7.eu/fhir/laboratory/StructureDefinition/Observation-resultslab-eu-lab"
          ]
        },
        "performer": [
          {
            "display": "The Central European Lab"
          }
        ],
        "category": [
          {
            "coding": [
              {
                "system": "http://terminology.hl7.org/CodeSystem/observation-category",
                "code": "laboratory"
              }
            ]
          }
        ],
        "code": {
          "coding": [
            {
              "code": "5778-6",
              "system": "http://loinc.org",
              "display": "Color of Urine"
            }
          ],
          "text": "Color of Urine"
        },
        "text": {
          "status": "generated",
          "div": "<div xmlns=\"http://www.w3.org/1999/xhtml\"><table class=\"hl7__eu__lab__report\"><tr><th>Test</th><th>24-Oct-2018</th><th>Reference&#xA0;Range</th><th>Unit</th></tr><tr><td>Color of Urine</td></tr></table></div>"
        },
        "status": "final",
        "subject": {
          "reference": "urn:uuid:184bd31b-0b71-4884-b06d-b42535f1d5bf",
          "display": "Θεμιστοκλής Λιναρδάκη"
        },
        "effectiveDateTime": "2018-10-24T06:16:00Z",
        "specimen": {
          "reference": "urn:uuid:72512b40-c302-4fc5-a47b-5a13454f31a6"
        }
      }
    },
    {
      "fullUrl": "urn:uuid:07801fdb-0331-4b41-b6e7-921a1969a591",
      "resource": {
        "resourceType": "Observation",
        "id": "07801fdb-0331-4b41-b6e7-921a1969a591",
        "meta": {
          "profile": [
            "http://hl7.eu/fhir/laboratory/StructureDefinition/Observation-resultslab-eu-lab"
          ]
        },
        "performer": [
          {
            "display": "The Central European Lab"
          }
        ],
        "category": [
          {
            "coding": [
              {
                "system": "http://terminology.hl7.org/CodeSystem/observation-category",
                "code": "laboratory"
              }
            ]
          }
        ],
        "code": {
          "coding": [
            {
              "code": "5792-7",
              "system": "http://loinc.org",
              "display": "Glucose [Mass/volume] in Urine by Test strip"
            }
          ],
          "text": "Glucose [Mass/volume] in Urine by Test strip"
        },
        "valueQuantity": {
          "system": "http://unitsofmeasure.org",
          "value": 1.7,
          "unit": "mg/dL",
          "code": "mg/dL"
        },
        "referenceRange": [
          {
            "low": {
              "value": 0,
              "code": "mg/dL",
              "system": "http://unitsofmeasure.org"
            }
          },
          {
            "high": {
              "value": 0.8,
              "code": "mg/dL",
              "system": "http://unitsofmeasure.org"
            }
          }
        ],
        "interpretation": [
          {
            "coding": [
              {
                "code": "H",
                "system": "http://terminology.hl7.org/CodeSystem/v3-ObservationInterpretation",
                "display": "High"
              }
            ]
          }
        ],
        "text": {
          "status": "generated",
          "div": "<div xmlns=\"http://www.w3.org/1999/xhtml\"><table class=\"hl7__eu__lab__report\"><tr><th>Test</th><th>24-Oct-2018</th><th>Reference&#xA0;Range</th><th>Unit</th></tr><tr><td>Glucose [Mass/volume] in Urine by Test strip</td><td>1.7</td><td>0 - 0.8</td><td>H</td><td>mg/dL</td></tr></table></div>"
        },
        "status": "final",
        "subject": {
          "reference": "urn:uuid:184bd31b-0b71-4884-b06d-b42535f1d5bf",
          "display": "Θεμιστοκλής Λιναρδάκη"
        },
        "effectiveDateTime": "2018-10-24T06:16:00Z",
        "specimen": {
          "reference": "urn:uuid:72512b40-c302-4fc5-a47b-5a13454f31a6"
        }
      }
    },
    {
      "fullUrl": "urn:uuid:f1ecf098-f94b-4eae-b44f-b13af618d21d",
      "resource": {
        "resourceType": "Observation",
        "id": "f1ecf098-f94b-4eae-b44f-b13af618d21d",
        "meta": {
          "profile": [
            "http://hl7.eu/fhir/laboratory/StructureDefinition/Observation-resultslab-eu-lab"
          ]
        },
        "performer": [
          {
            "display": "The Central European Lab"
          }
        ],
        "category": [
          {
            "coding": [
              {
                "system": "http://terminology.hl7.org/CodeSystem/observation-category",
                "code": "laboratory"
              }
            ]
          }
        ],
        "code": {
          "coding": [
            {
              "code": "25428-4",
              "system": "http://loinc.org",
              "display": "Glucose [Presence] in Urine by Test strip"
            }
          ],
          "text": "Glucose [Presence] in Urine by Test strip"
        },
        "text": {
          "status": "generated",
          "div": "<div xmlns=\"http://www.w3.org/1999/xhtml\"><table class=\"hl7__eu__lab__report\"><tr><th>Test</th><th>24-Oct-2018</th><th>Reference&#xA0;Range</th><th>Unit</th></tr><tr><td>Glucose [Presence] in Urine by Test strip</td></tr></table></div>"
        },
        "status": "final",
        "subject": {
          "reference": "urn:uuid:184bd31b-0b71-4884-b06d-b42535f1d5bf",
          "display": "Θεμιστοκλής Λιναρδάκη"
        },
        "effectiveDateTime": "2018-10-24T06:16:00Z",
        "specimen": {
          "reference": "urn:uuid:72512b40-c302-4fc5-a47b-5a13454f31a6"
        }
      }
    },
    {
      "fullUrl": "urn:uuid:870c9d32-28c3-4dde-bbe9-6166d7816b19",
      "resource": {
        "resourceType": "Observation",
        "id": "870c9d32-28c3-4dde-bbe9-6166d7816b19",
        "meta": {
          "profile": [
            "http://hl7.eu/fhir/laboratory/StructureDefinition/Observation-resultslab-eu-lab"
          ]
        },
        "performer": [
          {
            "display": "The Central European Lab"
          }
        ],
        "category": [
          {
            "coding": [
              {
                "system": "http://terminology.hl7.org/CodeSystem/observation-category",
                "code": "laboratory"
              }
            ]
          }
        ],
        "code": {
          "coding": [
            {
              "code": "20505-4",
              "system": "http://loinc.org",
              "display": "Bilirubin.total [Mass/volume] in Urine by Test strip"
            }
          ],
          "text": "Bilirubin.total [Mass/volume] in Urine by Test strip"
        },
        "valueQuantity": {
          "system": "http://unitsofmeasure.org",
          "value": 0.7,
          "unit": "mg/dL",
          "code": "mg/dL"
        },
        "referenceRange": [
          {
            "low": {
              "value": 0.2,
              "code": "mg/dL",
              "system": "http://unitsofmeasure.org"
            }
          },
          {
            "high": {
              "value": 1,
              "code": "mg/dL",
              "system": "http://unitsofmeasure.org"
            }
          }
        ],
        "text": {
          "status": "generated",
          "div": "<div xmlns=\"http://www.w3.org/1999/xhtml\"><table class=\"hl7__eu__lab__report\"><tr><th>Test</th><th>24-Oct-2018</th><th>Reference&#xA0;Range</th><th>Unit</th></tr><tr><td>Bilirubin.total [Mass/volume] in Urine by Test strip</td><td>0.7</td><td>0.2 - 1</td><td></td><td>mg/dL</td></tr></table></div>"
        },
        "status": "final",
        "subject": {
          "reference": "urn:uuid:184bd31b-0b71-4884-b06d-b42535f1d5bf",
          "display": "Θεμιστοκλής Λιναρδάκη"
        },
        "effectiveDateTime": "2018-10-24T06:16:00Z",
        "specimen": {
          "reference": "urn:uuid:72512b40-c302-4fc5-a47b-5a13454f31a6"
        }
      }
    },
    {
      "fullUrl": "urn:uuid:0b9d8036-ff2d-4074-80e2-d764e2d04fe8",
      "resource": {
        "resourceType": "Observation",
        "id": "0b9d8036-ff2d-4074-80e2-d764e2d04fe8",
        "meta": {
          "profile": [
            "http://hl7.eu/fhir/laboratory/StructureDefinition/Observation-resultslab-eu-lab"
          ]
        },
        "performer": [
          {
            "display": "The Central European Lab"
          }
        ],
        "category": [
          {
            "coding": [
              {
                "system": "http://terminology.hl7.org/CodeSystem/observation-category",
                "code": "laboratory"
              }
            ]
          }
        ],
        "code": {
          "coding": [
            {
              "code": "5770-3",
              "system": "http://loinc.org",
              "display": "Bilirubin.total [Presence] in Urine by Test strip"
            }
          ],
          "text": "Bilirubin.total [Presence] in Urine by Test strip"
        },
        "text": {
          "status": "generated",
          "div": "<div xmlns=\"http://www.w3.org/1999/xhtml\"><table class=\"hl7__eu__lab__report\"><tr><th>Test</th><th>24-Oct-2018</th><th>Reference&#xA0;Range</th><th>Unit</th></tr><tr><td>Bilirubin.total [Presence] in Urine by Test strip</td></tr></table></div>"
        },
        "status": "final",
        "subject": {
          "reference": "urn:uuid:184bd31b-0b71-4884-b06d-b42535f1d5bf",
          "display": "Θεμιστοκλής Λιναρδάκη"
        },
        "effectiveDateTime": "2018-10-24T06:16:00Z",
        "specimen": {
          "reference": "urn:uuid:72512b40-c302-4fc5-a47b-5a13454f31a6"
        }
      }
    },
    {
      "fullUrl": "urn:uuid:0bf63ea3-4499-464d-b56e-4f4554f346aa",
      "resource": {
        "resourceType": "Observation",
        "id": "0bf63ea3-4499-464d-b56e-4f4554f346aa",
        "meta": {
          "profile": [
            "http://hl7.eu/fhir/laboratory/StructureDefinition/Observation-resultslab-eu-lab"
          ]
        },
        "performer": [
          {
            "display": "The Central European Lab"
          }
        ],
        "category": [
          {
            "coding": [
              {
                "system": "http://terminology.hl7.org/CodeSystem/observation-category",
                "code": "laboratory"
              }
            ]
          }
        ],
        "code": {
          "coding": [
            {
              "code": "5797-6",
              "system": "http://loinc.org",
              "display": "Ketones [Mass/volume] in Urine by Test strip"
            }
          ],
          "text": "Ketones [Mass/volume] in Urine by Test strip"
        },
        "valueQuantity": {
          "system": "http://unitsofmeasure.org",
          "value": 5.3,
          "unit": "mg/dL",
          "code": "mg/dL"
        },
        "referenceRange": [
          {
            "low": {
              "value": 0,
              "code": "mg/dL",
              "system": "http://unitsofmeasure.org"
            }
          },
          {
            "high": {
              "value": 5,
              "code": "mg/dL",
              "system": "http://unitsofmeasure.org"
            }
          }
        ],
        "interpretation": [
          {
            "coding": [
              {
                "code": "H",
                "system": "http://terminology.hl7.org/CodeSystem/v3-ObservationInterpretation",
                "display": "High"
              }
            ]
          }
        ],
        "text": {
          "status": "generated",
          "div": "<div xmlns=\"http://www.w3.org/1999/xhtml\"><table class=\"hl7__eu__lab__report\"><tr><th>Test</th><th>24-Oct-2018</th><th>Reference&#xA0;Range</th><th>Unit</th></tr><tr><td>Ketones [Mass/volume] in Urine by Test strip</td><td>5.3</td><td>0 - 5</td><td>H</td><td>mg/dL</td></tr></table></div>"
        },
        "status": "final",
        "subject": {
          "reference": "urn:uuid:184bd31b-0b71-4884-b06d-b42535f1d5bf",
          "display": "Θεμιστοκλής Λιναρδάκη"
        },
        "effectiveDateTime": "2018-10-24T06:16:00Z",
        "specimen": {
          "reference": "urn:uuid:72512b40-c302-4fc5-a47b-5a13454f31a6"
        }
      }
    },
    {
      "fullUrl": "urn:uuid:00aa745f-75a0-4443-adb3-0828f4889f8a",
      "resource": {
        "resourceType": "Observation",
        "id": "00aa745f-75a0-4443-adb3-0828f4889f8a",
        "meta": {
          "profile": [
            "http://hl7.eu/fhir/laboratory/StructureDefinition/Observation-resultslab-eu-lab"
          ]
        },
        "performer": [
          {
            "display": "The Central European Lab"
          }
        ],
        "category": [
          {
            "coding": [
              {
                "system": "http://terminology.hl7.org/CodeSystem/observation-category",
                "code": "laboratory"
              }
            ]
          }
        ],
        "code": {
          "coding": [
            {
              "code": "2514-8",
              "system": "http://loinc.org",
              "display": "Ketones [Presence] in Urine by Test strip"
            }
          ],
          "text": "Ketones [Presence] in Urine by Test strip"
        },
        "text": {
          "status": "generated",
          "div": "<div xmlns=\"http://www.w3.org/1999/xhtml\"><table class=\"hl7__eu__lab__report\"><tr><th>Test</th><th>24-Oct-2018</th><th>Reference&#xA0;Range</th><th>Unit</th></tr><tr><td>Ketones [Presence] in Urine by Test strip</td></tr></table></div>"
        },
        "status": "final",
        "subject": {
          "reference": "urn:uuid:184bd31b-0b71-4884-b06d-b42535f1d5bf",
          "display": "Θεμιστοκλής Λιναρδάκη"
        },
        "effectiveDateTime": "2018-10-24T06:16:00Z",
        "specimen": {
          "reference": "urn:uuid:72512b40-c302-4fc5-a47b-5a13454f31a6"
        }
      }
    },
    {
      "fullUrl": "urn:uuid:6a3cb603-dfff-469e-b999-1147f9d81f8f",
      "resource": {
        "resourceType": "Observation",
        "id": "6a3cb603-dfff-469e-b999-1147f9d81f8f",
        "meta": {
          "profile": [
            "http://hl7.eu/fhir/laboratory/StructureDefinition/Observation-resultslab-eu-lab"
          ]
        },
        "performer": [
          {
            "display": "The Central European Lab"
          }
        ],
        "category": [
          {
            "coding": [
              {
                "system": "http://terminology.hl7.org/CodeSystem/observation-category",
                "code": "laboratory"
              }
            ]
          }
        ],
        "code": {
          "coding": [
            {
              "code": "5811-5",
              "system": "http://loinc.org",
              "display": "Specific gravity of Urine by Test strip"
            }
          ],
          "text": "Specific gravity of Urine by Test strip"
        },
        "valueQuantity": {
          "system": "http://unitsofmeasure.org",
          "value": 1,
          "unit": "{nominal}",
          "code": "{nominal}"
        },
        "referenceRange": [
          {
            "low": {
              "value": 1.005,
              "code": "g/mL",
              "system": "http://unitsofmeasure.org"
            }
          },
          {
            "high": {
              "value": 1.03,
              "code": "g/mL",
              "system": "http://unitsofmeasure.org"
            }
          }
        ],
        "interpretation": [
          {
            "coding": [
              {
                "code": "L",
                "system": "http://terminology.hl7.org/CodeSystem/v3-ObservationInterpretation",
                "display": "Low"
              }
            ]
          }
        ],
        "text": {
          "status": "generated",
          "div": "<div xmlns=\"http://www.w3.org/1999/xhtml\"><table class=\"hl7__eu__lab__report\"><tr><th>Test</th><th>24-Oct-2018</th><th>Reference&#xA0;Range</th><th>Unit</th></tr><tr><td>Specific gravity of Urine by Test strip</td><td>1.0</td><td>1.005 - 1.03</td><td>L</td><td>{nominal}</td></tr></table></div>"
        },
        "status": "final",
        "subject": {
          "reference": "urn:uuid:184bd31b-0b71-4884-b06d-b42535f1d5bf",
          "display": "Θεμιστοκλής Λιναρδάκη"
        },
        "effectiveDateTime": "2018-10-24T06:16:00Z",
        "specimen": {
          "reference": "urn:uuid:72512b40-c302-4fc5-a47b-5a13454f31a6"
        }
      }
    },
    {
      "fullUrl": "urn:uuid:ddcf7311-445b-4bd9-9396-300883a2f1b9",
      "resource": {
        "resourceType": "Observation",
        "id": "ddcf7311-445b-4bd9-9396-300883a2f1b9",
        "meta": {
          "profile": [
            "http://hl7.eu/fhir/laboratory/StructureDefinition/Observation-resultslab-eu-lab"
          ]
        },
        "performer": [
          {
            "display": "The Central European Lab"
          }
        ],
        "category": [
          {
            "coding": [
              {
                "system": "http://terminology.hl7.org/CodeSystem/observation-category",
                "code": "laboratory"
              }
            ]
          }
        ],
        "code": {
          "coding": [
            {
              "code": "5803-2",
              "system": "http://loinc.org",
              "display": "pH of Urine by Test strip"
            }
          ],
          "text": "pH of Urine by Test strip"
        },
        "valueQuantity": {
          "system": "http://unitsofmeasure.org",
          "value": 5.2,
          "unit": "pH",
          "code": "pH"
        },
        "referenceRange": [
          {
            "low": {
              "value": 4.6,
              "code": "pH",
              "system": "http://unitsofmeasure.org"
            }
          },
          {
            "high": {
              "value": 7,
              "code": "pH",
              "system": "http://unitsofmeasure.org"
            }
          }
        ],
        "text": {
          "status": "generated",
          "div": "<div xmlns=\"http://www.w3.org/1999/xhtml\"><table class=\"hl7__eu__lab__report\"><tr><th>Test</th><th>24-Oct-2018</th><th>Reference&#xA0;Range</th><th>Unit</th></tr><tr><td>pH of Urine by Test strip</td><td>5.2</td><td>4.6 - 7</td><td></td><td>pH</td></tr></table></div>"
        },
        "status": "final",
        "subject": {
          "reference": "urn:uuid:184bd31b-0b71-4884-b06d-b42535f1d5bf",
          "display": "Θεμιστοκλής Λιναρδάκη"
        },
        "effectiveDateTime": "2018-10-24T06:16:00Z",
        "specimen": {
          "reference": "urn:uuid:72512b40-c302-4fc5-a47b-5a13454f31a6"
        }
      }
    },
    {
      "fullUrl": "urn:uuid:685287a3-4250-4954-b1f7-f0c1e1724468",
      "resource": {
        "resourceType": "Observation",
        "id": "685287a3-4250-4954-b1f7-f0c1e1724468",
        "meta": {
          "profile": [
            "http://hl7.eu/fhir/laboratory/StructureDefinition/Observation-resultslab-eu-lab"
          ]
        },
        "performer": [
          {
            "display": "The Central European Lab"
          }
        ],
        "category": [
          {
            "coding": [
              {
                "system": "http://terminology.hl7.org/CodeSystem/observation-category",
                "code": "laboratory"
              }
            ]
          }
        ],
        "code": {
          "coding": [
            {
              "code": "5804-0",
              "system": "http://loinc.org",
              "display": "Protein [Mass/volume] in Urine by Test strip"
            }
          ],
          "text": "Protein [Mass/volume] in Urine by Test strip"
        },
        "valueQuantity": {
          "system": "http://unitsofmeasure.org",
          "value": 272,
          "unit": "mg/dL",
          "code": "mg/dL"
        },
        "referenceRange": [
          {
            "low": {
              "value": 0,
              "code": "mg/dL",
              "system": "http://unitsofmeasure.org"
            }
          },
          {
            "high": {
              "value": 150,
              "code": "mg/dL",
              "system": "http://unitsofmeasure.org"
            }
          }
        ],
        "interpretation": [
          {
            "coding": [
              {
                "code": "H",
                "system": "http://terminology.hl7.org/CodeSystem/v3-ObservationInterpretation",
                "display": "High"
              }
            ]
          }
        ],
        "text": {
          "status": "generated",
          "div": "<div xmlns=\"http://www.w3.org/1999/xhtml\"><table class=\"hl7__eu__lab__report\"><tr><th>Test</th><th>24-Oct-2018</th><th>Reference&#xA0;Range</th><th>Unit</th></tr><tr><td>Protein [Mass/volume] in Urine by Test strip</td><td>272.0</td><td>0 - 150</td><td>H</td><td>mg/dL</td></tr></table></div>"
        },
        "status": "final",
        "subject": {
          "reference": "urn:uuid:184bd31b-0b71-4884-b06d-b42535f1d5bf",
          "display": "Θεμιστοκλής Λιναρδάκη"
        },
        "effectiveDateTime": "2018-10-24T06:16:00Z",
        "specimen": {
          "reference": "urn:uuid:72512b40-c302-4fc5-a47b-5a13454f31a6"
        }
      }
    },
    {
      "fullUrl": "urn:uuid:e3ef6cbb-c488-412e-b56c-f0672f99419e",
      "resource": {
        "resourceType": "Observation",
        "id": "e3ef6cbb-c488-412e-b56c-f0672f99419e",
        "meta": {
          "profile": [
            "http://hl7.eu/fhir/laboratory/StructureDefinition/Observation-resultslab-eu-lab"
          ]
        },
        "performer": [
          {
            "display": "The Central European Lab"
          }
        ],
        "category": [
          {
            "coding": [
              {
                "system": "http://terminology.hl7.org/CodeSystem/observation-category",
                "code": "laboratory"
              }
            ]
          }
        ],
        "code": {
          "coding": [
            {
              "code": "20454-5",
              "system": "http://loinc.org",
              "display": "Protein [Presence] in Urine by Test strip"
            }
          ],
          "text": "Protein [Presence] in Urine by Test strip"
        },
        "text": {
          "status": "generated",
          "div": "<div xmlns=\"http://www.w3.org/1999/xhtml\"><table class=\"hl7__eu__lab__report\"><tr><th>Test</th><th>24-Oct-2018</th><th>Reference&#xA0;Range</th><th>Unit</th></tr><tr><td>Protein [Presence] in Urine by Test strip</td></tr></table></div>"
        },
        "status": "final",
        "subject": {
          "reference": "urn:uuid:184bd31b-0b71-4884-b06d-b42535f1d5bf",
          "display": "Θεμιστοκλής Λιναρδάκη"
        },
        "effectiveDateTime": "2018-10-24T06:16:00Z",
        "specimen": {
          "reference": "urn:uuid:72512b40-c302-4fc5-a47b-5a13454f31a6"
        }
      }
    },
    {
      "fullUrl": "urn:uuid:ba61ee41-81b0-440e-932d-340a51838e4d",
      "resource": {
        "resourceType": "Observation",
        "id": "ba61ee41-81b0-440e-932d-340a51838e4d",
        "meta": {
          "profile": [
            "http://hl7.eu/fhir/laboratory/StructureDefinition/Observation-resultslab-eu-lab"
          ]
        },
        "performer": [
          {
            "display": "The Central European Lab"
          }
        ],
        "category": [
          {
            "coding": [
              {
                "system": "http://terminology.hl7.org/CodeSystem/observation-category",
                "code": "laboratory"
              }
            ]
          }
        ],
        "code": {
          "coding": [
            {
              "code": "5802-4",
              "system": "http://loinc.org",
              "display": "Nitrite [Presence] in Urine by Test strip"
            }
          ],
          "text": "Nitrite [Presence] in Urine by Test strip"
        },
        "text": {
          "status": "generated",
          "div": "<div xmlns=\"http://www.w3.org/1999/xhtml\"><table class=\"hl7__eu__lab__report\"><tr><th>Test</th><th>24-Oct-2018</th><th>Reference&#xA0;Range</th><th>Unit</th></tr><tr><td>Nitrite [Presence] in Urine by Test strip</td></tr></table></div>"
        },
        "status": "final",
        "subject": {
          "reference": "urn:uuid:184bd31b-0b71-4884-b06d-b42535f1d5bf",
          "display": "Θεμιστοκλής Λιναρδάκη"
        },
        "effectiveDateTime": "2018-10-24T06:16:00Z",
        "specimen": {
          "reference": "urn:uuid:72512b40-c302-4fc5-a47b-5a13454f31a6"
        }
      }
    },
    {
      "fullUrl": "urn:uuid:bd62c43f-108a-40c4-b639-9bea0ca8c85d",
      "resource": {
        "resourceType": "Observation",
        "id": "bd62c43f-108a-40c4-b639-9bea0ca8c85d",
        "meta": {
          "profile": [
            "http://hl7.eu/fhir/laboratory/StructureDefinition/Observation-resultslab-eu-lab"
          ]
        },
        "performer": [
          {
            "display": "The Central European Lab"
          }
        ],
        "category": [
          {
            "coding": [
              {
                "system": "http://terminology.hl7.org/CodeSystem/observation-category",
                "code": "laboratory"
              }
            ]
          }
        ],
        "code": {
          "coding": [
            {
              "code": "5794-3",
              "system": "http://loinc.org",
              "display": "Hemoglobin [Presence] in Urine by Test strip"
            }
          ],
          "text": "Hemoglobin [Presence] in Urine by Test strip"
        },
        "text": {
          "status": "generated",
          "div": "<div xmlns=\"http://www.w3.org/1999/xhtml\"><table class=\"hl7__eu__lab__report\"><tr><th>Test</th><th>24-Oct-2018</th><th>Reference&#xA0;Range</th><th>Unit</th></tr><tr><td>Hemoglobin [Presence] in Urine by Test strip</td></tr></table></div>"
        },
        "status": "final",
        "subject": {
          "reference": "urn:uuid:184bd31b-0b71-4884-b06d-b42535f1d5bf",
          "display": "Θεμιστοκλής Λιναρδάκη"
        },
        "effectiveDateTime": "2018-10-24T06:16:00Z",
        "specimen": {
          "reference": "urn:uuid:72512b40-c302-4fc5-a47b-5a13454f31a6"
        }
      }
    },
    {
      "fullUrl": "urn:uuid:107d0160-bdcd-477e-bf6d-ea27e8fb00e8",
      "resource": {
        "resourceType": "Observation",
        "id": "107d0160-bdcd-477e-bf6d-ea27e8fb00e8",
        "meta": {
          "profile": [
            "http://hl7.eu/fhir/laboratory/StructureDefinition/Observation-resultslab-eu-lab"
          ]
        },
        "performer": [
          {
            "display": "The Central European Lab"
          }
        ],
        "category": [
          {
            "coding": [
              {
                "system": "http://terminology.hl7.org/CodeSystem/observation-category",
                "code": "laboratory"
              }
            ]
          }
        ],
        "code": {
          "coding": [
            {
              "code": "5799-2",
              "system": "http://loinc.org",
              "display": "Leukocyte esterase [Presence] in Urine by Test strip"
            }
          ],
          "text": "Leukocyte esterase [Presence] in Urine by Test strip"
        },
        "text": {
          "status": "generated",
          "div": "<div xmlns=\"http://www.w3.org/1999/xhtml\"><table class=\"hl7__eu__lab__report\"><tr><th>Test</th><th>24-Oct-2018</th><th>Reference&#xA0;Range</th><th>Unit</th></tr><tr><td>Leukocyte esterase [Presence] in Urine by Test strip</td></tr></table></div>"
        },
        "status": "final",
        "subject": {
          "reference": "urn:uuid:184bd31b-0b71-4884-b06d-b42535f1d5bf",
          "display": "Θεμιστοκλής Λιναρδάκη"
        },
        "effectiveDateTime": "2018-10-24T06:16:00Z",
        "specimen": {
          "reference": "urn:uuid:72512b40-c302-4fc5-a47b-5a13454f31a6"
        }
      }
    },
    {
      "fullUrl": "urn:uuid:b2cfee2a-52c8-44cd-8d36-489fb7de2157",
      "resource": {
        "resourceType": "Observation",
        "id": "b2cfee2a-52c8-44cd-8d36-489fb7de2157",
        "meta": {
          "profile": [
            "http://hl7.eu/fhir/laboratory/StructureDefinition/Observation-resultslab-eu-lab"
          ]
        },
        "performer": [
          {
            "display": "The Central European Lab"
          }
        ],
        "category": [
          {
            "coding": [
              {
                "system": "http://terminology.hl7.org/CodeSystem/observation-category",
                "code": "laboratory"
              }
            ]
          }
        ],
        "code": {
          "coding": [
            {
              "code": "4548-4",
              "system": "http://loinc.org",
              "display": "Hemoglobin A1c/Hemoglobin.total in Blood"
            }
          ],
          "text": "Hemoglobin A1c/Hemoglobin.total in Blood"
        },
        "valueQuantity": {
          "system": "http://unitsofmeasure.org",
          "value": 2.9,
          "unit": "%",
          "code": "%"
        },
        "referenceRange": [
          {
            "low": {
              "value": 4.3,
              "code": "%",
              "system": "http://unitsofmeasure.org"
            }
          },
          {
            "high": {
              "value": 6.4,
              "code": "%",
              "system": "http://unitsofmeasure.org"
            }
          }
        ],
        "interpretation": [
          {
            "coding": [
              {
                "code": "L",
                "system": "http://terminology.hl7.org/CodeSystem/v3-ObservationInterpretation",
                "display": "Low"
              }
            ]
          }
        ],
        "text": {
          "status": "generated",
          "div": "<div xmlns=\"http://www.w3.org/1999/xhtml\"><table class=\"hl7__eu__lab__report\"><tr><th>Test</th><th>24-Oct-2018</th><th>Reference&#xA0;Range</th><th>Unit</th></tr><tr><td>Hemoglobin A1c/Hemoglobin.total in Blood</td><td>2.9</td><td>4.3 - 6.4</td><td>L</td><td>%</td></tr></table></div>"
        },
        "status": "final",
        "subject": {
          "reference": "urn:uuid:184bd31b-0b71-4884-b06d-b42535f1d5bf",
          "display": "Θεμιστοκλής Λιναρδάκη"
        },
        "effectiveDateTime": "2018-10-24T06:16:00Z",
        "specimen": {
          "reference": "urn:uuid:337e4fb3-a6d8-4b3c-aeb5-347e169a14f2"
        }
      }
    },
    {
      "fullUrl": "urn:uuid:7a1a9a7d-327e-4fe3-90c6-62650e9b32c3",
      "resource": {
        "resourceType": "Observation",
        "id": "7a1a9a7d-327e-4fe3-90c6-62650e9b32c3",
        "meta": {
          "profile": [
            "http://hl7.eu/fhir/laboratory/StructureDefinition/Observation-resultslab-eu-lab"
          ]
        },
        "performer": [
          {
            "display": "The Central European Lab"
          }
        ],
        "category": [
          {
            "coding": [
              {
                "system": "http://terminology.hl7.org/CodeSystem/observation-category",
                "code": "laboratory"
              }
            ]
          }
        ],
        "code": {
          "coding": [
            {
              "code": "2339-0",
              "system": "http://loinc.org",
              "display": "Glucose [Mass/volume] in Blood"
            }
          ],
          "text": "Glucose [Mass/volume] in Blood"
        },
        "valueQuantity": {
          "system": "http://unitsofmeasure.org",
          "value": 73.6,
          "unit": "mg/dL",
          "code": "mg/dL"
        },
        "referenceRange": [
          {
            "low": {
              "value": 70,
              "code": "mg/dL",
              "system": "http://unitsofmeasure.org"
            }
          },
          {
            "high": {
              "value": 140,
              "code": "mg/dL",
              "system": "http://unitsofmeasure.org"
            }
          }
        ],
        "text": {
          "status": "generated",
          "div": "<div xmlns=\"http://www.w3.org/1999/xhtml\"><table class=\"hl7__eu__lab__report\"><tr><th>Test</th><th>24-Oct-2018</th><th>Reference&#xA0;Range</th><th>Unit</th></tr><tr><td>Glucose [Mass/volume] in Blood</td><td>73.6</td><td>70 - 140</td><td></td><td>mg/dL</td></tr></table></div>"
        },
        "status": "final",
        "subject": {
          "reference": "urn:uuid:184bd31b-0b71-4884-b06d-b42535f1d5bf",
          "display": "Θεμιστοκλής Λιναρδάκη"
        },
        "effectiveDateTime": "2018-10-24T06:16:00Z",
        "specimen": {
          "reference": "urn:uuid:337e4fb3-a6d8-4b3c-aeb5-347e169a14f2"
        }
      }
    },
    {
      "fullUrl": "urn:uuid:b244e704-4816-49d5-8dee-61b644ad9669",
      "resource": {
        "resourceType": "Observation",
        "id": "b244e704-4816-49d5-8dee-61b644ad9669",
        "meta": {
          "profile": [
            "http://hl7.eu/fhir/laboratory/StructureDefinition/Observation-resultslab-eu-lab"
          ]
        },
        "performer": [
          {
            "display": "The Central European Lab"
          }
        ],
        "category": [
          {
            "coding": [
              {
                "system": "http://terminology.hl7.org/CodeSystem/observation-category",
                "code": "laboratory"
              }
            ]
          }
        ],
        "code": {
          "coding": [
            {
              "code": "6299-2",
              "system": "http://loinc.org",
              "display": "Urea nitrogen [Mass/volume] in Blood"
            }
          ],
          "text": "Urea nitrogen [Mass/volume] in Blood"
        },
        "valueQuantity": {
          "system": "http://unitsofmeasure.org",
          "value": 12,
          "unit": "mg/dL",
          "code": "mg/dL"
        },
        "referenceRange": [
          {
            "low": {
              "value": 7,
              "code": "mg/dL",
              "system": "http://unitsofmeasure.org"
            }
          },
          {
            "high": {
              "value": 20,
              "code": "mg/dL",
              "system": "http://unitsofmeasure.org"
            }
          }
        ],
        "text": {
          "status": "generated",
          "div": "<div xmlns=\"http://www.w3.org/1999/xhtml\"><table class=\"hl7__eu__lab__report\"><tr><th>Test</th><th>24-Oct-2018</th><th>Reference&#xA0;Range</th><th>Unit</th></tr><tr><td>Urea nitrogen [Mass/volume] in Blood</td><td>12.0</td><td>7 - 20</td><td></td><td>mg/dL</td></tr></table></div>"
        },
        "status": "final",
        "subject": {
          "reference": "urn:uuid:184bd31b-0b71-4884-b06d-b42535f1d5bf",
          "display": "Θεμιστοκλής Λιναρδάκη"
        },
        "effectiveDateTime": "2018-10-24T06:16:00Z",
        "specimen": {
          "reference": "urn:uuid:337e4fb3-a6d8-4b3c-aeb5-347e169a14f2"
        }
      }
    },
    {
      "fullUrl": "urn:uuid:cc82e645-5ff5-48f6-897c-10f1d7641964",
      "resource": {
        "resourceType": "Observation",
        "id": "cc82e645-5ff5-48f6-897c-10f1d7641964",
        "meta": {
          "profile": [
            "http://hl7.eu/fhir/laboratory/StructureDefinition/Observation-resultslab-eu-lab"
          ]
        },
        "performer": [
          {
            "display": "The Central European Lab"
          }
        ],
        "category": [
          {
            "coding": [
              {
                "system": "http://terminology.hl7.org/CodeSystem/observation-category",
                "code": "laboratory"
              }
            ]
          }
        ],
        "code": {
          "coding": [
            {
              "code": "38483-4",
              "system": "http://loinc.org",
              "display": "Creatinine [Mass/volume] in Blood"
            }
          ],
          "text": "Creatinine [Mass/volume] in Blood"
        },
        "valueQuantity": {
          "system": "http://unitsofmeasure.org",
          "value": 7.6,
          "unit": "mg/dL",
          "code": "mg/dL"
        },
        "referenceRange": [
          {
            "low": {
              "value": 0.6,
              "code": "mg/dL",
              "system": "http://unitsofmeasure.org"
            }
          },
          {
            "high": {
              "value": 1.3,
              "code": "mg/dL",
              "system": "http://unitsofmeasure.org"
            }
          }
        ],
        "interpretation": [
          {
            "coding": [
              {
                "code": "H",
                "system": "http://terminology.hl7.org/CodeSystem/v3-ObservationInterpretation",
                "display": "High"
              }
            ]
          }
        ],
        "text": {
          "status": "generated",
          "div": "<div xmlns=\"http://www.w3.org/1999/xhtml\"><table class=\"hl7__eu__lab__report\"><tr><th>Test</th><th>24-Oct-2018</th><th>Reference&#xA0;Range</th><th>Unit</th></tr><tr><td>Creatinine [Mass/volume] in Blood</td><td>7.6</td><td>0.6 - 1.3</td><td>H</td><td>mg/dL</td></tr></table></div>"
        },
        "status": "final",
        "subject": {
          "reference": "urn:uuid:184bd31b-0b71-4884-b06d-b42535f1d5bf",
          "display": "Θεμιστοκλής Λιναρδάκη"
        },
        "effectiveDateTime": "2018-10-24T06:16:00Z",
        "specimen": {
          "reference": "urn:uuid:337e4fb3-a6d8-4b3c-aeb5-347e169a14f2"
        }
      }
    },
    {
      "fullUrl": "urn:uuid:f075c0bb-b9c0-4401-9412-a3d355b9124c",
      "resource": {
        "resourceType": "Observation",
        "id": "f075c0bb-b9c0-4401-9412-a3d355b9124c",
        "meta": {
          "profile": [
            "http://hl7.eu/fhir/laboratory/StructureDefinition/Observation-resultslab-eu-lab"
          ]
        },
        "performer": [
          {
            "display": "The Central European Lab"
          }
        ],
        "category": [
          {
            "coding": [
              {
                "system": "http://terminology.hl7.org/CodeSystem/observation-category",
                "code": "laboratory"
              }
            ]
          }
        ],
        "code": {
          "coding": [
            {
              "code": "49765-1",
              "system": "http://loinc.org",
              "display": "Calcium [Mass/volume] in Blood"
            }
          ],
          "text": "Calcium [Mass/volume] in Blood"
        },
        "valueQuantity": {
          "system": "http://unitsofmeasure.org",
          "value": 9.9,
          "unit": "mg/dL",
          "code": "mg/dL"
        },
        "referenceRange": [
          {
            "low": {
              "value": 8.5,
              "code": "mg/dL",
              "system": "http://unitsofmeasure.org"
            }
          },
          {
            "high": {
              "value": 10.5,
              "code": "mg/dL",
              "system": "http://unitsofmeasure.org"
            }
          }
        ],
        "text": {
          "status": "generated",
          "div": "<div xmlns=\"http://www.w3.org/1999/xhtml\"><table class=\"hl7__eu__lab__report\"><tr><th>Test</th><th>24-Oct-2018</th><th>Reference&#xA0;Range</th><th>Unit</th></tr><tr><td>Calcium [Mass/volume] in Blood</td><td>9.9</td><td>8.5 - 10.5</td><td></td><td>mg/dL</td></tr></table></div>"
        },
        "status": "final",
        "subject": {
          "reference": "urn:uuid:184bd31b-0b71-4884-b06d-b42535f1d5bf",
          "display": "Θεμιστοκλής Λιναρδάκη"
        },
        "effectiveDateTime": "2018-10-24T06:16:00Z",
        "specimen": {
          "reference": "urn:uuid:337e4fb3-a6d8-4b3c-aeb5-347e169a14f2"
        }
      }
    },
    {
      "fullUrl": "urn:uuid:2b68b058-3111-42f9-ac12-7dfd027228c8",
      "resource": {
        "resourceType": "Observation",
        "id": "2b68b058-3111-42f9-ac12-7dfd027228c8",
        "meta": {
          "profile": [
            "http://hl7.eu/fhir/laboratory/StructureDefinition/Observation-resultslab-eu-lab"
          ]
        },
        "performer": [
          {
            "display": "The Central European Lab"
          }
        ],
        "category": [
          {
            "coding": [
              {
                "system": "http://terminology.hl7.org/CodeSystem/observation-category",
                "code": "laboratory"
              }
            ]
          }
        ],
        "code": {
          "coding": [
            {
              "code": "2947-0",
              "system": "http://loinc.org",
              "display": "Sodium [Moles/volume] in Blood"
            }
          ],
          "text": "Sodium [Moles/volume] in Blood"
        },
        "valueQuantity": {
          "system": "http://unitsofmeasure.org",
          "value": 141.7,
          "unit": "mmol/L",
          "code": "mmol/L"
        },
        "referenceRange": [
          {
            "low": {
              "value": 135,
              "code": "mmol/L",
              "system": "http://unitsofmeasure.org"
            }
          },
          {
            "high": {
              "value": 145,
              "code": "mmol/L",
              "system": "http://unitsofmeasure.org"
            }
          }
        ],
        "text": {
          "status": "generated",
          "div": "<div xmlns=\"http://www.w3.org/1999/xhtml\"><table class=\"hl7__eu__lab__report\"><tr><th>Test</th><th>24-Oct-2018</th><th>Reference&#xA0;Range</th><th>Unit</th></tr><tr><td>Sodium [Moles/volume] in Blood</td><td>141.7</td><td>135 - 145</td><td></td><td>mmol/L</td></tr></table></div>"
        },
        "status": "final",
        "subject": {
          "reference": "urn:uuid:184bd31b-0b71-4884-b06d-b42535f1d5bf",
          "display": "Θεμιστοκλής Λιναρδάκη"
        },
        "effectiveDateTime": "2018-10-24T06:16:00Z",
        "specimen": {
          "reference": "urn:uuid:337e4fb3-a6d8-4b3c-aeb5-347e169a14f2"
        }
      }
    },
    {
      "fullUrl": "urn:uuid:e6316df6-9ead-4ff6-b78f-4a8c9caddb11",
      "resource": {
        "resourceType": "Observation",
        "id": "e6316df6-9ead-4ff6-b78f-4a8c9caddb11",
        "meta": {
          "profile": [
            "http://hl7.eu/fhir/laboratory/StructureDefinition/Observation-resultslab-eu-lab"
          ]
        },
        "performer": [
          {
            "display": "The Central European Lab"
          }
        ],
        "category": [
          {
            "coding": [
              {
                "system": "http://terminology.hl7.org/CodeSystem/observation-category",
                "code": "laboratory"
              }
            ]
          }
        ],
        "code": {
          "coding": [
            {
              "code": "6298-4",
              "system": "http://loinc.org",
              "display": "Potassium [Moles/volume] in Blood"
            }
          ],
          "text": "Potassium [Moles/volume] in Blood"
        },
        "valueQuantity": {
          "system": "http://unitsofmeasure.org",
          "value": 3.9,
          "unit": "mmol/L",
          "code": "mmol/L"
        },
        "referenceRange": [
          {
            "low": {
              "value": 3.5,
              "code": "mmol/L",
              "system": "http://unitsofmeasure.org"
            }
          },
          {
            "high": {
              "value": 5.3,
              "code": "mmol/L",
              "system": "http://unitsofmeasure.org"
            }
          }
        ],
        "text": {
          "status": "generated",
          "div": "<div xmlns=\"http://www.w3.org/1999/xhtml\"><table class=\"hl7__eu__lab__report\"><tr><th>Test</th><th>24-Oct-2018</th><th>Reference&#xA0;Range</th><th>Unit</th></tr><tr><td>Potassium [Moles/volume] in Blood</td><td>3.9</td><td>3.5 - 5.3</td><td></td><td>mmol/L</td></tr></table></div>"
        },
        "status": "final",
        "subject": {
          "reference": "urn:uuid:184bd31b-0b71-4884-b06d-b42535f1d5bf",
          "display": "Θεμιστοκλής Λιναρδάκη"
        },
        "effectiveDateTime": "2018-10-24T06:16:00Z",
        "specimen": {
          "reference": "urn:uuid:337e4fb3-a6d8-4b3c-aeb5-347e169a14f2"
        }
      }
    },
    {
      "fullUrl": "urn:uuid:8f89f11a-72bb-4175-961e-7532618fed6d",
      "resource": {
        "resourceType": "Observation",
        "id": "8f89f11a-72bb-4175-961e-7532618fed6d",
        "meta": {
          "profile": [
            "http://hl7.eu/fhir/laboratory/StructureDefinition/Observation-resultslab-eu-lab"
          ]
        },
        "performer": [
          {
            "display": "The Central European Lab"
          }
        ],
        "category": [
          {
            "coding": [
              {
                "system": "http://terminology.hl7.org/CodeSystem/observation-category",
                "code": "laboratory"
              }
            ]
          }
        ],
        "code": {
          "coding": [
            {
              "code": "2069-3",
              "system": "http://loinc.org",
              "display": "Chloride [Moles/volume] in Blood"
            }
          ],
          "text": "Chloride [Moles/volume] in Blood"
        },
        "valueQuantity": {
          "system": "http://unitsofmeasure.org",
          "value": 101.5,
          "unit": "mmol/L",
          "code": "mmol/L"
        },
        "referenceRange": [
          {
            "low": {
              "value": 98,
              "code": "mmol/L",
              "system": "http://unitsofmeasure.org"
            }
          },
          {
            "high": {
              "value": 110,
              "code": "mmol/L",
              "system": "http://unitsofmeasure.org"
            }
          }
        ],
        "text": {
          "status": "generated",
          "div": "<div xmlns=\"http://www.w3.org/1999/xhtml\"><table class=\"hl7__eu__lab__report\"><tr><th>Test</th><th>24-Oct-2018</th><th>Reference&#xA0;Range</th><th>Unit</th></tr><tr><td>Chloride [Moles/volume] in Blood</td><td>101.5</td><td>98 - 110</td><td></td><td>mmol/L</td></tr></table></div>"
        },
        "status": "final",
        "subject": {
          "reference": "urn:uuid:184bd31b-0b71-4884-b06d-b42535f1d5bf",
          "display": "Θεμιστοκλής Λιναρδάκη"
        },
        "effectiveDateTime": "2018-10-24T06:16:00Z",
        "specimen": {
          "reference": "urn:uuid:337e4fb3-a6d8-4b3c-aeb5-347e169a14f2"
        }
      }
    },
    {
      "fullUrl": "urn:uuid:bd8a9802-85fc-4a61-8a93-06e87f0c91e8",
      "resource": {
        "resourceType": "Observation",
        "id": "bd8a9802-85fc-4a61-8a93-06e87f0c91e8",
        "meta": {
          "profile": [
            "http://hl7.eu/fhir/laboratory/StructureDefinition/Observation-resultslab-eu-lab"
          ]
        },
        "performer": [
          {
            "display": "The Central European Lab"
          }
        ],
        "category": [
          {
            "coding": [
              {
                "system": "http://terminology.hl7.org/CodeSystem/observation-category",
                "code": "laboratory"
              }
            ]
          }
        ],
        "code": {
          "coding": [
            {
              "code": "20565-8",
              "system": "http://loinc.org",
              "display": "Carbon dioxide, total [Moles/volume] in Blood"
            }
          ],
          "text": "Carbon dioxide, total [Moles/volume] in Blood"
        },
        "valueQuantity": {
          "system": "http://unitsofmeasure.org",
          "value": 21.9,
          "unit": "mmol/L",
          "code": "mmol/L"
        },
        "referenceRange": [
          {
            "low": {
              "value": 22,
              "code": "mmol/L",
              "system": "http://unitsofmeasure.org"
            }
          },
          {
            "high": {
              "value": 29,
              "code": "mmol/L",
              "system": "http://unitsofmeasure.org"
            }
          }
        ],
        "interpretation": [
          {
            "coding": [
              {
                "code": "L",
                "system": "http://terminology.hl7.org/CodeSystem/v3-ObservationInterpretation",
                "display": "Low"
              }
            ]
          }
        ],
        "text": {
          "status": "generated",
          "div": "<div xmlns=\"http://www.w3.org/1999/xhtml\"><table class=\"hl7__eu__lab__report\"><tr><th>Test</th><th>24-Oct-2018</th><th>Reference&#xA0;Range</th><th>Unit</th></tr><tr><td>Carbon dioxide, total [Moles/volume] in Blood</td><td>21.9</td><td>22 - 29</td><td>L</td><td>mmol/L</td></tr></table></div>"
        },
        "status": "final",
        "subject": {
          "reference": "urn:uuid:184bd31b-0b71-4884-b06d-b42535f1d5bf",
          "display": "Θεμιστοκλής Λιναρδάκη"
        },
        "effectiveDateTime": "2018-10-24T06:16:00Z",
        "specimen": {
          "reference": "urn:uuid:337e4fb3-a6d8-4b3c-aeb5-347e169a14f2"
        }
      }
    },
    {
      "fullUrl": "urn:uuid:99eeda54-8680-4b85-b70a-6413a7587bff",
      "resource": {
        "resourceType": "Observation",
        "id": "99eeda54-8680-4b85-b70a-6413a7587bff",
        "meta": {
          "profile": [
            "http://hl7.eu/fhir/laboratory/StructureDefinition/Observation-resultslab-eu-lab"
          ]
        },
        "performer": [
          {
            "display": "The Central European Lab"
          }
        ],
        "category": [
          {
            "coding": [
              {
                "system": "http://terminology.hl7.org/CodeSystem/observation-category",
                "code": "laboratory"
              }
            ]
          }
        ],
        "code": {
          "coding": [
            {
              "code": "2093-3",
              "system": "http://loinc.org",
              "display": "Cholesterol [Mass/volume] in Serum or Plasma"
            }
          ],
          "text": "Cholesterol [Mass/volume] in Serum or Plasma"
        },
        "valueQuantity": {
          "system": "http://unitsofmeasure.org",
          "value": 107.2,
          "unit": "mg/dL",
          "code": "mg/dL"
        },
        "referenceRange": [
          {
            "low": {
              "value": 125,
              "code": "mg/dL",
              "system": "http://unitsofmeasure.org"
            }
          },
          {
            "high": {
              "value": 200,
              "code": "mg/dL",
              "system": "http://unitsofmeasure.org"
            }
          }
        ],
        "interpretation": [
          {
            "coding": [
              {
                "code": "L",
                "system": "http://terminology.hl7.org/CodeSystem/v3-ObservationInterpretation",
                "display": "Low"
              }
            ]
          }
        ],
        "text": {
          "status": "generated",
          "div": "<div xmlns=\"http://www.w3.org/1999/xhtml\"><table class=\"hl7__eu__lab__report\"><tr><th>Test</th><th>24-Oct-2018</th><th>Reference&#xA0;Range</th><th>Unit</th></tr><tr><td>Cholesterol [Mass/volume] in Serum or Plasma</td><td>107.2</td><td>125 - 200</td><td>L</td><td>mg/dL</td></tr></table></div>"
        },
        "status": "final",
        "subject": {
          "reference": "urn:uuid:184bd31b-0b71-4884-b06d-b42535f1d5bf",
          "display": "Θεμιστοκλής Λιναρδάκη"
        },
        "effectiveDateTime": "2018-10-24T06:16:00Z",
        "specimen": {
          "reference": "urn:uuid:ba9f7054-b3a4-4133-8e95-79a231f6afb7"
        }
      }
    },
    {
      "fullUrl": "urn:uuid:d8e4761b-477f-4dfb-b926-53042ed0ad2b",
      "resource": {
        "resourceType": "Observation",
        "id": "d8e4761b-477f-4dfb-b926-53042ed0ad2b",
        "meta": {
          "profile": [
            "http://hl7.eu/fhir/laboratory/StructureDefinition/Observation-resultslab-eu-lab"
          ]
        },
        "performer": [
          {
            "display": "The Central European Lab"
          }
        ],
        "category": [
          {
            "coding": [
              {
                "system": "http://terminology.hl7.org/CodeSystem/observation-category",
                "code": "laboratory"
              }
            ]
          }
        ],
        "code": {
          "coding": [
            {
              "code": "2571-8",
              "system": "http://loinc.org",
              "display": "Triglyceride [Mass/volume] in Serum or Plasma"
            }
          ],
          "text": "Triglyceride [Mass/volume] in Serum or Plasma"
        },
        "valueQuantity": {
          "system": "http://unitsofmeasure.org",
          "value": 142.5,
          "unit": "mg/dL",
          "code": "mg/dL"
        },
        "referenceRange": [
          {
            "low": {
              "value": 0,
              "code": "mg/dL",
              "system": "http://unitsofmeasure.org"
            }
          },
          {
            "high": {
              "value": 150,
              "code": "mg/dL",
              "system": "http://unitsofmeasure.org"
            }
          }
        ],
        "text": {
          "status": "generated",
          "div": "<div xmlns=\"http://www.w3.org/1999/xhtml\"><table class=\"hl7__eu__lab__report\"><tr><th>Test</th><th>24-Oct-2018</th><th>Reference&#xA0;Range</th><th>Unit</th></tr><tr><td>Triglyceride [Mass/volume] in Serum or Plasma</td><td>142.5</td><td>0 - 150</td><td></td><td>mg/dL</td></tr></table></div>"
        },
        "status": "final",
        "subject": {
          "reference": "urn:uuid:184bd31b-0b71-4884-b06d-b42535f1d5bf",
          "display": "Θεμιστοκλής Λιναρδάκη"
        },
        "effectiveDateTime": "2018-10-24T06:16:00Z",
        "specimen": {
          "reference": "urn:uuid:ba9f7054-b3a4-4133-8e95-79a231f6afb7"
        }
      }
    },
    {
      "fullUrl": "urn:uuid:4d5b3ac8-402c-494f-8c8d-252f545d1502",
      "resource": {
        "resourceType": "Observation",
        "id": "4d5b3ac8-402c-494f-8c8d-252f545d1502",
        "meta": {
          "profile": [
            "http://hl7.eu/fhir/laboratory/StructureDefinition/Observation-resultslab-eu-lab"
          ]
        },
        "performer": [
          {
            "display": "The Central European Lab"
          }
        ],
        "category": [
          {
            "coding": [
              {
                "system": "http://terminology.hl7.org/CodeSystem/observation-category",
                "code": "laboratory"
              }
            ]
          }
        ],
        "code": {
          "coding": [
            {
              "code": "18262-6",
              "system": "http://loinc.org",
              "display": "Cholesterol in LDL [Mass/volume] in Serum or Plasma by Direct assay"
            }
          ],
          "text": "Cholesterol in LDL [Mass/volume] in Serum or Plasma by Direct assay"
        },
        "valueQuantity": {
          "system": "http://unitsofmeasure.org",
          "value": 50.9,
          "unit": "mg/dL",
          "code": "mg/dL"
        },
        "referenceRange": [
          {
            "low": {
              "value": 0,
              "code": "mg/dL",
              "system": "http://unitsofmeasure.org"
            }
          },
          {
            "high": {
              "value": 130,
              "code": "mg/dL",
              "system": "http://unitsofmeasure.org"
            }
          }
        ],
        "text": {
          "status": "generated",
          "div": "<div xmlns=\"http://www.w3.org/1999/xhtml\"><table class=\"hl7__eu__lab__report\"><tr><th>Test</th><th>24-Oct-2018</th><th>Reference&#xA0;Range</th><th>Unit</th></tr><tr><td>Cholesterol in LDL [Mass/volume] in Serum or Plasma by Direct assay</td><td>50.9</td><td>0 - 130</td><td></td><td>mg/dL</td></tr></table></div>"
        },
        "status": "final",
        "subject": {
          "reference": "urn:uuid:184bd31b-0b71-4884-b06d-b42535f1d5bf",
          "display": "Θεμιστοκλής Λιναρδάκη"
        },
        "effectiveDateTime": "2018-10-24T06:16:00Z",
        "specimen": {
          "reference": "urn:uuid:ba9f7054-b3a4-4133-8e95-79a231f6afb7"
        }
      }
    },
    {
      "fullUrl": "urn:uuid:dbff9860-2840-46cf-894b-b3f58a7e59f3",
      "resource": {
        "resourceType": "Observation",
        "id": "dbff9860-2840-46cf-894b-b3f58a7e59f3",
        "meta": {
          "profile": [
            "http://hl7.eu/fhir/laboratory/StructureDefinition/Observation-resultslab-eu-lab"
          ]
        },
        "performer": [
          {
            "display": "The Central European Lab"
          }
        ],
        "category": [
          {
            "coding": [
              {
                "system": "http://terminology.hl7.org/CodeSystem/observation-category",
                "code": "laboratory"
              }
            ]
          }
        ],
        "code": {
          "coding": [
            {
              "code": "2085-9",
              "system": "http://loinc.org",
              "display": "Cholesterol in HDL [Mass/volume] in Serum or Plasma"
            }
          ],
          "text": "Cholesterol in HDL [Mass/volume] in Serum or Plasma"
        },
        "valueQuantity": {
          "system": "http://unitsofmeasure.org",
          "value": 27.8,
          "unit": "mg/dL",
          "code": "mg/dL"
        },
        "referenceRange": [
          {
            "low": {
              "value": 40,
              "code": "mg/dL",
              "system": "http://unitsofmeasure.org"
            }
          },
          {
            "high": {
              "value": 60,
              "code": "mg/dL",
              "system": "http://unitsofmeasure.org"
            }
          }
        ],
        "interpretation": [
          {
            "coding": [
              {
                "code": "L",
                "system": "http://terminology.hl7.org/CodeSystem/v3-ObservationInterpretation",
                "display": "Low"
              }
            ]
          }
        ],
        "text": {
          "status": "generated",
          "div": "<div xmlns=\"http://www.w3.org/1999/xhtml\"><table class=\"hl7__eu__lab__report\"><tr><th>Test</th><th>24-Oct-2018</th><th>Reference&#xA0;Range</th><th>Unit</th></tr><tr><td>Cholesterol in HDL [Mass/volume] in Serum or Plasma</td><td>27.8</td><td>40 - 60</td><td>L</td><td>mg/dL</td></tr></table></div>"
        },
        "status": "final",
        "subject": {
          "reference": "urn:uuid:184bd31b-0b71-4884-b06d-b42535f1d5bf",
          "display": "Θεμιστοκλής Λιναρδάκη"
        },
        "effectiveDateTime": "2018-10-24T06:16:00Z",
        "specimen": {
          "reference": "urn:uuid:ba9f7054-b3a4-4133-8e95-79a231f6afb7"
        }
      }
    },
    {
      "fullUrl": "urn:uuid:a1f33073-f922-4f88-bb33-aaaa3afb7eb9",
      "resource": {
        "resourceType": "Device",
        "id": "a1f33073-f922-4f88-bb33-aaaa3afb7eb9",
        "deviceName": [
          {
            "name": "SYNDERAI Synthetic Generator",
            "type": "manufacturer-name"
          }
        ],
        "version": [
          {
            "value": "5.0"
          }
        ],
        "text": {
          "status": "generated",
          "div": "<div xmlns=\"http://www.w3.org/1999/xhtml\">SYNDERAI Synthetic Generator v5.0</div>"
        },
        "status": "active\"",
        "distinctIdentifier": "synderai-generator-50",
        "manufacturer": "SYNDERAI Project"
      }
    },
    {
      "fullUrl": "urn:uuid:f5b90903-26a9-4ab5-a750-737f7f042da4",
      "resource": {
        "resourceType": "Provenance",
        "id": "f5b90903-26a9-4ab5-a750-737f7f042da4",
        "target": [
          {
            "reference": "Patient/184bd31b-0b71-4884-b06d-b42535f1d5bf"
          },
          {
            "reference": "Bundle/0bcc59d5-5051-452a-a5c9-b007e94354a0"
          },
          {
            "reference": "Composition/32643c8f-e01b-4fb1-b7df-e425e5fe30f5"
          },
          {
            "reference": "PractitionerRole/9db26477-775b-44e8-ad49-1bf2d2ff318a"
          },
          {
            "reference": "Practitioner/b89ef7b8-f866-4d9a-be63-e7a44df7f83e"
          },
          {
            "reference": "PractitionerRole/197b578f-fdc1-4b84-90ea-472ec1018e55"
          },
          {
            "reference": "Organization/2c5896f5-2891-41de-891f-160310361074"
          }
        ],
        "activity": {
          "text": "Synthetic Example Data Generation"
        },
        "policy": [
          "https://synderai.net/synderai-synthetic-data-policy"
        ],
        "agent": [
          {
            "type": {
              "text": "author"
            },
            "who": {
              "reference": "Device/a1f33073-f922-4f88-bb33-aaaa3afb7eb9"
            }
          }
        ],
        "reason": [
          {
            "text": "Interoperability Testing and Training (non-clinical use)"
          }
        ],
        "text": {
          "status": "generated",
          "div": "<div xmlns=\"http://www.w3.org/1999/xhtml\">Provenance for SYNDERAI Synthetic Example Data Resource</div>"
        },
        "recorded": "2018-10-24T08:16:00Z"
      }
    },
    {
      "fullUrl": "urn:uuid:9db26477-775b-44e8-ad49-1bf2d2ff318a",
      "resource": {
        "resourceType": "PractitionerRole",
        "id": "9db26477-775b-44e8-ad49-1bf2d2ff318a",
        "meta": {
          "profile": [
            "http://hl7.eu/fhir/base/StructureDefinition/practitionerRole-eu"
          ]
        },
        "text": {
          "status": "generated",
          "div": "<div xmlns=\"http://www.w3.org/1999/xhtml\">Laboratory Role Id: 9db26477-775b-44e8-ad49-1bf2d2ff318a</div>"
        },
        "practitioner": {
          "reference": "urn:uuid:b89ef7b8-f866-4d9a-be63-e7a44df7f83e"
        }
      }
    },
    {
      "fullUrl": "urn:uuid:b89ef7b8-f866-4d9a-be63-e7a44df7f83e",
      "resource": {
        "resourceType": "Practitioner",
        "id": "b89ef7b8-f866-4d9a-be63-e7a44df7f83e",
        "meta": {
          "profile": [
            "http://hl7.eu/fhir/base/StructureDefinition/practitioner-eu"
          ]
        },
        "identifier": [
          {
            "assigner": {
              "display": "HL7 Europe"
            },
            "system": "urn:oid:2.16.840.1.113883.2.51.999",
            "value": "875413c2-4f8c-409c-9481-6afcea6a51cc"
          }
        ],
        "name": [
          {
            "prefix": [
              "dr"
            ],
            "given": [
              "Ex"
            ],
            "family": "Ample"
          }
        ],
        "address": [
          {
            "line": [
              "Laboratoire Central Européenne",
              "Boulevard du Jardin Botanique 32"
            ],
            "postalCode": "1000",
            "city": "Brussels",
            "country": "Belgium"
          }
        ],
        "text": {
          "status": "generated",
          "div": "<div xmlns=\"http://www.w3.org/1999/xhtml\">Laboratory: Laboratoire Central Européenne, 1000 Brussels, Belgium</div>"
        }
      }
    }
  ],
  "type": "document",
  "timestamp": "2018-10-24T08:16:00Z"
}
