{
  "resourceType": "Bundle",
  "id": "1dd09c0d-b7d1-4c6c-81ad-a9dc4bf4bbc4",
  "meta": {
    "profile": [
      "http://hl7.eu/fhir/laboratory/StructureDefinition/Bundle-eu-lab"
    ]
  },
  "identifier": {
    "assigner": {
      "display": "HL7 Europe"
    },
    "system": "urn:oid:2.16.840.1.113883.2.51.999",
    "value": "9df7540f-4235-4793-bdf1-99f52630cd64"
  },
  "entry": [
    {
      "fullUrl": "urn:uuid:aaa68cb7-1362-4ca7-bfc2-0133d80e84d7",
      "resource": {
        "resourceType": "Composition",
        "id": "aaa68cb7-1362-4ca7-bfc2-0133d80e84d7",
        "meta": {
          "profile": [
            "http://hl7.eu/fhir/laboratory/StructureDefinition/Composition-eu-lab"
          ]
        },
        "identifier": {
          "assigner": {
            "display": "HL7 Europe"
          },
          "system": "urn:oid:2.16.840.1.113883.2.51.999",
          "value": "185c4a3f-5741-4623-bcf9-eb5eb123d365"
        },
        "author": [
          {
            "reference": "urn:uuid:9a7e60dc-f796-4c0c-ba78-dc742fc3a25e"
          }
        ],
        "category": [
          {
            "coding": [
              {
                "code": "26436-6",
                "system": "http://loinc.org",
                "display": "Laboratory studies (set)"
              }
            ]
          }
        ],
        "type": {
          "coding": [
            {
              "code": "11502-2",
              "system": "http://loinc.org",
              "display": "Laboratory report"
            }
          ],
          "text": "Laboratory Report"
        },
        "section": [
          {
            "code": {
              "coding": [
                {
                  "code": "26436-6",
                  "system": "http://loinc.org",
                  "display": "Laboratory studies (set)"
                }
              ],
              "text": "Laboratory studies"
            },
            "section": [
              {
                "code": {
                  "coding": [
                    {
                      "code": "$18725-2",
                      "system": "http://loinc.org",
                      "display": "Microbiology studies"
                    }
                  ],
                  "text": "Microbiology"
                },
                "entry": [
                  {
                    "reference": "urn:uuid:b87993bb-b331-48ec-a3c3-612ceafc6222"
                  },
                  {
                    "reference": "urn:uuid:4326b76a-65d5-4f50-85f0-23b00681e76f"
                  }
                ],
                "text": {
                  "status": "generated",
                  "div": "<div xmlns=\"http://www.w3.org/1999/xhtml\"><h3>Microbiology</h3><table class=\"hl7__eu__lab__report\"><thead><tr><th>Test</th><th>29-OCT-2020</th><th>Reference&#xA0;Range</th><th>Unit</th></tr></thead><tbody><tr><td>Influenza virus A Ag [Presence] in Upper respiratory specimen by Rapid immunoassay</td><td>Not detected</td><td></td><td></td></tr><tr><td>Influenza virus B Ag [Presence] in Upper respiratory specimen by Rapid immunoassay</td><td>Not detected</td><td></td><td></td></tr></tbody></table></div>"
                },
                "title": "Microbiology"
              }
            ],
            "title": "Laboratory Report"
          },
          {
            "text": {
              "status": "generated",
              "div": "<div xmlns=\"http://www.w3.org/1999/xhtml\"><h3>Annotation</h3><table class=\"hl7__eu__lab__report\"><tr><th>Conclusion and Recommendations based on this report and previous findings known to us</th></tr><tr><td>No evidence of Influenza A or B infection detected by rapid immunoassay in the upper respiratory specimen. Results are within normal limits and do not indicate acute influenza infection at the time of testing.</td></tr></table></div>"
            },
            "code": {
              "coding": [
                {
                  "system": "http://loinc.org",
                  "code": "48767-8",
                  "display": "Annotation comment"
                }
              ]
            },
            "title": "Annotation comment"
          }
        ],
        "status": "final",
        "subject": {
          "reference": "urn:uuid:9ae3343f-28cc-4ddd-ab2b-b35a59cc19d7",
          "display": "Khalid Nilsson"
        },
        "date": "2020-10-29T00:15:05Z",
        "title": "Laboratory Report",
        "confidentiality": "N"
      }
    },
    {
      "fullUrl": "urn:uuid:f405c45e-fb1e-4661-826c-99ead800ad57",
      "resource": {
        "resourceType": "DiagnosticReport",
        "id": "f405c45e-fb1e-4661-826c-99ead800ad57",
        "meta": {
          "profile": [
            "http://hl7.eu/fhir/laboratory/StructureDefinition/DiagnosticReport-eu-lab"
          ]
        },
        "identifier": [
          {
            "assigner": {
              "display": "HL7 Europe"
            },
            "system": "urn:oid:2.16.840.1.113883.2.51.999",
            "value": "82626d9a-8717-4b3b-bcc3-3b3d3bd021a5"
          }
        ],
        "extension": [
          {
            "url": "http://hl7.org/fhir/5.0/StructureDefinition/extension-DiagnosticReport.composition",
            "valueReference": {
              "reference": "urn:uuid:185c4a3f-5741-4623-bcf9-eb5eb123d365"
            }
          }
        ],
        "category": [
          {
            "coding": [
              {
                "code": "26436-6",
                "system": "http://loinc.org",
                "display": "Laboratory studies (set)"
              }
            ]
          }
        ],
        "specimen": [
          {
            "reference": "urn:uuid:520ca65d-c496-4f47-8292-7461f8f1abe6"
          }
        ],
        "result": [
          {
            "reference": "urn:uuid:b87993bb-b331-48ec-a3c3-612ceafc6222"
          },
          {
            "reference": "urn:uuid:4326b76a-65d5-4f50-85f0-23b00681e76f"
          }
        ],
        "status": "registered",
        "code": {
          "coding": [
            {
              "code": "11502-2",
              "system": "http://loinc.org",
              "display": "Laboratory report"
            }
          ]
        },
        "subject": {
          "reference": "urn:uuid:9ae3343f-28cc-4ddd-ab2b-b35a59cc19d7",
          "display": "Khalid Nilsson"
        }
      }
    },
    {
      "fullUrl": "urn:uuid:9ae3343f-28cc-4ddd-ab2b-b35a59cc19d7",
      "resource": {
        "resourceType": "Patient",
        "id": "9ae3343f-28cc-4ddd-ab2b-b35a59cc19d7",
        "meta": {
          "security": [
            {
              "system": "http://terminology.hl7.org/CodeSystem/v3-ActReason",
              "code": "HTEST"
            },
            {
              "system": "http://terminology.hl7.org/CodeSystem/v3-ActReason",
              "code": "TRAIN"
            }
          ],
          "tag": [
            {
              "system": "https://synderai.net/fhir/CodeSystem/tags",
              "code": "synthetic",
              "display": "SYNDERAI Synthetic data"
            }
          ],
          "profile": [
            "http://hl7.eu/fhir/base/StructureDefinition/patient-eu-core"
          ]
        },
        "identifier": [
          {
            "type": {
              "coding": [
                {
                  "code": "PT",
                  "system": "http://terminology.hl7.org/CodeSystem/v2-0203"
                }
              ]
            },
            "system": "http://ec.europa.eu/identifier/eci",
            "value": "8339-594203-6"
          },
          {
            "type": {
              "coding": [
                {
                  "code": "MR",
                  "system": "http://terminology.hl7.org/CodeSystem/v2-0203"
                }
              ]
            },
            "system": "http://local.setting.eu/identifier",
            "value": "db9680f4-3d2c-0551-cb1c-61573f88f405"
          }
        ],
        "name": [
          {
            "family": "Nilsson"
          },
          {
            "given": [
              "Khalid"
            ]
          },
          {
            "text": "Khalid Nilsson"
          }
        ],
        "address": [
          {
            "line": [
              "Gengränd 482"
            ],
            "use": "home",
            "type": "physical",
            "postalCode": "691 31",
            "city": "Karlskoga",
            "country": "Sweden"
          }
        ],
        "telecom": [
          {
            "system": "phone",
            "value": "+46 (0)8 888 657 95"
          }
        ],
        "extension": [
          {
            "url": "http://hl7.org/fhir/StructureDefinition/patient-nationality",
            "valueCodeableConcept": {
              "coding": [
                {
                  "code": "SE",
                  "system": "http://hl7.org/fhir/ValueSet/country"
                }
              ]
            }
          }
        ],
        "text": {
          "status": "generated",
          "div": "<div xmlns=\"http://www.w3.org/1999/xhtml\"><table class=\"hl7__ips\"><tr><td>Khalid Nilsson</td><td>male</td><td>10-Apr-1952</td></tr></table></div>"
        },
        "gender": "male",
        "birthDate": "1952-04-10"
      }
    },
    {
      "fullUrl": "urn:uuid:08ef847b-741f-44c0-b4b5-a703da84f97a",
      "resource": {
        "resourceType": "ServiceRequest",
        "id": "08ef847b-741f-44c0-b4b5-a703da84f97a",
        "meta": {
          "profile": [
            "http://hl7.eu/fhir/laboratory/StructureDefinition/ServiceRequest-eu-lab"
          ]
        },
        "identifier": [
          {
            "system": "http://example.org",
            "value": "da410f23-02af-4ea9-a918-8ed7492704cd"
          }
        ],
        "specimen": [
          {
            "reference": "urn:uuid:520ca65d-c496-4f47-8292-7461f8f1abe6"
          }
        ],
        "reasonCode": [
          {
            "coding": [
              {
                "code": "64859006",
                "system": "http://snomed.info/sct",
                "display": "Osteoporosis"
              }
            ]
          },
          {
            "coding": [
              {
                "code": "196416002",
                "system": "http://snomed.info/sct",
                "display": "Impacted molars"
              }
            ]
          },
          {
            "coding": [
              {
                "code": "414545008",
                "system": "http://snomed.info/sct",
                "display": "Ischemic heart disease"
              }
            ]
          },
          {
            "coding": [
              {
                "code": "40055000",
                "system": "http://snomed.info/sct",
                "display": "Chronic sinusitis"
              }
            ]
          },
          {
            "coding": [
              {
                "code": "197927001",
                "system": "http://snomed.info/sct",
                "display": "Recurrent urinary tract infection"
              }
            ]
          },
          {
            "coding": [
              {
                "code": "15777000",
                "system": "http://snomed.info/sct",
                "display": "Prediabetes"
              }
            ]
          },
          {
            "coding": [
              {
                "code": "271737000",
                "system": "http://snomed.info/sct",
                "display": "Anemia"
              }
            ]
          }
        ],
        "status": "active",
        "intent": "order",
        "code": {
          "coding": [
            {
              "code": "108252007",
              "system": "http://snomed.info/sct",
              "display": "Laboratory procedure"
            }
          ]
        },
        "subject": {
          "reference": "urn:uuid:9ae3343f-28cc-4ddd-ab2b-b35a59cc19d7",
          "display": "Khalid Nilsson"
        },
        "requester": {
          "reference": "urn:uuid:ff2d3671-e5ef-4740-9c65-42543639c021"
        }
      }
    },
    {
      "fullUrl": "urn:uuid:ff2d3671-e5ef-4740-9c65-42543639c021",
      "resource": {
        "resourceType": "PractitionerRole",
        "id": "ff2d3671-e5ef-4740-9c65-42543639c021",
        "meta": {
          "profile": [
            "http://hl7.eu/fhir/base/StructureDefinition/practitionerRole-eu"
          ]
        },
        "text": {
          "status": "generated",
          "div": "<div xmlns=\"http://www.w3.org/1999/xhtml\">Provider Role Id: ff2d3671-e5ef-4740-9c65-42543639c021</div>"
        },
        "organization": {
          "reference": "urn:uuid:ee893878-7c1e-4767-9f83-0d1f67d9ebc9"
        }
      }
    },
    {
      "fullUrl": "urn:uuid:ee893878-7c1e-4767-9f83-0d1f67d9ebc9",
      "resource": {
        "resourceType": "Organization",
        "id": "ee893878-7c1e-4767-9f83-0d1f67d9ebc9",
        "meta": {
          "profile": [
            "http://hl7.eu/fhir/base/StructureDefinition/organization-eu"
          ]
        },
        "identifier": [
          {
            "assigner": {
              "display": "HL7 Europe"
            },
            "system": "urn:oid:2.16.840.1.113883.2.51.999",
            "value": "c5a7c78f-2680-4e7b-84a5-1e64d043f903"
          }
        ],
        "address": [
          {
            "city": "Karlskoga",
            "postalCode": "691 31",
            "country": "Sweden"
          }
        ],
        "text": {
          "status": "generated",
          "div": "<div xmlns=\"http://www.w3.org/1999/xhtml\">Provider Organization: Karlskoga Lasarett</div>"
        },
        "name": "Karlskoga Lasarett"
      }
    },
    {
      "fullUrl": "urn:uuid:520ca65d-c496-4f47-8292-7461f8f1abe6",
      "resource": {
        "resourceType": "Specimen",
        "id": "520ca65d-c496-4f47-8292-7461f8f1abe6",
        "meta": {
          "profile": [
            "http://hl7.eu/fhir/laboratory/StructureDefinition/Specimen-eu-lab"
          ]
        },
        "collection": {
          "collectedDateTime": "2020-10-28"
        },
        "text": {
          "status": "generated",
          "div": "<div xmlns=\"http://www.w3.org/1999/xhtml\"><table class=\"hl7__eu__lab__report\"><tr><th>Specimen</th><th>Collection Date</th></tr><tr><td>Upper respiratory specimen (specimen)</td><td><span class=\"nb\">28-Oct-2020</span></td></tr></table></div>"
        },
        "type": {
          "coding": [
            {
              "code": "258604001",
              "system": "http://snomed.info/sct",
              "display": "Upper respiratory specimen (specimen)"
            }
          ]
        }
      }
    },
    {
      "fullUrl": "urn:uuid:b87993bb-b331-48ec-a3c3-612ceafc6222",
      "resource": {
        "resourceType": "Observation",
        "id": "b87993bb-b331-48ec-a3c3-612ceafc6222",
        "meta": {
          "profile": [
            "http://hl7.eu/fhir/laboratory/StructureDefinition/Observation-resultslab-eu-lab"
          ]
        },
        "performer": [
          {
            "display": "The Central European Lab"
          }
        ],
        "category": [
          {
            "coding": [
              {
                "system": "http://terminology.hl7.org/CodeSystem/observation-category",
                "code": "laboratory"
              }
            ]
          }
        ],
        "code": {
          "coding": [
            {
              "code": "80382-5",
              "system": "http://loinc.org",
              "display": "Influenza virus A Ag [Presence] in Upper respiratory specimen by Rapid immunoassay"
            }
          ],
          "text": "Influenza virus A Ag [Presence] in Upper respiratory specimen by Rapid immunoassay"
        },
        "text": {
          "status": "generated",
          "div": "<div xmlns=\"http://www.w3.org/1999/xhtml\"><table class=\"hl7__eu__lab__report\"><tr><th>Test</th><th>29-Oct-2020</th><th>Reference&#xA0;Range</th><th>Unit</th></tr><tr><td>Influenza virus A Ag [Presence] in Upper respiratory specimen by Rapid immunoassay</td></tr></table></div>"
        },
        "status": "final",
        "subject": {
          "reference": "urn:uuid:9ae3343f-28cc-4ddd-ab2b-b35a59cc19d7",
          "display": "Khalid Nilsson"
        },
        "effectiveDateTime": "2020-10-28T23:15:05Z",
        "specimen": {
          "reference": "urn:uuid:520ca65d-c496-4f47-8292-7461f8f1abe6"
        }
      }
    },
    {
      "fullUrl": "urn:uuid:4326b76a-65d5-4f50-85f0-23b00681e76f",
      "resource": {
        "resourceType": "Observation",
        "id": "4326b76a-65d5-4f50-85f0-23b00681e76f",
        "meta": {
          "profile": [
            "http://hl7.eu/fhir/laboratory/StructureDefinition/Observation-resultslab-eu-lab"
          ]
        },
        "performer": [
          {
            "display": "The Central European Lab"
          }
        ],
        "category": [
          {
            "coding": [
              {
                "system": "http://terminology.hl7.org/CodeSystem/observation-category",
                "code": "laboratory"
              }
            ]
          }
        ],
        "code": {
          "coding": [
            {
              "code": "80383-3",
              "system": "http://loinc.org",
              "display": "Influenza virus B Ag [Presence] in Upper respiratory specimen by Rapid immunoassay"
            }
          ],
          "text": "Influenza virus B Ag [Presence] in Upper respiratory specimen by Rapid immunoassay"
        },
        "text": {
          "status": "generated",
          "div": "<div xmlns=\"http://www.w3.org/1999/xhtml\"><table class=\"hl7__eu__lab__report\"><tr><th>Test</th><th>29-Oct-2020</th><th>Reference&#xA0;Range</th><th>Unit</th></tr><tr><td>Influenza virus B Ag [Presence] in Upper respiratory specimen by Rapid immunoassay</td></tr></table></div>"
        },
        "status": "final",
        "subject": {
          "reference": "urn:uuid:9ae3343f-28cc-4ddd-ab2b-b35a59cc19d7",
          "display": "Khalid Nilsson"
        },
        "effectiveDateTime": "2020-10-28T23:15:05Z",
        "specimen": {
          "reference": "urn:uuid:520ca65d-c496-4f47-8292-7461f8f1abe6"
        }
      }
    },
    {
      "fullUrl": "urn:uuid:e44ff08d-4d61-4cce-ba13-e34157ce082e",
      "resource": {
        "resourceType": "Device",
        "id": "e44ff08d-4d61-4cce-ba13-e34157ce082e",
        "deviceName": [
          {
            "name": "SYNDERAI Synthetic Generator",
            "type": "manufacturer-name"
          }
        ],
        "version": [
          {
            "value": "5.0"
          }
        ],
        "text": {
          "status": "generated",
          "div": "<div xmlns=\"http://www.w3.org/1999/xhtml\">SYNDERAI Synthetic Generator v5.0</div>"
        },
        "status": "active\"",
        "distinctIdentifier": "synderai-generator-50",
        "manufacturer": "SYNDERAI Project"
      }
    },
    {
      "fullUrl": "urn:uuid:aef39230-a4c1-4159-831c-c82bade49639",
      "resource": {
        "resourceType": "Provenance",
        "id": "aef39230-a4c1-4159-831c-c82bade49639",
        "target": [
          {
            "reference": "Patient/9ae3343f-28cc-4ddd-ab2b-b35a59cc19d7"
          },
          {
            "reference": "Bundle/1dd09c0d-b7d1-4c6c-81ad-a9dc4bf4bbc4"
          },
          {
            "reference": "Composition/aaa68cb7-1362-4ca7-bfc2-0133d80e84d7"
          },
          {
            "reference": "PractitionerRole/9a7e60dc-f796-4c0c-ba78-dc742fc3a25e"
          },
          {
            "reference": "Practitioner/3a833673-1966-4cd3-bd80-12374e877672"
          },
          {
            "reference": "PractitionerRole/ff2d3671-e5ef-4740-9c65-42543639c021"
          },
          {
            "reference": "Organization/ee893878-7c1e-4767-9f83-0d1f67d9ebc9"
          }
        ],
        "activity": {
          "text": "Synthetic Example Data Generation"
        },
        "policy": [
          "https://synderai.net/synderai-synthetic-data-policy"
        ],
        "agent": [
          {
            "type": {
              "text": "author"
            },
            "who": {
              "reference": "Device/e44ff08d-4d61-4cce-ba13-e34157ce082e"
            }
          }
        ],
        "reason": [
          {
            "text": "Interoperability Testing and Training (non-clinical use)"
          }
        ],
        "text": {
          "status": "generated",
          "div": "<div xmlns=\"http://www.w3.org/1999/xhtml\">Provenance for SYNDERAI Synthetic Example Data Resource</div>"
        },
        "recorded": "2020-10-29T00:15:05Z"
      }
    },
    {
      "fullUrl": "urn:uuid:9a7e60dc-f796-4c0c-ba78-dc742fc3a25e",
      "resource": {
        "resourceType": "PractitionerRole",
        "id": "9a7e60dc-f796-4c0c-ba78-dc742fc3a25e",
        "meta": {
          "profile": [
            "http://hl7.eu/fhir/base/StructureDefinition/practitionerRole-eu"
          ]
        },
        "text": {
          "status": "generated",
          "div": "<div xmlns=\"http://www.w3.org/1999/xhtml\">Laboratory Role Id: 9a7e60dc-f796-4c0c-ba78-dc742fc3a25e</div>"
        },
        "practitioner": {
          "reference": "urn:uuid:3a833673-1966-4cd3-bd80-12374e877672"
        }
      }
    },
    {
      "fullUrl": "urn:uuid:3a833673-1966-4cd3-bd80-12374e877672",
      "resource": {
        "resourceType": "Practitioner",
        "id": "3a833673-1966-4cd3-bd80-12374e877672",
        "meta": {
          "profile": [
            "http://hl7.eu/fhir/base/StructureDefinition/practitioner-eu"
          ]
        },
        "identifier": [
          {
            "assigner": {
              "display": "HL7 Europe"
            },
            "system": "urn:oid:2.16.840.1.113883.2.51.999",
            "value": "0d8138f4-5c80-41e5-8e34-c9aa5c351221"
          }
        ],
        "name": [
          {
            "prefix": [
              "dr"
            ],
            "given": [
              "Ex"
            ],
            "family": "Ample"
          }
        ],
        "address": [
          {
            "line": [
              "Laboratoire Central Européenne",
              "Boulevard du Jardin Botanique 32"
            ],
            "postalCode": "1000",
            "city": "Brussels",
            "country": "Belgium"
          }
        ],
        "text": {
          "status": "generated",
          "div": "<div xmlns=\"http://www.w3.org/1999/xhtml\">Laboratory: Laboratoire Central Européenne, 1000 Brussels, Belgium</div>"
        }
      }
    }
  ],
  "type": "document",
  "timestamp": "2020-10-29T00:15:05Z"
}
