{
  "resourceType": "Bundle",
  "id": "cf949235-8e38-4373-b50a-56e67b0f1496",
  "meta": {
    "profile": [
      "http://hl7.eu/fhir/laboratory/StructureDefinition/Bundle-eu-lab"
    ]
  },
  "identifier": {
    "assigner": {
      "display": "HL7 Europe"
    },
    "system": "urn:oid:2.16.840.1.113883.2.51.999",
    "value": "ce609a6f-6597-4d84-835b-c59580495669"
  },
  "entry": [
    {
      "fullUrl": "urn:uuid:2ff77c07-bd42-4524-8dc7-aff03d4c0f4f",
      "resource": {
        "resourceType": "Composition",
        "id": "2ff77c07-bd42-4524-8dc7-aff03d4c0f4f",
        "meta": {
          "profile": [
            "http://hl7.eu/fhir/laboratory/StructureDefinition/Composition-eu-lab"
          ]
        },
        "identifier": {
          "assigner": {
            "display": "HL7 Europe"
          },
          "system": "urn:oid:2.16.840.1.113883.2.51.999",
          "value": "275fa3b1-4dc9-425b-8423-ebf180a006d6"
        },
        "author": [
          {
            "reference": "urn:uuid:2fede1f6-9911-4acd-961f-fa1a1b6f0462"
          }
        ],
        "category": [
          {
            "coding": [
              {
                "code": "26436-6",
                "system": "http://loinc.org",
                "display": "Laboratory studies (set)"
              }
            ]
          }
        ],
        "type": {
          "coding": [
            {
              "code": "11502-2",
              "system": "http://loinc.org",
              "display": "Laboratory report"
            }
          ],
          "text": "Laboratory Report"
        },
        "section": [
          {
            "code": {
              "coding": [
                {
                  "code": "26436-6",
                  "system": "http://loinc.org",
                  "display": "Laboratory studies (set)"
                }
              ],
              "text": "Laboratory studies"
            },
            "section": [
              {
                "code": {
                  "coding": [
                    {
                      "code": "$18719-5",
                      "system": "http://loinc.org",
                      "display": "Chemistry studies (set)"
                    }
                  ],
                  "text": "Chemistry"
                },
                "entry": [
                  {
                    "reference": "urn:uuid:9dc7e42b-f041-427a-9238-ece4c2e433d8"
                  },
                  {
                    "reference": "urn:uuid:57b1e2ed-8556-41fc-9005-db2dfc6b5312"
                  },
                  {
                    "reference": "urn:uuid:49ee30c2-58ce-4ccf-b767-80e3ab01544f"
                  },
                  {
                    "reference": "urn:uuid:66cf6430-19d5-4b06-a06c-a156d52d22c5"
                  },
                  {
                    "reference": "urn:uuid:d07a375d-157c-4c5b-9ea6-f2887ff1eeff"
                  },
                  {
                    "reference": "urn:uuid:f6be890d-fdad-4c74-a2e6-1e5c1abf0462"
                  },
                  {
                    "reference": "urn:uuid:59cabbcc-9b46-4520-9418-2557a043d94c"
                  },
                  {
                    "reference": "urn:uuid:5097af69-3e58-4b0e-9529-045114fe8a70"
                  },
                  {
                    "reference": "urn:uuid:6b06ef59-f62e-4d8c-b73c-a17b7e0f8ba2"
                  }
                ],
                "text": {
                  "status": "generated",
                  "div": "<div xmlns=\"http://www.w3.org/1999/xhtml\"><h3>Chemistry</h3><table class=\"hl7__eu__lab__report\"><thead><tr><th>Test</th><th>25-JAN-2016</th><th>Reference&#xA0;Range</th><th>Unit</th></tr></thead><tbody><tr><td>Hemoglobin A1c/Hemoglobin.total in Blood</td><td><strong>6.1 H</strong></td><td>4.8 - 5.7</td><td>%</td></tr><tr><td>Glucose [Mass/volume] in Blood</td><td>74.7</td><td>70 - 99</td><td>mg/dL</td></tr><tr><td>Urea nitrogen [Mass/volume] in Blood</td><td>8.8</td><td>7 - 20</td><td>mg/dL</td></tr><tr><td>Creatinine [Mass/volume] in Blood</td><td>1.1</td><td>0.6 - 1.1</td><td>mg/dL</td></tr><tr><td>Calcium [Mass/volume] in Blood</td><td>9.9</td><td>8.5 - 10.5</td><td>mg/dL</td></tr><tr><td>Sodium [Moles/volume] in Blood</td><td>143.1</td><td>135 - 145</td><td>mmol/L</td></tr><tr><td>Potassium [Moles/volume] in Blood</td><td>4.7</td><td>3.5 - 5.3</td><td>mmol/L</td></tr><tr><td>Chloride [Moles/volume] in Blood</td><td>105.5</td><td>98 - 114</td><td>mmol/L</td></tr><tr><td>Carbon dioxide, total [Moles/volume] in Blood</td><td>22.3</td><td>22 - 29</td><td>mmol/L</td></tr></tbody></table></div>"
                },
                "title": "Chemistry"
              }
            ],
            "title": "Laboratory Report"
          },
          {
            "text": {
              "status": "generated",
              "div": "<div xmlns=\"http://www.w3.org/1999/xhtml\"><h3>Annotation</h3><table class=\"hl7__eu__lab__report\"><tr><th>Conclusion and Recommendations based on this report and previous findings known to us</th></tr><tr><td>The patient&quot;s HbA1c is mildly elevated, indicating impaired glucose regulation or possible prediabetes, while fasting glucose is within normal limits. Renal function (urea, creatinine), electrolytes, and calcium are all within normal ranges. No acute abnormalities detected aside from the elevated HbA1c; recommend follow-up for glycemic control and diabetes risk assessment.</td></tr></table></div>"
            },
            "code": {
              "coding": [
                {
                  "system": "http://loinc.org",
                  "code": "48767-8",
                  "display": "Annotation comment"
                }
              ]
            },
            "title": "Annotation comment"
          }
        ],
        "status": "final",
        "subject": {
          "reference": "urn:uuid:5a688bd8-44a0-4e3e-9aba-4b591f00f9f1",
          "display": "Pauline Grenier"
        },
        "date": "2016-01-25T12:54:46Z",
        "title": "Laboratory Report",
        "confidentiality": "N"
      }
    },
    {
      "fullUrl": "urn:uuid:5e270ce8-fac8-4419-b467-f2868bf04a06",
      "resource": {
        "resourceType": "DiagnosticReport",
        "id": "5e270ce8-fac8-4419-b467-f2868bf04a06",
        "meta": {
          "profile": [
            "http://hl7.eu/fhir/laboratory/StructureDefinition/DiagnosticReport-eu-lab"
          ]
        },
        "identifier": [
          {
            "assigner": {
              "display": "HL7 Europe"
            },
            "system": "urn:oid:2.16.840.1.113883.2.51.999",
            "value": "b98813ab-d7b9-4dc3-a254-171486150e40"
          }
        ],
        "extension": [
          {
            "url": "http://hl7.org/fhir/5.0/StructureDefinition/extension-DiagnosticReport.composition",
            "valueReference": {
              "reference": "urn:uuid:275fa3b1-4dc9-425b-8423-ebf180a006d6"
            }
          }
        ],
        "category": [
          {
            "coding": [
              {
                "code": "26436-6",
                "system": "http://loinc.org",
                "display": "Laboratory studies (set)"
              }
            ]
          }
        ],
        "specimen": [
          {
            "reference": "urn:uuid:28407ad3-76b5-4c6a-851e-8ca1a56a2108"
          }
        ],
        "result": [
          {
            "reference": "urn:uuid:9dc7e42b-f041-427a-9238-ece4c2e433d8"
          },
          {
            "reference": "urn:uuid:57b1e2ed-8556-41fc-9005-db2dfc6b5312"
          },
          {
            "reference": "urn:uuid:49ee30c2-58ce-4ccf-b767-80e3ab01544f"
          },
          {
            "reference": "urn:uuid:66cf6430-19d5-4b06-a06c-a156d52d22c5"
          },
          {
            "reference": "urn:uuid:d07a375d-157c-4c5b-9ea6-f2887ff1eeff"
          },
          {
            "reference": "urn:uuid:f6be890d-fdad-4c74-a2e6-1e5c1abf0462"
          },
          {
            "reference": "urn:uuid:59cabbcc-9b46-4520-9418-2557a043d94c"
          },
          {
            "reference": "urn:uuid:5097af69-3e58-4b0e-9529-045114fe8a70"
          },
          {
            "reference": "urn:uuid:6b06ef59-f62e-4d8c-b73c-a17b7e0f8ba2"
          }
        ],
        "status": "registered",
        "code": {
          "coding": [
            {
              "code": "11502-2",
              "system": "http://loinc.org",
              "display": "Laboratory report"
            }
          ]
        },
        "subject": {
          "reference": "urn:uuid:5a688bd8-44a0-4e3e-9aba-4b591f00f9f1",
          "display": "Pauline Grenier"
        }
      }
    },
    {
      "fullUrl": "urn:uuid:5a688bd8-44a0-4e3e-9aba-4b591f00f9f1",
      "resource": {
        "resourceType": "Patient",
        "id": "5a688bd8-44a0-4e3e-9aba-4b591f00f9f1",
        "meta": {
          "security": [
            {
              "system": "http://terminology.hl7.org/CodeSystem/v3-ActReason",
              "code": "HTEST"
            },
            {
              "system": "http://terminology.hl7.org/CodeSystem/v3-ActReason",
              "code": "TRAIN"
            }
          ],
          "tag": [
            {
              "system": "https://synderai.net/fhir/CodeSystem/tags",
              "code": "synthetic",
              "display": "SYNDERAI Synthetic data"
            }
          ],
          "profile": [
            "http://hl7.eu/fhir/base/StructureDefinition/patient-eu-core"
          ]
        },
        "identifier": [
          {
            "type": {
              "coding": [
                {
                  "code": "PT",
                  "system": "http://terminology.hl7.org/CodeSystem/v2-0203"
                }
              ]
            },
            "system": "http://ec.europa.eu/identifier/eci",
            "value": "6776-872657-1"
          },
          {
            "type": {
              "coding": [
                {
                  "code": "MR",
                  "system": "http://terminology.hl7.org/CodeSystem/v2-0203"
                }
              ]
            },
            "system": "http://local.setting.eu/identifier",
            "value": "a90ff566-3092-3af0-91f2-c0514ba66d35"
          }
        ],
        "name": [
          {
            "family": "Grenier"
          },
          {
            "given": [
              "Pauline"
            ]
          },
          {
            "text": "Pauline Grenier"
          }
        ],
        "address": [
          {
            "line": [
              "114, avenue Georges"
            ],
            "use": "home",
            "type": "physical",
            "postalCode": "71110",
            "city": "Caron",
            "country": "France"
          }
        ],
        "telecom": [
          {
            "system": "phone",
            "value": "+33 4 26 27 51 56"
          }
        ],
        "extension": [
          {
            "url": "http://hl7.org/fhir/StructureDefinition/patient-nationality",
            "valueCodeableConcept": {
              "coding": [
                {
                  "code": "FR",
                  "system": "http://hl7.org/fhir/ValueSet/country"
                }
              ]
            }
          }
        ],
        "text": {
          "status": "generated",
          "div": "<div xmlns=\"http://www.w3.org/1999/xhtml\"><table class=\"hl7__ips\"><tr><td>Pauline Grenier</td><td>female</td><td>03-May-1971</td></tr></table></div>"
        },
        "gender": "female",
        "birthDate": "1971-05-03"
      }
    },
    {
      "fullUrl": "urn:uuid:5d2204c6-18ba-46a5-ae06-3b32001daac4",
      "resource": {
        "resourceType": "ServiceRequest",
        "id": "5d2204c6-18ba-46a5-ae06-3b32001daac4",
        "meta": {
          "profile": [
            "http://hl7.eu/fhir/laboratory/StructureDefinition/ServiceRequest-eu-lab"
          ]
        },
        "identifier": [
          {
            "system": "http://example.org",
            "value": "ff4b77b9-72c2-467d-8231-6d5964d0f9da"
          }
        ],
        "specimen": [
          {
            "reference": "urn:uuid:28407ad3-76b5-4c6a-851e-8ca1a56a2108"
          }
        ],
        "reasonCode": [
          {
            "coding": [
              {
                "code": "59621000",
                "system": "http://snomed.info/sct",
                "display": "Essential hypertension"
              }
            ]
          },
          {
            "coding": [
              {
                "code": "237602007",
                "system": "http://snomed.info/sct",
                "display": "Metabolic syndrome X"
              }
            ]
          },
          {
            "coding": [
              {
                "code": "15777000",
                "system": "http://snomed.info/sct",
                "display": "Prediabetes"
              }
            ]
          }
        ],
        "status": "active",
        "intent": "order",
        "code": {
          "coding": [
            {
              "code": "108252007",
              "system": "http://snomed.info/sct",
              "display": "Laboratory procedure"
            }
          ]
        },
        "subject": {
          "reference": "urn:uuid:5a688bd8-44a0-4e3e-9aba-4b591f00f9f1",
          "display": "Pauline Grenier"
        },
        "requester": {
          "reference": "urn:uuid:6aee3a05-6878-4fdd-b314-e5fa1baac60a"
        }
      }
    },
    {
      "fullUrl": "urn:uuid:6aee3a05-6878-4fdd-b314-e5fa1baac60a",
      "resource": {
        "resourceType": "PractitionerRole",
        "id": "6aee3a05-6878-4fdd-b314-e5fa1baac60a",
        "meta": {
          "profile": [
            "http://hl7.eu/fhir/base/StructureDefinition/practitionerRole-eu"
          ]
        },
        "text": {
          "status": "generated",
          "div": "<div xmlns=\"http://www.w3.org/1999/xhtml\">Provider Role Id: 6aee3a05-6878-4fdd-b314-e5fa1baac60a</div>"
        },
        "organization": {
          "reference": "urn:uuid:83562957-6a8f-44d6-a581-59632b7f23cb"
        }
      }
    },
    {
      "fullUrl": "urn:uuid:83562957-6a8f-44d6-a581-59632b7f23cb",
      "resource": {
        "resourceType": "Organization",
        "id": "83562957-6a8f-44d6-a581-59632b7f23cb",
        "meta": {
          "profile": [
            "http://hl7.eu/fhir/base/StructureDefinition/organization-eu"
          ]
        },
        "identifier": [
          {
            "assigner": {
              "display": "HL7 Europe"
            },
            "system": "urn:oid:2.16.840.1.113883.2.51.999",
            "value": "dbc442ef-117e-4769-8c3d-ca2a2697cdb3"
          }
        ],
        "address": [
          {
            "city": "Le Creusot",
            "postalCode": "71200",
            "country": "France"
          }
        ],
        "text": {
          "status": "generated",
          "div": "<div xmlns=\"http://www.w3.org/1999/xhtml\">Provider Organization: Hôpital du Creusot - Site Foch</div>"
        },
        "name": "Hôpital du Creusot - Site Foch"
      }
    },
    {
      "fullUrl": "urn:uuid:28407ad3-76b5-4c6a-851e-8ca1a56a2108",
      "resource": {
        "resourceType": "Specimen",
        "id": "28407ad3-76b5-4c6a-851e-8ca1a56a2108",
        "meta": {
          "profile": [
            "http://hl7.eu/fhir/laboratory/StructureDefinition/Specimen-eu-lab"
          ]
        },
        "collection": {
          "collectedDateTime": "2016-01-25"
        },
        "text": {
          "status": "generated",
          "div": "<div xmlns=\"http://www.w3.org/1999/xhtml\"><table class=\"hl7__eu__lab__report\"><tr><th>Specimen</th><th>Collection Date</th></tr><tr><td>Whole blood specimen (specimen)</td><td><span class=\"nb\">25-Jan-2016</span></td></tr></table></div>"
        },
        "type": {
          "coding": [
            {
              "code": "258580003",
              "system": "http://snomed.info/sct",
              "display": "Whole blood specimen (specimen)"
            }
          ]
        }
      }
    },
    {
      "fullUrl": "urn:uuid:9dc7e42b-f041-427a-9238-ece4c2e433d8",
      "resource": {
        "resourceType": "Observation",
        "id": "9dc7e42b-f041-427a-9238-ece4c2e433d8",
        "meta": {
          "profile": [
            "http://hl7.eu/fhir/laboratory/StructureDefinition/Observation-resultslab-eu-lab"
          ]
        },
        "performer": [
          {
            "display": "The Central European Lab"
          }
        ],
        "category": [
          {
            "coding": [
              {
                "system": "http://terminology.hl7.org/CodeSystem/observation-category",
                "code": "laboratory"
              }
            ]
          }
        ],
        "code": {
          "coding": [
            {
              "code": "4548-4",
              "system": "http://loinc.org",
              "display": "Hemoglobin A1c/Hemoglobin.total in Blood"
            }
          ],
          "text": "Hemoglobin A1c/Hemoglobin.total in Blood"
        },
        "valueQuantity": {
          "system": "http://unitsofmeasure.org",
          "value": 6.1,
          "unit": "%",
          "code": "%"
        },
        "referenceRange": [
          {
            "low": {
              "value": 4.8,
              "code": "%",
              "system": "http://unitsofmeasure.org"
            }
          },
          {
            "high": {
              "value": 5.7,
              "code": "%",
              "system": "http://unitsofmeasure.org"
            }
          }
        ],
        "interpretation": [
          {
            "coding": [
              {
                "code": "H",
                "system": "http://terminology.hl7.org/CodeSystem/v3-ObservationInterpretation",
                "display": "High"
              }
            ]
          }
        ],
        "text": {
          "status": "generated",
          "div": "<div xmlns=\"http://www.w3.org/1999/xhtml\"><table class=\"hl7__eu__lab__report\"><tr><th>Test</th><th>25-Jan-2016</th><th>Reference&#xA0;Range</th><th>Unit</th></tr><tr><td>Hemoglobin A1c/Hemoglobin.total in Blood</td><td>6.1</td><td>4.8 - 5.7</td><td>H</td><td>%</td></tr></table></div>"
        },
        "status": "final",
        "subject": {
          "reference": "urn:uuid:5a688bd8-44a0-4e3e-9aba-4b591f00f9f1",
          "display": "Pauline Grenier"
        },
        "effectiveDateTime": "2016-01-25T11:54:46Z",
        "specimen": {
          "reference": "urn:uuid:28407ad3-76b5-4c6a-851e-8ca1a56a2108"
        }
      }
    },
    {
      "fullUrl": "urn:uuid:57b1e2ed-8556-41fc-9005-db2dfc6b5312",
      "resource": {
        "resourceType": "Observation",
        "id": "57b1e2ed-8556-41fc-9005-db2dfc6b5312",
        "meta": {
          "profile": [
            "http://hl7.eu/fhir/laboratory/StructureDefinition/Observation-resultslab-eu-lab"
          ]
        },
        "performer": [
          {
            "display": "The Central European Lab"
          }
        ],
        "category": [
          {
            "coding": [
              {
                "system": "http://terminology.hl7.org/CodeSystem/observation-category",
                "code": "laboratory"
              }
            ]
          }
        ],
        "code": {
          "coding": [
            {
              "code": "2339-0",
              "system": "http://loinc.org",
              "display": "Glucose [Mass/volume] in Blood"
            }
          ],
          "text": "Glucose [Mass/volume] in Blood"
        },
        "valueQuantity": {
          "system": "http://unitsofmeasure.org",
          "value": 74.7,
          "unit": "mg/dL",
          "code": "mg/dL"
        },
        "referenceRange": [
          {
            "low": {
              "value": 70,
              "code": "mg/dL",
              "system": "http://unitsofmeasure.org"
            }
          },
          {
            "high": {
              "value": 99,
              "code": "mg/dL",
              "system": "http://unitsofmeasure.org"
            }
          }
        ],
        "text": {
          "status": "generated",
          "div": "<div xmlns=\"http://www.w3.org/1999/xhtml\"><table class=\"hl7__eu__lab__report\"><tr><th>Test</th><th>25-Jan-2016</th><th>Reference&#xA0;Range</th><th>Unit</th></tr><tr><td>Glucose [Mass/volume] in Blood</td><td>74.7</td><td>70 - 99</td><td></td><td>mg/dL</td></tr></table></div>"
        },
        "status": "final",
        "subject": {
          "reference": "urn:uuid:5a688bd8-44a0-4e3e-9aba-4b591f00f9f1",
          "display": "Pauline Grenier"
        },
        "effectiveDateTime": "2016-01-25T11:54:46Z",
        "specimen": {
          "reference": "urn:uuid:28407ad3-76b5-4c6a-851e-8ca1a56a2108"
        }
      }
    },
    {
      "fullUrl": "urn:uuid:49ee30c2-58ce-4ccf-b767-80e3ab01544f",
      "resource": {
        "resourceType": "Observation",
        "id": "49ee30c2-58ce-4ccf-b767-80e3ab01544f",
        "meta": {
          "profile": [
            "http://hl7.eu/fhir/laboratory/StructureDefinition/Observation-resultslab-eu-lab"
          ]
        },
        "performer": [
          {
            "display": "The Central European Lab"
          }
        ],
        "category": [
          {
            "coding": [
              {
                "system": "http://terminology.hl7.org/CodeSystem/observation-category",
                "code": "laboratory"
              }
            ]
          }
        ],
        "code": {
          "coding": [
            {
              "code": "6299-2",
              "system": "http://loinc.org",
              "display": "Urea nitrogen [Mass/volume] in Blood"
            }
          ],
          "text": "Urea nitrogen [Mass/volume] in Blood"
        },
        "valueQuantity": {
          "system": "http://unitsofmeasure.org",
          "value": 8.8,
          "unit": "mg/dL",
          "code": "mg/dL"
        },
        "referenceRange": [
          {
            "low": {
              "value": 7,
              "code": "mg/dL",
              "system": "http://unitsofmeasure.org"
            }
          },
          {
            "high": {
              "value": 20,
              "code": "mg/dL",
              "system": "http://unitsofmeasure.org"
            }
          }
        ],
        "text": {
          "status": "generated",
          "div": "<div xmlns=\"http://www.w3.org/1999/xhtml\"><table class=\"hl7__eu__lab__report\"><tr><th>Test</th><th>25-Jan-2016</th><th>Reference&#xA0;Range</th><th>Unit</th></tr><tr><td>Urea nitrogen [Mass/volume] in Blood</td><td>8.8</td><td>7 - 20</td><td></td><td>mg/dL</td></tr></table></div>"
        },
        "status": "final",
        "subject": {
          "reference": "urn:uuid:5a688bd8-44a0-4e3e-9aba-4b591f00f9f1",
          "display": "Pauline Grenier"
        },
        "effectiveDateTime": "2016-01-25T11:54:46Z",
        "specimen": {
          "reference": "urn:uuid:28407ad3-76b5-4c6a-851e-8ca1a56a2108"
        }
      }
    },
    {
      "fullUrl": "urn:uuid:66cf6430-19d5-4b06-a06c-a156d52d22c5",
      "resource": {
        "resourceType": "Observation",
        "id": "66cf6430-19d5-4b06-a06c-a156d52d22c5",
        "meta": {
          "profile": [
            "http://hl7.eu/fhir/laboratory/StructureDefinition/Observation-resultslab-eu-lab"
          ]
        },
        "performer": [
          {
            "display": "The Central European Lab"
          }
        ],
        "category": [
          {
            "coding": [
              {
                "system": "http://terminology.hl7.org/CodeSystem/observation-category",
                "code": "laboratory"
              }
            ]
          }
        ],
        "code": {
          "coding": [
            {
              "code": "38483-4",
              "system": "http://loinc.org",
              "display": "Creatinine [Mass/volume] in Blood"
            }
          ],
          "text": "Creatinine [Mass/volume] in Blood"
        },
        "valueQuantity": {
          "system": "http://unitsofmeasure.org",
          "value": 1.1,
          "unit": "mg/dL",
          "code": "mg/dL"
        },
        "referenceRange": [
          {
            "low": {
              "value": 0.6,
              "code": "mg/dL",
              "system": "http://unitsofmeasure.org"
            }
          },
          {
            "high": {
              "value": 1.1,
              "code": "mg/dL",
              "system": "http://unitsofmeasure.org"
            }
          }
        ],
        "text": {
          "status": "generated",
          "div": "<div xmlns=\"http://www.w3.org/1999/xhtml\"><table class=\"hl7__eu__lab__report\"><tr><th>Test</th><th>25-Jan-2016</th><th>Reference&#xA0;Range</th><th>Unit</th></tr><tr><td>Creatinine [Mass/volume] in Blood</td><td>1.1</td><td>0.6 - 1.1</td><td></td><td>mg/dL</td></tr></table></div>"
        },
        "status": "final",
        "subject": {
          "reference": "urn:uuid:5a688bd8-44a0-4e3e-9aba-4b591f00f9f1",
          "display": "Pauline Grenier"
        },
        "effectiveDateTime": "2016-01-25T11:54:46Z",
        "specimen": {
          "reference": "urn:uuid:28407ad3-76b5-4c6a-851e-8ca1a56a2108"
        }
      }
    },
    {
      "fullUrl": "urn:uuid:d07a375d-157c-4c5b-9ea6-f2887ff1eeff",
      "resource": {
        "resourceType": "Observation",
        "id": "d07a375d-157c-4c5b-9ea6-f2887ff1eeff",
        "meta": {
          "profile": [
            "http://hl7.eu/fhir/laboratory/StructureDefinition/Observation-resultslab-eu-lab"
          ]
        },
        "performer": [
          {
            "display": "The Central European Lab"
          }
        ],
        "category": [
          {
            "coding": [
              {
                "system": "http://terminology.hl7.org/CodeSystem/observation-category",
                "code": "laboratory"
              }
            ]
          }
        ],
        "code": {
          "coding": [
            {
              "code": "49765-1",
              "system": "http://loinc.org",
              "display": "Calcium [Mass/volume] in Blood"
            }
          ],
          "text": "Calcium [Mass/volume] in Blood"
        },
        "valueQuantity": {
          "system": "http://unitsofmeasure.org",
          "value": 9.9,
          "unit": "mg/dL",
          "code": "mg/dL"
        },
        "referenceRange": [
          {
            "low": {
              "value": 8.5,
              "code": "mg/dL",
              "system": "http://unitsofmeasure.org"
            }
          },
          {
            "high": {
              "value": 10.5,
              "code": "mg/dL",
              "system": "http://unitsofmeasure.org"
            }
          }
        ],
        "text": {
          "status": "generated",
          "div": "<div xmlns=\"http://www.w3.org/1999/xhtml\"><table class=\"hl7__eu__lab__report\"><tr><th>Test</th><th>25-Jan-2016</th><th>Reference&#xA0;Range</th><th>Unit</th></tr><tr><td>Calcium [Mass/volume] in Blood</td><td>9.9</td><td>8.5 - 10.5</td><td></td><td>mg/dL</td></tr></table></div>"
        },
        "status": "final",
        "subject": {
          "reference": "urn:uuid:5a688bd8-44a0-4e3e-9aba-4b591f00f9f1",
          "display": "Pauline Grenier"
        },
        "effectiveDateTime": "2016-01-25T11:54:46Z",
        "specimen": {
          "reference": "urn:uuid:28407ad3-76b5-4c6a-851e-8ca1a56a2108"
        }
      }
    },
    {
      "fullUrl": "urn:uuid:f6be890d-fdad-4c74-a2e6-1e5c1abf0462",
      "resource": {
        "resourceType": "Observation",
        "id": "f6be890d-fdad-4c74-a2e6-1e5c1abf0462",
        "meta": {
          "profile": [
            "http://hl7.eu/fhir/laboratory/StructureDefinition/Observation-resultslab-eu-lab"
          ]
        },
        "performer": [
          {
            "display": "The Central European Lab"
          }
        ],
        "category": [
          {
            "coding": [
              {
                "system": "http://terminology.hl7.org/CodeSystem/observation-category",
                "code": "laboratory"
              }
            ]
          }
        ],
        "code": {
          "coding": [
            {
              "code": "2947-0",
              "system": "http://loinc.org",
              "display": "Sodium [Moles/volume] in Blood"
            }
          ],
          "text": "Sodium [Moles/volume] in Blood"
        },
        "valueQuantity": {
          "system": "http://unitsofmeasure.org",
          "value": 143.1,
          "unit": "mmol/L",
          "code": "mmol/L"
        },
        "referenceRange": [
          {
            "low": {
              "value": 135,
              "code": "mmol/L",
              "system": "http://unitsofmeasure.org"
            }
          },
          {
            "high": {
              "value": 145,
              "code": "mmol/L",
              "system": "http://unitsofmeasure.org"
            }
          }
        ],
        "text": {
          "status": "generated",
          "div": "<div xmlns=\"http://www.w3.org/1999/xhtml\"><table class=\"hl7__eu__lab__report\"><tr><th>Test</th><th>25-Jan-2016</th><th>Reference&#xA0;Range</th><th>Unit</th></tr><tr><td>Sodium [Moles/volume] in Blood</td><td>143.1</td><td>135 - 145</td><td></td><td>mmol/L</td></tr></table></div>"
        },
        "status": "final",
        "subject": {
          "reference": "urn:uuid:5a688bd8-44a0-4e3e-9aba-4b591f00f9f1",
          "display": "Pauline Grenier"
        },
        "effectiveDateTime": "2016-01-25T11:54:46Z",
        "specimen": {
          "reference": "urn:uuid:28407ad3-76b5-4c6a-851e-8ca1a56a2108"
        }
      }
    },
    {
      "fullUrl": "urn:uuid:59cabbcc-9b46-4520-9418-2557a043d94c",
      "resource": {
        "resourceType": "Observation",
        "id": "59cabbcc-9b46-4520-9418-2557a043d94c",
        "meta": {
          "profile": [
            "http://hl7.eu/fhir/laboratory/StructureDefinition/Observation-resultslab-eu-lab"
          ]
        },
        "performer": [
          {
            "display": "The Central European Lab"
          }
        ],
        "category": [
          {
            "coding": [
              {
                "system": "http://terminology.hl7.org/CodeSystem/observation-category",
                "code": "laboratory"
              }
            ]
          }
        ],
        "code": {
          "coding": [
            {
              "code": "6298-4",
              "system": "http://loinc.org",
              "display": "Potassium [Moles/volume] in Blood"
            }
          ],
          "text": "Potassium [Moles/volume] in Blood"
        },
        "valueQuantity": {
          "system": "http://unitsofmeasure.org",
          "value": 4.7,
          "unit": "mmol/L",
          "code": "mmol/L"
        },
        "referenceRange": [
          {
            "low": {
              "value": 3.5,
              "code": "mmol/L",
              "system": "http://unitsofmeasure.org"
            }
          },
          {
            "high": {
              "value": 5.3,
              "code": "mmol/L",
              "system": "http://unitsofmeasure.org"
            }
          }
        ],
        "text": {
          "status": "generated",
          "div": "<div xmlns=\"http://www.w3.org/1999/xhtml\"><table class=\"hl7__eu__lab__report\"><tr><th>Test</th><th>25-Jan-2016</th><th>Reference&#xA0;Range</th><th>Unit</th></tr><tr><td>Potassium [Moles/volume] in Blood</td><td>4.7</td><td>3.5 - 5.3</td><td></td><td>mmol/L</td></tr></table></div>"
        },
        "status": "final",
        "subject": {
          "reference": "urn:uuid:5a688bd8-44a0-4e3e-9aba-4b591f00f9f1",
          "display": "Pauline Grenier"
        },
        "effectiveDateTime": "2016-01-25T11:54:46Z",
        "specimen": {
          "reference": "urn:uuid:28407ad3-76b5-4c6a-851e-8ca1a56a2108"
        }
      }
    },
    {
      "fullUrl": "urn:uuid:5097af69-3e58-4b0e-9529-045114fe8a70",
      "resource": {
        "resourceType": "Observation",
        "id": "5097af69-3e58-4b0e-9529-045114fe8a70",
        "meta": {
          "profile": [
            "http://hl7.eu/fhir/laboratory/StructureDefinition/Observation-resultslab-eu-lab"
          ]
        },
        "performer": [
          {
            "display": "The Central European Lab"
          }
        ],
        "category": [
          {
            "coding": [
              {
                "system": "http://terminology.hl7.org/CodeSystem/observation-category",
                "code": "laboratory"
              }
            ]
          }
        ],
        "code": {
          "coding": [
            {
              "code": "2069-3",
              "system": "http://loinc.org",
              "display": "Chloride [Moles/volume] in Blood"
            }
          ],
          "text": "Chloride [Moles/volume] in Blood"
        },
        "valueQuantity": {
          "system": "http://unitsofmeasure.org",
          "value": 105.5,
          "unit": "mmol/L",
          "code": "mmol/L"
        },
        "referenceRange": [
          {
            "low": {
              "value": 98,
              "code": "mmol/L",
              "system": "http://unitsofmeasure.org"
            }
          },
          {
            "high": {
              "value": 114,
              "code": "mmol/L",
              "system": "http://unitsofmeasure.org"
            }
          }
        ],
        "text": {
          "status": "generated",
          "div": "<div xmlns=\"http://www.w3.org/1999/xhtml\"><table class=\"hl7__eu__lab__report\"><tr><th>Test</th><th>25-Jan-2016</th><th>Reference&#xA0;Range</th><th>Unit</th></tr><tr><td>Chloride [Moles/volume] in Blood</td><td>105.5</td><td>98 - 114</td><td></td><td>mmol/L</td></tr></table></div>"
        },
        "status": "final",
        "subject": {
          "reference": "urn:uuid:5a688bd8-44a0-4e3e-9aba-4b591f00f9f1",
          "display": "Pauline Grenier"
        },
        "effectiveDateTime": "2016-01-25T11:54:46Z",
        "specimen": {
          "reference": "urn:uuid:28407ad3-76b5-4c6a-851e-8ca1a56a2108"
        }
      }
    },
    {
      "fullUrl": "urn:uuid:6b06ef59-f62e-4d8c-b73c-a17b7e0f8ba2",
      "resource": {
        "resourceType": "Observation",
        "id": "6b06ef59-f62e-4d8c-b73c-a17b7e0f8ba2",
        "meta": {
          "profile": [
            "http://hl7.eu/fhir/laboratory/StructureDefinition/Observation-resultslab-eu-lab"
          ]
        },
        "performer": [
          {
            "display": "The Central European Lab"
          }
        ],
        "category": [
          {
            "coding": [
              {
                "system": "http://terminology.hl7.org/CodeSystem/observation-category",
                "code": "laboratory"
              }
            ]
          }
        ],
        "code": {
          "coding": [
            {
              "code": "20565-8",
              "system": "http://loinc.org",
              "display": "Carbon dioxide, total [Moles/volume] in Blood"
            }
          ],
          "text": "Carbon dioxide, total [Moles/volume] in Blood"
        },
        "valueQuantity": {
          "system": "http://unitsofmeasure.org",
          "value": 22.3,
          "unit": "mmol/L",
          "code": "mmol/L"
        },
        "referenceRange": [
          {
            "low": {
              "value": 22,
              "code": "mmol/L",
              "system": "http://unitsofmeasure.org"
            }
          },
          {
            "high": {
              "value": 29,
              "code": "mmol/L",
              "system": "http://unitsofmeasure.org"
            }
          }
        ],
        "text": {
          "status": "generated",
          "div": "<div xmlns=\"http://www.w3.org/1999/xhtml\"><table class=\"hl7__eu__lab__report\"><tr><th>Test</th><th>25-Jan-2016</th><th>Reference&#xA0;Range</th><th>Unit</th></tr><tr><td>Carbon dioxide, total [Moles/volume] in Blood</td><td>22.3</td><td>22 - 29</td><td></td><td>mmol/L</td></tr></table></div>"
        },
        "status": "final",
        "subject": {
          "reference": "urn:uuid:5a688bd8-44a0-4e3e-9aba-4b591f00f9f1",
          "display": "Pauline Grenier"
        },
        "effectiveDateTime": "2016-01-25T11:54:46Z",
        "specimen": {
          "reference": "urn:uuid:28407ad3-76b5-4c6a-851e-8ca1a56a2108"
        }
      }
    },
    {
      "fullUrl": "urn:uuid:90abd7cd-393a-4048-a753-2cfab56a79f1",
      "resource": {
        "resourceType": "Device",
        "id": "90abd7cd-393a-4048-a753-2cfab56a79f1",
        "deviceName": [
          {
            "name": "SYNDERAI Synthetic Generator",
            "type": "manufacturer-name"
          }
        ],
        "version": [
          {
            "value": "5.0"
          }
        ],
        "text": {
          "status": "generated",
          "div": "<div xmlns=\"http://www.w3.org/1999/xhtml\">SYNDERAI Synthetic Generator v5.0</div>"
        },
        "status": "active\"",
        "distinctIdentifier": "synderai-generator-50",
        "manufacturer": "SYNDERAI Project"
      }
    },
    {
      "fullUrl": "urn:uuid:e40ca651-8b96-48fd-8ab7-935e4372e949",
      "resource": {
        "resourceType": "Provenance",
        "id": "e40ca651-8b96-48fd-8ab7-935e4372e949",
        "target": [
          {
            "reference": "Patient/5a688bd8-44a0-4e3e-9aba-4b591f00f9f1"
          },
          {
            "reference": "Bundle/cf949235-8e38-4373-b50a-56e67b0f1496"
          },
          {
            "reference": "Composition/2ff77c07-bd42-4524-8dc7-aff03d4c0f4f"
          },
          {
            "reference": "PractitionerRole/2fede1f6-9911-4acd-961f-fa1a1b6f0462"
          },
          {
            "reference": "Practitioner/221f6d03-66c0-42f2-a481-4f03f52a5161"
          },
          {
            "reference": "PractitionerRole/6aee3a05-6878-4fdd-b314-e5fa1baac60a"
          },
          {
            "reference": "Organization/83562957-6a8f-44d6-a581-59632b7f23cb"
          }
        ],
        "activity": {
          "text": "Synthetic Example Data Generation"
        },
        "policy": [
          "https://synderai.net/synderai-synthetic-data-policy"
        ],
        "agent": [
          {
            "type": {
              "text": "author"
            },
            "who": {
              "reference": "Device/90abd7cd-393a-4048-a753-2cfab56a79f1"
            }
          }
        ],
        "reason": [
          {
            "text": "Interoperability Testing and Training (non-clinical use)"
          }
        ],
        "text": {
          "status": "generated",
          "div": "<div xmlns=\"http://www.w3.org/1999/xhtml\">Provenance for SYNDERAI Synthetic Example Data Resource</div>"
        },
        "recorded": "2016-01-25T12:54:46Z"
      }
    },
    {
      "fullUrl": "urn:uuid:2fede1f6-9911-4acd-961f-fa1a1b6f0462",
      "resource": {
        "resourceType": "PractitionerRole",
        "id": "2fede1f6-9911-4acd-961f-fa1a1b6f0462",
        "meta": {
          "profile": [
            "http://hl7.eu/fhir/base/StructureDefinition/practitionerRole-eu"
          ]
        },
        "text": {
          "status": "generated",
          "div": "<div xmlns=\"http://www.w3.org/1999/xhtml\">Laboratory Role Id: 2fede1f6-9911-4acd-961f-fa1a1b6f0462</div>"
        },
        "practitioner": {
          "reference": "urn:uuid:221f6d03-66c0-42f2-a481-4f03f52a5161"
        }
      }
    },
    {
      "fullUrl": "urn:uuid:221f6d03-66c0-42f2-a481-4f03f52a5161",
      "resource": {
        "resourceType": "Practitioner",
        "id": "221f6d03-66c0-42f2-a481-4f03f52a5161",
        "meta": {
          "profile": [
            "http://hl7.eu/fhir/base/StructureDefinition/practitioner-eu"
          ]
        },
        "identifier": [
          {
            "assigner": {
              "display": "HL7 Europe"
            },
            "system": "urn:oid:2.16.840.1.113883.2.51.999",
            "value": "2b2dc098-363c-4639-8ae9-4808ee3d1a06"
          }
        ],
        "name": [
          {
            "prefix": [
              "dr"
            ],
            "given": [
              "Ex"
            ],
            "family": "Ample"
          }
        ],
        "address": [
          {
            "line": [
              "Laboratoire Central Européenne",
              "Boulevard du Jardin Botanique 32"
            ],
            "postalCode": "1000",
            "city": "Brussels",
            "country": "Belgium"
          }
        ],
        "text": {
          "status": "generated",
          "div": "<div xmlns=\"http://www.w3.org/1999/xhtml\">Laboratory: Laboratoire Central Européenne, 1000 Brussels, Belgium</div>"
        }
      }
    }
  ],
  "type": "document",
  "timestamp": "2016-01-25T12:54:46Z"
}
