{
  "resourceType": "Bundle",
  "id": "0e207082-fbec-4c26-bd36-6af3e51e8812",
  "meta": {
    "profile": [
      "http://hl7.eu/fhir/laboratory/StructureDefinition/Bundle-eu-lab"
    ]
  },
  "identifier": {
    "assigner": {
      "display": "HL7 Europe"
    },
    "system": "urn:oid:2.16.840.1.113883.2.51.999",
    "value": "2327dad9-3d0e-449f-86c1-c22ad238fdb6"
  },
  "entry": [
    {
      "fullUrl": "urn:uuid:e32dc3be-11c0-4794-a58f-071e4c01020f",
      "resource": {
        "resourceType": "Composition",
        "id": "e32dc3be-11c0-4794-a58f-071e4c01020f",
        "meta": {
          "profile": [
            "http://hl7.eu/fhir/laboratory/StructureDefinition/Composition-eu-lab"
          ]
        },
        "identifier": {
          "assigner": {
            "display": "HL7 Europe"
          },
          "system": "urn:oid:2.16.840.1.113883.2.51.999",
          "value": "21c6e8a4-2631-4723-8311-a2205dbab89c"
        },
        "author": [
          {
            "reference": "urn:uuid:9884e9f2-51b5-4cda-be4f-13c85de1bae5"
          }
        ],
        "category": [
          {
            "coding": [
              {
                "code": "26436-6",
                "system": "http://loinc.org",
                "display": "Laboratory studies (set)"
              }
            ]
          }
        ],
        "type": {
          "coding": [
            {
              "code": "11502-2",
              "system": "http://loinc.org",
              "display": "Laboratory report"
            }
          ],
          "text": "Laboratory Report"
        },
        "section": [
          {
            "code": {
              "coding": [
                {
                  "code": "26436-6",
                  "system": "http://loinc.org",
                  "display": "Laboratory studies (set)"
                }
              ],
              "text": "Laboratory studies"
            },
            "section": [
              {
                "code": {
                  "coding": [
                    {
                      "code": "$18719-5",
                      "system": "http://loinc.org",
                      "display": "Chemistry studies (set)"
                    }
                  ],
                  "text": "Chemistry"
                },
                "entry": [
                  {
                    "reference": "urn:uuid:6576dfb0-98c7-4915-ab7b-3529226f2084"
                  },
                  {
                    "reference": "urn:uuid:a1738c13-a92e-429f-9e81-4598dfdde2be"
                  },
                  {
                    "reference": "urn:uuid:6883ac97-9c57-4a94-ad1d-17ee9ea3ff12"
                  },
                  {
                    "reference": "urn:uuid:4d6bd83c-131c-4f81-87ef-1ba3f9253d67"
                  },
                  {
                    "reference": "urn:uuid:7f18f67a-89b5-4511-b555-6255347f0380"
                  },
                  {
                    "reference": "urn:uuid:2f96bafd-645e-4193-9dc1-ac39b03ff1a2"
                  },
                  {
                    "reference": "urn:uuid:4bc1350f-d956-4190-96a2-d1163e8fc350"
                  },
                  {
                    "reference": "urn:uuid:c8619a70-2dd6-4129-926b-205c3932f9bd"
                  },
                  {
                    "reference": "urn:uuid:3b878eb2-d0db-453e-b125-06e97d74e781"
                  }
                ],
                "text": {
                  "status": "generated",
                  "div": "<div xmlns=\"http://www.w3.org/1999/xhtml\"><h3>Chemistry</h3><table class=\"hl7__eu__lab__report\"><thead><tr><th>Test</th><th>10-SEP-2021</th><th>Reference&#xA0;Range</th><th>Unit</th></tr></thead><tbody><tr><td>Hemoglobin A1c/Hemoglobin.total in Blood</td><td><strong>5.9 H</strong></td><td>4.8 - 5.7</td><td>%</td></tr><tr><td>Glucose [Mass/volume] in Blood</td><td>92.3</td><td>70 - 140</td><td>mg/dL</td></tr><tr><td>Urea nitrogen [Mass/volume] in Blood</td><td>17.4</td><td>7 - 20</td><td>mg/dL</td></tr><tr><td>Creatinine [Mass/volume] in Blood</td><td>1.0</td><td>0.6 - 1.3</td><td>mg/dL</td></tr><tr><td>Calcium [Mass/volume] in Blood</td><td>8.6</td><td>8.5 - 10.5</td><td>mg/dL</td></tr><tr><td>Sodium [Moles/volume] in Blood</td><td>136.4</td><td>135 - 145</td><td>mmol/L</td></tr><tr><td>Potassium [Moles/volume] in Blood</td><td>4.3</td><td>3.5 - 5.1</td><td>mmol/L</td></tr><tr><td>Chloride [Moles/volume] in Blood</td><td>106.1</td><td>98 - 108</td><td>mmol/L</td></tr><tr><td>Carbon dioxide, total [Moles/volume] in Blood</td><td>25.6</td><td>22 - 32</td><td>mmol/L</td></tr></tbody></table></div>"
                },
                "title": "Chemistry"
              }
            ],
            "title": "Laboratory Report"
          },
          {
            "text": {
              "status": "generated",
              "div": "<div xmlns=\"http://www.w3.org/1999/xhtml\"><h3>Annotation</h3><table class=\"hl7__eu__lab__report\"><tr><th>Conclusion and Recommendations based on this report and previous findings known to us</th></tr><tr><td>All measured parameters are within normal limits except for a mildly elevated HbA1c (5.9%), indicating prediabetes. Renal function, electrolytes, and glucose are normal. Recommend monitoring glycemic control and considering lifestyle modifications to prevent progression to diabetes. No acute laboratory abnormalities detected.</td></tr></table></div>"
            },
            "code": {
              "coding": [
                {
                  "system": "http://loinc.org",
                  "code": "48767-8",
                  "display": "Annotation comment"
                }
              ]
            },
            "title": "Annotation comment"
          }
        ],
        "status": "final",
        "subject": {
          "reference": "urn:uuid:96b35199-3f56-48e8-a042-7bcd008bdebb",
          "display": "Leonhard Köhler"
        },
        "date": "2021-09-10T04:48:23Z",
        "title": "Laboratory Report",
        "confidentiality": "N"
      }
    },
    {
      "fullUrl": "urn:uuid:19deb225-ccd6-4f1d-881a-3d4a2b209570",
      "resource": {
        "resourceType": "DiagnosticReport",
        "id": "19deb225-ccd6-4f1d-881a-3d4a2b209570",
        "meta": {
          "profile": [
            "http://hl7.eu/fhir/laboratory/StructureDefinition/DiagnosticReport-eu-lab"
          ]
        },
        "identifier": [
          {
            "assigner": {
              "display": "HL7 Europe"
            },
            "system": "urn:oid:2.16.840.1.113883.2.51.999",
            "value": "b87230a5-ee75-49bf-834c-9eedda907be1"
          }
        ],
        "extension": [
          {
            "url": "http://hl7.org/fhir/5.0/StructureDefinition/extension-DiagnosticReport.composition",
            "valueReference": {
              "reference": "urn:uuid:21c6e8a4-2631-4723-8311-a2205dbab89c"
            }
          }
        ],
        "category": [
          {
            "coding": [
              {
                "code": "26436-6",
                "system": "http://loinc.org",
                "display": "Laboratory studies (set)"
              }
            ]
          }
        ],
        "specimen": [
          {
            "reference": "urn:uuid:6ae92106-0e96-48f2-b28f-e4af9e7dc664"
          }
        ],
        "result": [
          {
            "reference": "urn:uuid:6576dfb0-98c7-4915-ab7b-3529226f2084"
          },
          {
            "reference": "urn:uuid:a1738c13-a92e-429f-9e81-4598dfdde2be"
          },
          {
            "reference": "urn:uuid:6883ac97-9c57-4a94-ad1d-17ee9ea3ff12"
          },
          {
            "reference": "urn:uuid:4d6bd83c-131c-4f81-87ef-1ba3f9253d67"
          },
          {
            "reference": "urn:uuid:7f18f67a-89b5-4511-b555-6255347f0380"
          },
          {
            "reference": "urn:uuid:2f96bafd-645e-4193-9dc1-ac39b03ff1a2"
          },
          {
            "reference": "urn:uuid:4bc1350f-d956-4190-96a2-d1163e8fc350"
          },
          {
            "reference": "urn:uuid:c8619a70-2dd6-4129-926b-205c3932f9bd"
          },
          {
            "reference": "urn:uuid:3b878eb2-d0db-453e-b125-06e97d74e781"
          }
        ],
        "status": "registered",
        "code": {
          "coding": [
            {
              "code": "11502-2",
              "system": "http://loinc.org",
              "display": "Laboratory report"
            }
          ]
        },
        "subject": {
          "reference": "urn:uuid:96b35199-3f56-48e8-a042-7bcd008bdebb",
          "display": "Leonhard Köhler"
        }
      }
    },
    {
      "fullUrl": "urn:uuid:96b35199-3f56-48e8-a042-7bcd008bdebb",
      "resource": {
        "resourceType": "Patient",
        "id": "96b35199-3f56-48e8-a042-7bcd008bdebb",
        "meta": {
          "security": [
            {
              "system": "http://terminology.hl7.org/CodeSystem/v3-ActReason",
              "code": "HTEST"
            },
            {
              "system": "http://terminology.hl7.org/CodeSystem/v3-ActReason",
              "code": "TRAIN"
            }
          ],
          "tag": [
            {
              "system": "https://synderai.net/fhir/CodeSystem/tags",
              "code": "synthetic",
              "display": "SYNDERAI Synthetic data"
            }
          ],
          "profile": [
            "http://hl7.eu/fhir/base/StructureDefinition/patient-eu-core"
          ]
        },
        "identifier": [
          {
            "type": {
              "coding": [
                {
                  "code": "PT",
                  "system": "http://terminology.hl7.org/CodeSystem/v2-0203"
                }
              ]
            },
            "system": "http://ec.europa.eu/identifier/eci",
            "value": "5321-442678-4"
          },
          {
            "type": {
              "coding": [
                {
                  "code": "MR",
                  "system": "http://terminology.hl7.org/CodeSystem/v2-0203"
                }
              ]
            },
            "system": "http://local.setting.eu/identifier",
            "value": "ffa9f0d8-c016-d46c-e666-000f53715b47"
          }
        ],
        "name": [
          {
            "family": "Köhler"
          },
          {
            "given": [
              "Leonhard"
            ]
          },
          {
            "text": "Leonhard Köhler"
          }
        ],
        "address": [
          {
            "line": [
              "Henckweg 97/34"
            ],
            "use": "home",
            "type": "physical",
            "postalCode": "87629",
            "city": "Füssen",
            "country": "Germany"
          }
        ],
        "telecom": [
          {
            "system": "phone",
            "value": "00028839855"
          }
        ],
        "extension": [
          {
            "url": "http://hl7.org/fhir/StructureDefinition/patient-nationality",
            "valueCodeableConcept": {
              "coding": [
                {
                  "code": "DE",
                  "system": "http://hl7.org/fhir/ValueSet/country"
                }
              ]
            }
          }
        ],
        "text": {
          "status": "generated",
          "div": "<div xmlns=\"http://www.w3.org/1999/xhtml\"><table class=\"hl7__ips\"><tr><td>Leonhard Köhler</td><td>male</td><td>19-Dec-1949</td></tr></table></div>"
        },
        "gender": "male",
        "birthDate": "1949-12-19"
      }
    },
    {
      "fullUrl": "urn:uuid:411245ee-b46f-42d0-8c14-cfe941ff4825",
      "resource": {
        "resourceType": "ServiceRequest",
        "id": "411245ee-b46f-42d0-8c14-cfe941ff4825",
        "meta": {
          "profile": [
            "http://hl7.eu/fhir/laboratory/StructureDefinition/ServiceRequest-eu-lab"
          ]
        },
        "identifier": [
          {
            "system": "http://example.org",
            "value": "ee930577-a4d1-438b-94f2-563416bb6be4"
          }
        ],
        "specimen": [
          {
            "reference": "urn:uuid:6ae92106-0e96-48f2-b28f-e4af9e7dc664"
          }
        ],
        "reasonCode": [
          {
            "coding": [
              {
                "code": "55822004",
                "system": "http://snomed.info/sct",
                "display": "Hyperlipidemia"
              }
            ]
          },
          {
            "coding": [
              {
                "code": "414545008",
                "system": "http://snomed.info/sct",
                "display": "Ischemic heart disease"
              }
            ]
          },
          {
            "coding": [
              {
                "code": "59621000",
                "system": "http://snomed.info/sct",
                "display": "Essential hypertension"
              }
            ]
          },
          {
            "coding": [
              {
                "code": "239873007",
                "system": "http://snomed.info/sct",
                "display": "Osteoarthritis of knee"
              }
            ]
          },
          {
            "coding": [
              {
                "code": "271737000",
                "system": "http://snomed.info/sct",
                "display": "Anemia"
              }
            ]
          },
          {
            "coding": [
              {
                "code": "15777000",
                "system": "http://snomed.info/sct",
                "display": "Prediabetes"
              }
            ]
          }
        ],
        "status": "active",
        "intent": "order",
        "code": {
          "coding": [
            {
              "code": "108252007",
              "system": "http://snomed.info/sct",
              "display": "Laboratory procedure"
            }
          ]
        },
        "subject": {
          "reference": "urn:uuid:96b35199-3f56-48e8-a042-7bcd008bdebb",
          "display": "Leonhard Köhler"
        },
        "requester": {
          "reference": "urn:uuid:c2a54df1-c6a2-49e3-8e91-8aefce2f4558"
        }
      }
    },
    {
      "fullUrl": "urn:uuid:c2a54df1-c6a2-49e3-8e91-8aefce2f4558",
      "resource": {
        "resourceType": "PractitionerRole",
        "id": "c2a54df1-c6a2-49e3-8e91-8aefce2f4558",
        "meta": {
          "profile": [
            "http://hl7.eu/fhir/base/StructureDefinition/practitionerRole-eu"
          ]
        },
        "text": {
          "status": "generated",
          "div": "<div xmlns=\"http://www.w3.org/1999/xhtml\">Provider Role Id: c2a54df1-c6a2-49e3-8e91-8aefce2f4558</div>"
        },
        "organization": {
          "reference": "urn:uuid:d9abb500-5042-4e15-bf9a-920a28012223"
        }
      }
    },
    {
      "fullUrl": "urn:uuid:d9abb500-5042-4e15-bf9a-920a28012223",
      "resource": {
        "resourceType": "Organization",
        "id": "d9abb500-5042-4e15-bf9a-920a28012223",
        "meta": {
          "profile": [
            "http://hl7.eu/fhir/base/StructureDefinition/organization-eu"
          ]
        },
        "identifier": [
          {
            "assigner": {
              "display": "HL7 Europe"
            },
            "system": "urn:oid:2.16.840.1.113883.2.51.999",
            "value": "536a6835-ac1a-4244-8f37-465800503cbe"
          }
        ],
        "address": [
          {
            "line": [
              "Feistlestraße 2"
            ],
            "city": "Füssen",
            "postalCode": "87629",
            "country": "Germany"
          }
        ],
        "text": {
          "status": "generated",
          "div": "<div xmlns=\"http://www.w3.org/1999/xhtml\">Provider Organization: hier ist kein Ärztehaus</div>"
        },
        "name": "hier ist kein Ärztehaus"
      }
    },
    {
      "fullUrl": "urn:uuid:6ae92106-0e96-48f2-b28f-e4af9e7dc664",
      "resource": {
        "resourceType": "Specimen",
        "id": "6ae92106-0e96-48f2-b28f-e4af9e7dc664",
        "meta": {
          "profile": [
            "http://hl7.eu/fhir/laboratory/StructureDefinition/Specimen-eu-lab"
          ]
        },
        "collection": {
          "collectedDateTime": "2021-09-10"
        },
        "text": {
          "status": "generated",
          "div": "<div xmlns=\"http://www.w3.org/1999/xhtml\"><table class=\"hl7__eu__lab__report\"><tr><th>Specimen</th><th>Collection Date</th></tr><tr><td>Whole blood specimen (specimen)</td><td><span class=\"nb\">10-Sep-2021</span></td></tr></table></div>"
        },
        "type": {
          "coding": [
            {
              "code": "258580003",
              "system": "http://snomed.info/sct",
              "display": "Whole blood specimen (specimen)"
            }
          ]
        }
      }
    },
    {
      "fullUrl": "urn:uuid:6576dfb0-98c7-4915-ab7b-3529226f2084",
      "resource": {
        "resourceType": "Observation",
        "id": "6576dfb0-98c7-4915-ab7b-3529226f2084",
        "meta": {
          "profile": [
            "http://hl7.eu/fhir/laboratory/StructureDefinition/Observation-resultslab-eu-lab"
          ]
        },
        "performer": [
          {
            "display": "The Central European Lab"
          }
        ],
        "category": [
          {
            "coding": [
              {
                "system": "http://terminology.hl7.org/CodeSystem/observation-category",
                "code": "laboratory"
              }
            ]
          }
        ],
        "code": {
          "coding": [
            {
              "code": "4548-4",
              "system": "http://loinc.org",
              "display": "Hemoglobin A1c/Hemoglobin.total in Blood"
            }
          ],
          "text": "Hemoglobin A1c/Hemoglobin.total in Blood"
        },
        "valueQuantity": {
          "system": "http://unitsofmeasure.org",
          "value": 5.9,
          "unit": "%",
          "code": "%"
        },
        "referenceRange": [
          {
            "low": {
              "value": 4.8,
              "code": "%",
              "system": "http://unitsofmeasure.org"
            }
          },
          {
            "high": {
              "value": 5.7,
              "code": "%",
              "system": "http://unitsofmeasure.org"
            }
          }
        ],
        "interpretation": [
          {
            "coding": [
              {
                "code": "H",
                "system": "http://terminology.hl7.org/CodeSystem/v3-ObservationInterpretation",
                "display": "High"
              }
            ]
          }
        ],
        "text": {
          "status": "generated",
          "div": "<div xmlns=\"http://www.w3.org/1999/xhtml\"><table class=\"hl7__eu__lab__report\"><tr><th>Test</th><th>10-Sep-2021</th><th>Reference&#xA0;Range</th><th>Unit</th></tr><tr><td>Hemoglobin A1c/Hemoglobin.total in Blood</td><td>5.9</td><td>4.8 - 5.7</td><td>H</td><td>%</td></tr></table></div>"
        },
        "status": "final",
        "subject": {
          "reference": "urn:uuid:96b35199-3f56-48e8-a042-7bcd008bdebb",
          "display": "Leonhard Köhler"
        },
        "effectiveDateTime": "2021-09-10T02:48:23Z",
        "specimen": {
          "reference": "urn:uuid:6ae92106-0e96-48f2-b28f-e4af9e7dc664"
        }
      }
    },
    {
      "fullUrl": "urn:uuid:a1738c13-a92e-429f-9e81-4598dfdde2be",
      "resource": {
        "resourceType": "Observation",
        "id": "a1738c13-a92e-429f-9e81-4598dfdde2be",
        "meta": {
          "profile": [
            "http://hl7.eu/fhir/laboratory/StructureDefinition/Observation-resultslab-eu-lab"
          ]
        },
        "performer": [
          {
            "display": "The Central European Lab"
          }
        ],
        "category": [
          {
            "coding": [
              {
                "system": "http://terminology.hl7.org/CodeSystem/observation-category",
                "code": "laboratory"
              }
            ]
          }
        ],
        "code": {
          "coding": [
            {
              "code": "2339-0",
              "system": "http://loinc.org",
              "display": "Glucose [Mass/volume] in Blood"
            }
          ],
          "text": "Glucose [Mass/volume] in Blood"
        },
        "valueQuantity": {
          "system": "http://unitsofmeasure.org",
          "value": 92.3,
          "unit": "mg/dL",
          "code": "mg/dL"
        },
        "referenceRange": [
          {
            "low": {
              "value": 70,
              "code": "mg/dL",
              "system": "http://unitsofmeasure.org"
            }
          },
          {
            "high": {
              "value": 140,
              "code": "mg/dL",
              "system": "http://unitsofmeasure.org"
            }
          }
        ],
        "text": {
          "status": "generated",
          "div": "<div xmlns=\"http://www.w3.org/1999/xhtml\"><table class=\"hl7__eu__lab__report\"><tr><th>Test</th><th>10-Sep-2021</th><th>Reference&#xA0;Range</th><th>Unit</th></tr><tr><td>Glucose [Mass/volume] in Blood</td><td>92.3</td><td>70 - 140</td><td></td><td>mg/dL</td></tr></table></div>"
        },
        "status": "final",
        "subject": {
          "reference": "urn:uuid:96b35199-3f56-48e8-a042-7bcd008bdebb",
          "display": "Leonhard Köhler"
        },
        "effectiveDateTime": "2021-09-10T02:48:23Z",
        "specimen": {
          "reference": "urn:uuid:6ae92106-0e96-48f2-b28f-e4af9e7dc664"
        }
      }
    },
    {
      "fullUrl": "urn:uuid:6883ac97-9c57-4a94-ad1d-17ee9ea3ff12",
      "resource": {
        "resourceType": "Observation",
        "id": "6883ac97-9c57-4a94-ad1d-17ee9ea3ff12",
        "meta": {
          "profile": [
            "http://hl7.eu/fhir/laboratory/StructureDefinition/Observation-resultslab-eu-lab"
          ]
        },
        "performer": [
          {
            "display": "The Central European Lab"
          }
        ],
        "category": [
          {
            "coding": [
              {
                "system": "http://terminology.hl7.org/CodeSystem/observation-category",
                "code": "laboratory"
              }
            ]
          }
        ],
        "code": {
          "coding": [
            {
              "code": "6299-2",
              "system": "http://loinc.org",
              "display": "Urea nitrogen [Mass/volume] in Blood"
            }
          ],
          "text": "Urea nitrogen [Mass/volume] in Blood"
        },
        "valueQuantity": {
          "system": "http://unitsofmeasure.org",
          "value": 17.4,
          "unit": "mg/dL",
          "code": "mg/dL"
        },
        "referenceRange": [
          {
            "low": {
              "value": 7,
              "code": "mg/dL",
              "system": "http://unitsofmeasure.org"
            }
          },
          {
            "high": {
              "value": 20,
              "code": "mg/dL",
              "system": "http://unitsofmeasure.org"
            }
          }
        ],
        "text": {
          "status": "generated",
          "div": "<div xmlns=\"http://www.w3.org/1999/xhtml\"><table class=\"hl7__eu__lab__report\"><tr><th>Test</th><th>10-Sep-2021</th><th>Reference&#xA0;Range</th><th>Unit</th></tr><tr><td>Urea nitrogen [Mass/volume] in Blood</td><td>17.4</td><td>7 - 20</td><td></td><td>mg/dL</td></tr></table></div>"
        },
        "status": "final",
        "subject": {
          "reference": "urn:uuid:96b35199-3f56-48e8-a042-7bcd008bdebb",
          "display": "Leonhard Köhler"
        },
        "effectiveDateTime": "2021-09-10T02:48:23Z",
        "specimen": {
          "reference": "urn:uuid:6ae92106-0e96-48f2-b28f-e4af9e7dc664"
        }
      }
    },
    {
      "fullUrl": "urn:uuid:4d6bd83c-131c-4f81-87ef-1ba3f9253d67",
      "resource": {
        "resourceType": "Observation",
        "id": "4d6bd83c-131c-4f81-87ef-1ba3f9253d67",
        "meta": {
          "profile": [
            "http://hl7.eu/fhir/laboratory/StructureDefinition/Observation-resultslab-eu-lab"
          ]
        },
        "performer": [
          {
            "display": "The Central European Lab"
          }
        ],
        "category": [
          {
            "coding": [
              {
                "system": "http://terminology.hl7.org/CodeSystem/observation-category",
                "code": "laboratory"
              }
            ]
          }
        ],
        "code": {
          "coding": [
            {
              "code": "38483-4",
              "system": "http://loinc.org",
              "display": "Creatinine [Mass/volume] in Blood"
            }
          ],
          "text": "Creatinine [Mass/volume] in Blood"
        },
        "valueQuantity": {
          "system": "http://unitsofmeasure.org",
          "value": 1,
          "unit": "mg/dL",
          "code": "mg/dL"
        },
        "referenceRange": [
          {
            "low": {
              "value": 0.6,
              "code": "mg/dL",
              "system": "http://unitsofmeasure.org"
            }
          },
          {
            "high": {
              "value": 1.3,
              "code": "mg/dL",
              "system": "http://unitsofmeasure.org"
            }
          }
        ],
        "text": {
          "status": "generated",
          "div": "<div xmlns=\"http://www.w3.org/1999/xhtml\"><table class=\"hl7__eu__lab__report\"><tr><th>Test</th><th>10-Sep-2021</th><th>Reference&#xA0;Range</th><th>Unit</th></tr><tr><td>Creatinine [Mass/volume] in Blood</td><td>1.0</td><td>0.6 - 1.3</td><td></td><td>mg/dL</td></tr></table></div>"
        },
        "status": "final",
        "subject": {
          "reference": "urn:uuid:96b35199-3f56-48e8-a042-7bcd008bdebb",
          "display": "Leonhard Köhler"
        },
        "effectiveDateTime": "2021-09-10T02:48:23Z",
        "specimen": {
          "reference": "urn:uuid:6ae92106-0e96-48f2-b28f-e4af9e7dc664"
        }
      }
    },
    {
      "fullUrl": "urn:uuid:7f18f67a-89b5-4511-b555-6255347f0380",
      "resource": {
        "resourceType": "Observation",
        "id": "7f18f67a-89b5-4511-b555-6255347f0380",
        "meta": {
          "profile": [
            "http://hl7.eu/fhir/laboratory/StructureDefinition/Observation-resultslab-eu-lab"
          ]
        },
        "performer": [
          {
            "display": "The Central European Lab"
          }
        ],
        "category": [
          {
            "coding": [
              {
                "system": "http://terminology.hl7.org/CodeSystem/observation-category",
                "code": "laboratory"
              }
            ]
          }
        ],
        "code": {
          "coding": [
            {
              "code": "49765-1",
              "system": "http://loinc.org",
              "display": "Calcium [Mass/volume] in Blood"
            }
          ],
          "text": "Calcium [Mass/volume] in Blood"
        },
        "valueQuantity": {
          "system": "http://unitsofmeasure.org",
          "value": 8.6,
          "unit": "mg/dL",
          "code": "mg/dL"
        },
        "referenceRange": [
          {
            "low": {
              "value": 8.5,
              "code": "mg/dL",
              "system": "http://unitsofmeasure.org"
            }
          },
          {
            "high": {
              "value": 10.5,
              "code": "mg/dL",
              "system": "http://unitsofmeasure.org"
            }
          }
        ],
        "text": {
          "status": "generated",
          "div": "<div xmlns=\"http://www.w3.org/1999/xhtml\"><table class=\"hl7__eu__lab__report\"><tr><th>Test</th><th>10-Sep-2021</th><th>Reference&#xA0;Range</th><th>Unit</th></tr><tr><td>Calcium [Mass/volume] in Blood</td><td>8.6</td><td>8.5 - 10.5</td><td></td><td>mg/dL</td></tr></table></div>"
        },
        "status": "final",
        "subject": {
          "reference": "urn:uuid:96b35199-3f56-48e8-a042-7bcd008bdebb",
          "display": "Leonhard Köhler"
        },
        "effectiveDateTime": "2021-09-10T02:48:23Z",
        "specimen": {
          "reference": "urn:uuid:6ae92106-0e96-48f2-b28f-e4af9e7dc664"
        }
      }
    },
    {
      "fullUrl": "urn:uuid:2f96bafd-645e-4193-9dc1-ac39b03ff1a2",
      "resource": {
        "resourceType": "Observation",
        "id": "2f96bafd-645e-4193-9dc1-ac39b03ff1a2",
        "meta": {
          "profile": [
            "http://hl7.eu/fhir/laboratory/StructureDefinition/Observation-resultslab-eu-lab"
          ]
        },
        "performer": [
          {
            "display": "The Central European Lab"
          }
        ],
        "category": [
          {
            "coding": [
              {
                "system": "http://terminology.hl7.org/CodeSystem/observation-category",
                "code": "laboratory"
              }
            ]
          }
        ],
        "code": {
          "coding": [
            {
              "code": "2947-0",
              "system": "http://loinc.org",
              "display": "Sodium [Moles/volume] in Blood"
            }
          ],
          "text": "Sodium [Moles/volume] in Blood"
        },
        "valueQuantity": {
          "system": "http://unitsofmeasure.org",
          "value": 136.4,
          "unit": "mmol/L",
          "code": "mmol/L"
        },
        "referenceRange": [
          {
            "low": {
              "value": 135,
              "code": "mmol/L",
              "system": "http://unitsofmeasure.org"
            }
          },
          {
            "high": {
              "value": 145,
              "code": "mmol/L",
              "system": "http://unitsofmeasure.org"
            }
          }
        ],
        "text": {
          "status": "generated",
          "div": "<div xmlns=\"http://www.w3.org/1999/xhtml\"><table class=\"hl7__eu__lab__report\"><tr><th>Test</th><th>10-Sep-2021</th><th>Reference&#xA0;Range</th><th>Unit</th></tr><tr><td>Sodium [Moles/volume] in Blood</td><td>136.4</td><td>135 - 145</td><td></td><td>mmol/L</td></tr></table></div>"
        },
        "status": "final",
        "subject": {
          "reference": "urn:uuid:96b35199-3f56-48e8-a042-7bcd008bdebb",
          "display": "Leonhard Köhler"
        },
        "effectiveDateTime": "2021-09-10T02:48:23Z",
        "specimen": {
          "reference": "urn:uuid:6ae92106-0e96-48f2-b28f-e4af9e7dc664"
        }
      }
    },
    {
      "fullUrl": "urn:uuid:4bc1350f-d956-4190-96a2-d1163e8fc350",
      "resource": {
        "resourceType": "Observation",
        "id": "4bc1350f-d956-4190-96a2-d1163e8fc350",
        "meta": {
          "profile": [
            "http://hl7.eu/fhir/laboratory/StructureDefinition/Observation-resultslab-eu-lab"
          ]
        },
        "performer": [
          {
            "display": "The Central European Lab"
          }
        ],
        "category": [
          {
            "coding": [
              {
                "system": "http://terminology.hl7.org/CodeSystem/observation-category",
                "code": "laboratory"
              }
            ]
          }
        ],
        "code": {
          "coding": [
            {
              "code": "6298-4",
              "system": "http://loinc.org",
              "display": "Potassium [Moles/volume] in Blood"
            }
          ],
          "text": "Potassium [Moles/volume] in Blood"
        },
        "valueQuantity": {
          "system": "http://unitsofmeasure.org",
          "value": 4.3,
          "unit": "mmol/L",
          "code": "mmol/L"
        },
        "referenceRange": [
          {
            "low": {
              "value": 3.5,
              "code": "mmol/L",
              "system": "http://unitsofmeasure.org"
            }
          },
          {
            "high": {
              "value": 5.1,
              "code": "mmol/L",
              "system": "http://unitsofmeasure.org"
            }
          }
        ],
        "text": {
          "status": "generated",
          "div": "<div xmlns=\"http://www.w3.org/1999/xhtml\"><table class=\"hl7__eu__lab__report\"><tr><th>Test</th><th>10-Sep-2021</th><th>Reference&#xA0;Range</th><th>Unit</th></tr><tr><td>Potassium [Moles/volume] in Blood</td><td>4.3</td><td>3.5 - 5.1</td><td></td><td>mmol/L</td></tr></table></div>"
        },
        "status": "final",
        "subject": {
          "reference": "urn:uuid:96b35199-3f56-48e8-a042-7bcd008bdebb",
          "display": "Leonhard Köhler"
        },
        "effectiveDateTime": "2021-09-10T02:48:23Z",
        "specimen": {
          "reference": "urn:uuid:6ae92106-0e96-48f2-b28f-e4af9e7dc664"
        }
      }
    },
    {
      "fullUrl": "urn:uuid:c8619a70-2dd6-4129-926b-205c3932f9bd",
      "resource": {
        "resourceType": "Observation",
        "id": "c8619a70-2dd6-4129-926b-205c3932f9bd",
        "meta": {
          "profile": [
            "http://hl7.eu/fhir/laboratory/StructureDefinition/Observation-resultslab-eu-lab"
          ]
        },
        "performer": [
          {
            "display": "The Central European Lab"
          }
        ],
        "category": [
          {
            "coding": [
              {
                "system": "http://terminology.hl7.org/CodeSystem/observation-category",
                "code": "laboratory"
              }
            ]
          }
        ],
        "code": {
          "coding": [
            {
              "code": "2069-3",
              "system": "http://loinc.org",
              "display": "Chloride [Moles/volume] in Blood"
            }
          ],
          "text": "Chloride [Moles/volume] in Blood"
        },
        "valueQuantity": {
          "system": "http://unitsofmeasure.org",
          "value": 106.1,
          "unit": "mmol/L",
          "code": "mmol/L"
        },
        "referenceRange": [
          {
            "low": {
              "value": 98,
              "code": "mmol/L",
              "system": "http://unitsofmeasure.org"
            }
          },
          {
            "high": {
              "value": 108,
              "code": "mmol/L",
              "system": "http://unitsofmeasure.org"
            }
          }
        ],
        "text": {
          "status": "generated",
          "div": "<div xmlns=\"http://www.w3.org/1999/xhtml\"><table class=\"hl7__eu__lab__report\"><tr><th>Test</th><th>10-Sep-2021</th><th>Reference&#xA0;Range</th><th>Unit</th></tr><tr><td>Chloride [Moles/volume] in Blood</td><td>106.1</td><td>98 - 108</td><td></td><td>mmol/L</td></tr></table></div>"
        },
        "status": "final",
        "subject": {
          "reference": "urn:uuid:96b35199-3f56-48e8-a042-7bcd008bdebb",
          "display": "Leonhard Köhler"
        },
        "effectiveDateTime": "2021-09-10T02:48:23Z",
        "specimen": {
          "reference": "urn:uuid:6ae92106-0e96-48f2-b28f-e4af9e7dc664"
        }
      }
    },
    {
      "fullUrl": "urn:uuid:3b878eb2-d0db-453e-b125-06e97d74e781",
      "resource": {
        "resourceType": "Observation",
        "id": "3b878eb2-d0db-453e-b125-06e97d74e781",
        "meta": {
          "profile": [
            "http://hl7.eu/fhir/laboratory/StructureDefinition/Observation-resultslab-eu-lab"
          ]
        },
        "performer": [
          {
            "display": "The Central European Lab"
          }
        ],
        "category": [
          {
            "coding": [
              {
                "system": "http://terminology.hl7.org/CodeSystem/observation-category",
                "code": "laboratory"
              }
            ]
          }
        ],
        "code": {
          "coding": [
            {
              "code": "20565-8",
              "system": "http://loinc.org",
              "display": "Carbon dioxide, total [Moles/volume] in Blood"
            }
          ],
          "text": "Carbon dioxide, total [Moles/volume] in Blood"
        },
        "valueQuantity": {
          "system": "http://unitsofmeasure.org",
          "value": 25.6,
          "unit": "mmol/L",
          "code": "mmol/L"
        },
        "referenceRange": [
          {
            "low": {
              "value": 22,
              "code": "mmol/L",
              "system": "http://unitsofmeasure.org"
            }
          },
          {
            "high": {
              "value": 32,
              "code": "mmol/L",
              "system": "http://unitsofmeasure.org"
            }
          }
        ],
        "text": {
          "status": "generated",
          "div": "<div xmlns=\"http://www.w3.org/1999/xhtml\"><table class=\"hl7__eu__lab__report\"><tr><th>Test</th><th>10-Sep-2021</th><th>Reference&#xA0;Range</th><th>Unit</th></tr><tr><td>Carbon dioxide, total [Moles/volume] in Blood</td><td>25.6</td><td>22 - 32</td><td></td><td>mmol/L</td></tr></table></div>"
        },
        "status": "final",
        "subject": {
          "reference": "urn:uuid:96b35199-3f56-48e8-a042-7bcd008bdebb",
          "display": "Leonhard Köhler"
        },
        "effectiveDateTime": "2021-09-10T02:48:23Z",
        "specimen": {
          "reference": "urn:uuid:6ae92106-0e96-48f2-b28f-e4af9e7dc664"
        }
      }
    },
    {
      "fullUrl": "urn:uuid:4d1fb9fd-69e7-4528-af92-99150dffa003",
      "resource": {
        "resourceType": "Device",
        "id": "4d1fb9fd-69e7-4528-af92-99150dffa003",
        "deviceName": [
          {
            "name": "SYNDERAI Synthetic Generator",
            "type": "manufacturer-name"
          }
        ],
        "version": [
          {
            "value": "5.0"
          }
        ],
        "text": {
          "status": "generated",
          "div": "<div xmlns=\"http://www.w3.org/1999/xhtml\">SYNDERAI Synthetic Generator v5.0</div>"
        },
        "status": "active\"",
        "distinctIdentifier": "synderai-generator-50",
        "manufacturer": "SYNDERAI Project"
      }
    },
    {
      "fullUrl": "urn:uuid:f10d5be9-ff48-4975-aea5-c98e4beedf00",
      "resource": {
        "resourceType": "Provenance",
        "id": "f10d5be9-ff48-4975-aea5-c98e4beedf00",
        "target": [
          {
            "reference": "Patient/96b35199-3f56-48e8-a042-7bcd008bdebb"
          },
          {
            "reference": "Bundle/0e207082-fbec-4c26-bd36-6af3e51e8812"
          },
          {
            "reference": "Composition/e32dc3be-11c0-4794-a58f-071e4c01020f"
          },
          {
            "reference": "PractitionerRole/9884e9f2-51b5-4cda-be4f-13c85de1bae5"
          },
          {
            "reference": "Practitioner/a8f6180a-1ca1-4071-ad3a-01c83ce8d980"
          },
          {
            "reference": "PractitionerRole/c2a54df1-c6a2-49e3-8e91-8aefce2f4558"
          },
          {
            "reference": "Organization/d9abb500-5042-4e15-bf9a-920a28012223"
          }
        ],
        "activity": {
          "text": "Synthetic Example Data Generation"
        },
        "policy": [
          "https://synderai.net/synderai-synthetic-data-policy"
        ],
        "agent": [
          {
            "type": {
              "text": "author"
            },
            "who": {
              "reference": "Device/4d1fb9fd-69e7-4528-af92-99150dffa003"
            }
          }
        ],
        "reason": [
          {
            "text": "Interoperability Testing and Training (non-clinical use)"
          }
        ],
        "text": {
          "status": "generated",
          "div": "<div xmlns=\"http://www.w3.org/1999/xhtml\">Provenance for SYNDERAI Synthetic Example Data Resource</div>"
        },
        "recorded": "2021-09-10T04:48:23Z"
      }
    },
    {
      "fullUrl": "urn:uuid:9884e9f2-51b5-4cda-be4f-13c85de1bae5",
      "resource": {
        "resourceType": "PractitionerRole",
        "id": "9884e9f2-51b5-4cda-be4f-13c85de1bae5",
        "meta": {
          "profile": [
            "http://hl7.eu/fhir/base/StructureDefinition/practitionerRole-eu"
          ]
        },
        "text": {
          "status": "generated",
          "div": "<div xmlns=\"http://www.w3.org/1999/xhtml\">Laboratory Role Id: 9884e9f2-51b5-4cda-be4f-13c85de1bae5</div>"
        },
        "practitioner": {
          "reference": "urn:uuid:a8f6180a-1ca1-4071-ad3a-01c83ce8d980"
        }
      }
    },
    {
      "fullUrl": "urn:uuid:a8f6180a-1ca1-4071-ad3a-01c83ce8d980",
      "resource": {
        "resourceType": "Practitioner",
        "id": "a8f6180a-1ca1-4071-ad3a-01c83ce8d980",
        "meta": {
          "profile": [
            "http://hl7.eu/fhir/base/StructureDefinition/practitioner-eu"
          ]
        },
        "identifier": [
          {
            "assigner": {
              "display": "HL7 Europe"
            },
            "system": "urn:oid:2.16.840.1.113883.2.51.999",
            "value": "0cbeb653-9d94-4782-9306-062d80dd65f1"
          }
        ],
        "name": [
          {
            "prefix": [
              "dr"
            ],
            "given": [
              "Ex"
            ],
            "family": "Ample"
          }
        ],
        "address": [
          {
            "line": [
              "Laboratoire Central Européenne",
              "Boulevard du Jardin Botanique 32"
            ],
            "postalCode": "1000",
            "city": "Brussels",
            "country": "Belgium"
          }
        ],
        "text": {
          "status": "generated",
          "div": "<div xmlns=\"http://www.w3.org/1999/xhtml\">Laboratory: Laboratoire Central Européenne, 1000 Brussels, Belgium</div>"
        }
      }
    }
  ],
  "type": "document",
  "timestamp": "2021-09-10T04:48:23Z"
}
