{
  "resourceType": "Bundle",
  "id": "e043cb1b-155b-41dd-89cc-3412349e028c",
  "meta": {
    "profile": [
      "http://hl7.eu/fhir/laboratory/StructureDefinition/Bundle-eu-lab"
    ]
  },
  "identifier": {
    "assigner": {
      "display": "HL7 Europe"
    },
    "system": "urn:oid:2.16.840.1.113883.2.51.999",
    "value": "465f1e03-0028-465f-aa25-9618859575e5"
  },
  "entry": [
    {
      "fullUrl": "urn:uuid:b42250f1-961f-4e48-a9f0-6e41481cd6fe",
      "resource": {
        "resourceType": "Composition",
        "id": "b42250f1-961f-4e48-a9f0-6e41481cd6fe",
        "meta": {
          "profile": [
            "http://hl7.eu/fhir/laboratory/StructureDefinition/Composition-eu-lab"
          ]
        },
        "identifier": {
          "assigner": {
            "display": "HL7 Europe"
          },
          "system": "urn:oid:2.16.840.1.113883.2.51.999",
          "value": "522b0dfd-66db-4525-a460-391bd95b2712"
        },
        "author": [
          {
            "reference": "urn:uuid:a591ed31-b982-42dd-8e6b-7878b923e595"
          }
        ],
        "category": [
          {
            "coding": [
              {
                "code": "26436-6",
                "system": "http://loinc.org",
                "display": "Laboratory studies (set)"
              }
            ]
          }
        ],
        "type": {
          "coding": [
            {
              "code": "11502-2",
              "system": "http://loinc.org",
              "display": "Laboratory report"
            }
          ],
          "text": "Laboratory Report"
        },
        "section": [
          {
            "code": {
              "coding": [
                {
                  "code": "26436-6",
                  "system": "http://loinc.org",
                  "display": "Laboratory studies (set)"
                }
              ],
              "text": "Laboratory studies"
            },
            "section": [
              {
                "code": {
                  "coding": [
                    {
                      "code": "$18719-5",
                      "system": "http://loinc.org",
                      "display": "Chemistry studies (set)"
                    }
                  ],
                  "text": "Chemistry"
                },
                "entry": [
                  {
                    "reference": "urn:uuid:80b7683c-0cd9-4535-ae25-7dae48490bcd"
                  },
                  {
                    "reference": "urn:uuid:860c61f0-3444-43b4-8289-e5cab068a9bd"
                  },
                  {
                    "reference": "urn:uuid:59ddec3f-4966-41e7-b5b2-25d9524104d5"
                  },
                  {
                    "reference": "urn:uuid:4775b3e8-1479-4473-9b03-70b382adfa19"
                  },
                  {
                    "reference": "urn:uuid:c2b6a2c9-68ca-45e6-bea0-bde1fc02bde7"
                  },
                  {
                    "reference": "urn:uuid:a8bc2398-15cd-4fe3-b4c8-f40fd4f75cda"
                  },
                  {
                    "reference": "urn:uuid:fd27f1ca-6c30-4b60-bfe3-17cc6db35d7c"
                  },
                  {
                    "reference": "urn:uuid:ef9f069d-bc1c-4530-baa8-ebcef71e2537"
                  },
                  {
                    "reference": "urn:uuid:f0361edb-48ad-4c6d-ad7b-5f5da6ec4208"
                  },
                  {
                    "reference": "urn:uuid:54637fde-dccb-47f1-ad56-8613a8a5716c"
                  },
                  {
                    "reference": "urn:uuid:98d7793c-52d3-4b61-8e17-a3c010574b06"
                  },
                  {
                    "reference": "urn:uuid:a0440cf2-e1fc-4987-a97c-d13109174c45"
                  },
                  {
                    "reference": "urn:uuid:313e7ba7-c0bc-4b56-b902-a341216c7b56"
                  },
                  {
                    "reference": "urn:uuid:8eff43ca-e159-4fd7-9366-c32afc8ae1af"
                  },
                  {
                    "reference": "urn:uuid:8a9d79f3-5389-412b-9aa7-ed24e069a568"
                  },
                  {
                    "reference": "urn:uuid:ab0e350c-9769-44dd-b5b0-66dea6e0824d"
                  }
                ],
                "text": {
                  "status": "generated",
                  "div": "<div xmlns=\"http://www.w3.org/1999/xhtml\"><h3>Chemistry</h3><table class=\"hl7__eu__lab__report\"><thead><tr><th>Test</th><th>11-NOV-2015</th><th>Reference&#xA0;Range</th><th>Unit</th></tr></thead><tbody><tr><td>Glucose [Mass/volume] in Blood</td><td>96.0</td><td>70 - 140</td><td>mg/dL</td></tr><tr><td>Urea nitrogen [Mass/volume] in Blood</td><td>19.9</td><td>7 - 30</td><td>mg/dL</td></tr><tr><td>Creatinine [Mass/volume] in Blood</td><td><strong>3.3 H</strong></td><td>0.5 - 1.3</td><td>mg/dL</td></tr><tr><td>Calcium [Mass/volume] in Blood</td><td>8.8</td><td>8.6 - 10.2</td><td>mg/dL</td></tr><tr><td>Sodium [Moles/volume] in Blood</td><td>142.8</td><td>135 - 145</td><td>mmol/L</td></tr><tr><td>Potassium [Moles/volume] in Blood</td><td>3.8</td><td>3.5 - 5.1</td><td>mmol/L</td></tr><tr><td>Chloride [Moles/volume] in Blood</td><td>104.7</td><td>98 - 114</td><td>mmol/L</td></tr><tr><td>Carbon dioxide, total [Moles/volume] in Blood</td><td>23.8</td><td>22 - 32</td><td>mmol/L</td></tr><tr><td>Protein [Mass/volume] in Serum or Plasma</td><td>6.8</td><td>6 - 8.3</td><td>g/dL</td></tr><tr><td>Albumin [Mass/volume] in Serum or Plasma</td><td>5.4</td><td>3.5 - 5.5</td><td>g/dL</td></tr><tr><td>Globulin [Mass/volume] in Serum by calculation</td><td>2.6</td><td>2 - 3.5</td><td>g/L</td></tr><tr><td>Bilirubin.total [Mass/volume] in Serum or Plasma</td><td>0.7</td><td>0.3 - 1.2</td><td>mg/dL</td></tr><tr><td>Alkaline phosphatase [Enzymatic activity/volume] in Serum or Plasma</td><td>77.5</td><td>44 - 142</td><td>U/L</td></tr><tr><td>Alanine aminotransferase [Enzymatic activity/volume] in Serum or Plasma</td><td>36.9</td><td>7 - 40</td><td>U/L</td></tr><tr><td>Aspartate aminotransferase [Enzymatic activity/volume] in Serum or Plasma</td><td>18.8</td><td>10 - 40</td><td>U/L</td></tr><tr><td>Ketones [Presence] in Urine by Test strip</td><td>Urine ketone test = +++</td><td></td><td></td></tr></tbody></table></div>"
                },
                "title": "Chemistry"
              },
              {
                "code": {
                  "coding": [
                    {
                      "code": "$18729-4",
                      "system": "http://loinc.org",
                      "display": "Urinalysis studies (set)"
                    }
                  ],
                  "text": "Urinalysis"
                },
                "entry": [
                  {
                    "reference": "urn:uuid:a88aacc3-c2dc-4022-9645-4733192d84ea"
                  },
                  {
                    "reference": "urn:uuid:88805a9e-b0f3-42d0-9121-6bd6c435cb6e"
                  },
                  {
                    "reference": "urn:uuid:30f332c3-2f4a-44af-be78-76884fc4efb9"
                  },
                  {
                    "reference": "urn:uuid:ff435714-f33d-487f-91d8-c142cc8e56fc"
                  },
                  {
                    "reference": "urn:uuid:37cf4f0e-9c46-4d9d-ac8e-e98346dc36b9"
                  },
                  {
                    "reference": "urn:uuid:62e13c91-fbe3-4e36-96d6-d7ce47567c93"
                  },
                  {
                    "reference": "urn:uuid:32e61b34-fa35-4313-860f-b30a85eef82d"
                  },
                  {
                    "reference": "urn:uuid:90c74109-ab1c-43af-8703-d53343e1f0b7"
                  },
                  {
                    "reference": "urn:uuid:8d3fe3c3-7c63-46cd-8653-de6a44443eb7"
                  },
                  {
                    "reference": "urn:uuid:7ed3fd57-790d-4b17-8271-bb07ca51ec31"
                  },
                  {
                    "reference": "urn:uuid:a243a994-cd85-4d4c-b283-5070c11e2d12"
                  },
                  {
                    "reference": "urn:uuid:be314658-871d-4067-9405-b333f7a03650"
                  }
                ],
                "text": {
                  "status": "generated",
                  "div": "<div xmlns=\"http://www.w3.org/1999/xhtml\"><h3>Urinalysis</h3><table class=\"hl7__eu__lab__report\"><thead><tr><th>Test</th><th>11-NOV-2015</th><th>Reference&#xA0;Range</th><th>Unit</th></tr></thead><tbody><tr><td>Glucose [Mass/volume] in Urine by Test strip</td><td><strong>1.1 H</strong></td><td>0.8 - 0</td><td>mg/dL</td></tr><tr><td>Glucose [Presence] in Urine by Test strip</td><td>++</td><td></td><td></td></tr><tr><td>Bilirubin.total [Mass/volume] in Urine by Test strip</td><td>0.3</td><td>0 - 1.5</td><td>mg/dL</td></tr><tr><td>Bilirubin.total [Presence] in Urine by Test strip</td><td>Finding of bilirubin in urine</td><td></td><td></td></tr><tr><td>Ketones [Mass/volume] in Urine by Test strip</td><td>5.5</td><td>0 - 8</td><td>mg/dL</td></tr><tr><td>Specific gravity of Urine by Test strip</td><td><strong>1.0 L</strong></td><td>1.01 - 1.03</td><td>{nominal}</td></tr><tr><td>pH of Urine by Test strip</td><td>6.8</td><td>4.6 - 7.5</td><td>pH</td></tr><tr><td>Protein [Mass/volume] in Urine by Test strip</td><td><strong>403.5 H</strong></td><td>0 - 14</td><td>mg/dL</td></tr><tr><td>Protein [Presence] in Urine by Test strip</td><td>Urine protein test = +++</td><td></td><td></td></tr><tr><td>Nitrite [Presence] in Urine by Test strip</td><td>Urine nitrite negative</td><td></td><td></td></tr><tr><td>Hemoglobin [Presence] in Urine by Test strip</td><td>Urine blood test = negative</td><td></td><td></td></tr><tr><td>Leukocyte esterase [Presence] in Urine by Test strip</td><td>Urine leukocyte test negative</td><td></td><td></td></tr></tbody></table></div>"
                },
                "title": "Urinalysis"
              },
              {
                "code": {
                  "coding": [
                    {
                      "code": "$LP7846-1",
                      "system": "http://loinc.org",
                      "display": "Specimen information"
                    }
                  ],
                  "text": "Specimen information"
                },
                "entry": [
                  {
                    "reference": "urn:uuid:3a798411-5bb1-493c-9cb8-2ecc620fe107"
                  },
                  {
                    "reference": "urn:uuid:db313358-2fef-441f-a758-db445db247fe"
                  },
                  {
                    "reference": "urn:uuid:b076cc3f-570d-4229-9911-51f29fafe5e1"
                  },
                  {
                    "reference": "urn:uuid:042c7853-f214-4b15-82a2-5c8292835a62"
                  }
                ],
                "text": {
                  "status": "generated",
                  "div": "<div xmlns=\"http://www.w3.org/1999/xhtml\"><h3>Specimen information</h3><table class=\"hl7__eu__lab__report\"><thead><tr><th>Test</th><th>11-NOV-2015</th><th>Specimen</th><th></th></tr></thead><tbody><tr><td>Appearance of Urine</td><td>Cloudy urine</td><td>Urine</td><td></td></tr><tr><td>Odor of Urine</td><td>Urine smell ammoniacal</td><td>Urine</td><td></td></tr><tr><td>Clarity of Urine</td><td>Translucent</td><td>Urine</td><td></td></tr><tr><td>Color of Urine</td><td>Brown color</td><td>Urine</td><td></td></tr></tbody></table></div>"
                },
                "title": "Specimen information"
              }
            ],
            "title": "Laboratory Report"
          },
          {
            "text": {
              "status": "generated",
              "div": "<div xmlns=\"http://www.w3.org/1999/xhtml\"><h3>Annotation</h3><table class=\"hl7__eu__lab__report\"><tr><th>Conclusion and Recommendations based on this report and previous findings known to us</th></tr><tr><td>The patient shows significant renal impairment (elevated creatinine), marked proteinuria, glucosuria, and ketonuria, with low urine specific gravity and abnormal urine appearance (cloudy, brown, ammoniacal). Blood glucose is normal. These findings suggest possible acute or chronic kidney disease with impaired tubular function, and possible nephrotic syndrome or diabetic nephropathy. No evidence of urinary tract infection. Further nephrological evaluation is recommended.</td></tr></table></div>"
            },
            "code": {
              "coding": [
                {
                  "system": "http://loinc.org",
                  "code": "48767-8",
                  "display": "Annotation comment"
                }
              ]
            },
            "title": "Annotation comment"
          }
        ],
        "status": "final",
        "subject": {
          "reference": "urn:uuid:aeb189ea-97dd-4573-8efb-dce6a5773f8f",
          "display": "Maria Nohlmans"
        },
        "date": "2015-11-11T12:01:39Z",
        "title": "Laboratory Report",
        "confidentiality": "N"
      }
    },
    {
      "fullUrl": "urn:uuid:3338d6cd-0caf-4352-807a-bbd4cbf508cc",
      "resource": {
        "resourceType": "DiagnosticReport",
        "id": "3338d6cd-0caf-4352-807a-bbd4cbf508cc",
        "meta": {
          "profile": [
            "http://hl7.eu/fhir/laboratory/StructureDefinition/DiagnosticReport-eu-lab"
          ]
        },
        "identifier": [
          {
            "assigner": {
              "display": "HL7 Europe"
            },
            "system": "urn:oid:2.16.840.1.113883.2.51.999",
            "value": "b245f407-f587-4398-87cb-96c12d72a6d2"
          }
        ],
        "extension": [
          {
            "url": "http://hl7.org/fhir/5.0/StructureDefinition/extension-DiagnosticReport.composition",
            "valueReference": {
              "reference": "urn:uuid:522b0dfd-66db-4525-a460-391bd95b2712"
            }
          }
        ],
        "category": [
          {
            "coding": [
              {
                "code": "26436-6",
                "system": "http://loinc.org",
                "display": "Laboratory studies (set)"
              }
            ]
          }
        ],
        "specimen": [
          {
            "reference": "urn:uuid:9a0d054f-5fa1-4690-95af-0f23bbae6fb3"
          },
          {
            "reference": "urn:uuid:aa1a7f7a-df04-4e01-8474-41854172dbca"
          },
          {
            "reference": "urn:uuid:5c7b94af-81b4-4e58-beb0-f5ffa0372e13"
          },
          {
            "reference": "urn:uuid:60e7c0f6-1cae-45db-95aa-e886c73e483c"
          }
        ],
        "result": [
          {
            "reference": "urn:uuid:80b7683c-0cd9-4535-ae25-7dae48490bcd"
          },
          {
            "reference": "urn:uuid:860c61f0-3444-43b4-8289-e5cab068a9bd"
          },
          {
            "reference": "urn:uuid:59ddec3f-4966-41e7-b5b2-25d9524104d5"
          },
          {
            "reference": "urn:uuid:4775b3e8-1479-4473-9b03-70b382adfa19"
          },
          {
            "reference": "urn:uuid:c2b6a2c9-68ca-45e6-bea0-bde1fc02bde7"
          },
          {
            "reference": "urn:uuid:a8bc2398-15cd-4fe3-b4c8-f40fd4f75cda"
          },
          {
            "reference": "urn:uuid:fd27f1ca-6c30-4b60-bfe3-17cc6db35d7c"
          },
          {
            "reference": "urn:uuid:ef9f069d-bc1c-4530-baa8-ebcef71e2537"
          },
          {
            "reference": "urn:uuid:f0361edb-48ad-4c6d-ad7b-5f5da6ec4208"
          },
          {
            "reference": "urn:uuid:54637fde-dccb-47f1-ad56-8613a8a5716c"
          },
          {
            "reference": "urn:uuid:98d7793c-52d3-4b61-8e17-a3c010574b06"
          },
          {
            "reference": "urn:uuid:a0440cf2-e1fc-4987-a97c-d13109174c45"
          },
          {
            "reference": "urn:uuid:313e7ba7-c0bc-4b56-b902-a341216c7b56"
          },
          {
            "reference": "urn:uuid:8eff43ca-e159-4fd7-9366-c32afc8ae1af"
          },
          {
            "reference": "urn:uuid:8a9d79f3-5389-412b-9aa7-ed24e069a568"
          },
          {
            "reference": "urn:uuid:3a798411-5bb1-493c-9cb8-2ecc620fe107"
          },
          {
            "reference": "urn:uuid:db313358-2fef-441f-a758-db445db247fe"
          },
          {
            "reference": "urn:uuid:b076cc3f-570d-4229-9911-51f29fafe5e1"
          },
          {
            "reference": "urn:uuid:042c7853-f214-4b15-82a2-5c8292835a62"
          },
          {
            "reference": "urn:uuid:a88aacc3-c2dc-4022-9645-4733192d84ea"
          },
          {
            "reference": "urn:uuid:88805a9e-b0f3-42d0-9121-6bd6c435cb6e"
          },
          {
            "reference": "urn:uuid:30f332c3-2f4a-44af-be78-76884fc4efb9"
          },
          {
            "reference": "urn:uuid:ff435714-f33d-487f-91d8-c142cc8e56fc"
          },
          {
            "reference": "urn:uuid:37cf4f0e-9c46-4d9d-ac8e-e98346dc36b9"
          },
          {
            "reference": "urn:uuid:ab0e350c-9769-44dd-b5b0-66dea6e0824d"
          },
          {
            "reference": "urn:uuid:62e13c91-fbe3-4e36-96d6-d7ce47567c93"
          },
          {
            "reference": "urn:uuid:32e61b34-fa35-4313-860f-b30a85eef82d"
          },
          {
            "reference": "urn:uuid:90c74109-ab1c-43af-8703-d53343e1f0b7"
          },
          {
            "reference": "urn:uuid:8d3fe3c3-7c63-46cd-8653-de6a44443eb7"
          },
          {
            "reference": "urn:uuid:7ed3fd57-790d-4b17-8271-bb07ca51ec31"
          },
          {
            "reference": "urn:uuid:a243a994-cd85-4d4c-b283-5070c11e2d12"
          },
          {
            "reference": "urn:uuid:be314658-871d-4067-9405-b333f7a03650"
          }
        ],
        "status": "registered",
        "code": {
          "coding": [
            {
              "code": "11502-2",
              "system": "http://loinc.org",
              "display": "Laboratory report"
            }
          ]
        },
        "subject": {
          "reference": "urn:uuid:aeb189ea-97dd-4573-8efb-dce6a5773f8f",
          "display": "Maria Nohlmans"
        }
      }
    },
    {
      "fullUrl": "urn:uuid:aeb189ea-97dd-4573-8efb-dce6a5773f8f",
      "resource": {
        "resourceType": "Patient",
        "id": "aeb189ea-97dd-4573-8efb-dce6a5773f8f",
        "meta": {
          "security": [
            {
              "system": "http://terminology.hl7.org/CodeSystem/v3-ActReason",
              "code": "HTEST"
            },
            {
              "system": "http://terminology.hl7.org/CodeSystem/v3-ActReason",
              "code": "TRAIN"
            }
          ],
          "tag": [
            {
              "system": "https://synderai.net/fhir/CodeSystem/tags",
              "code": "synthetic",
              "display": "SYNDERAI Synthetic data"
            }
          ],
          "profile": [
            "http://hl7.eu/fhir/base/StructureDefinition/patient-eu-core"
          ]
        },
        "identifier": [
          {
            "type": {
              "coding": [
                {
                  "code": "PT",
                  "system": "http://terminology.hl7.org/CodeSystem/v2-0203"
                }
              ]
            },
            "system": "http://ec.europa.eu/identifier/eci",
            "value": "6886-506417-1"
          },
          {
            "type": {
              "coding": [
                {
                  "code": "MR",
                  "system": "http://terminology.hl7.org/CodeSystem/v2-0203"
                }
              ]
            },
            "system": "http://local.setting.eu/identifier",
            "value": "2cb21ed6-b617-b1f3-2290-589a710de5ee"
          }
        ],
        "name": [
          {
            "family": "Nohlmans"
          },
          {
            "given": [
              "Maria"
            ]
          },
          {
            "text": "Maria Nohlmans"
          }
        ],
        "address": [
          {
            "line": [
              "Alfons-Wulff-Weg 1"
            ],
            "use": "home",
            "type": "physical",
            "postalCode": "25813",
            "city": "Husum",
            "country": "Germany"
          }
        ],
        "telecom": [
          {
            "system": "phone",
            "value": "+49(0)1911 105501"
          }
        ],
        "extension": [
          {
            "url": "http://hl7.org/fhir/StructureDefinition/patient-nationality",
            "valueCodeableConcept": {
              "coding": [
                {
                  "code": "DE",
                  "system": "http://hl7.org/fhir/ValueSet/country"
                }
              ]
            }
          }
        ],
        "text": {
          "status": "generated",
          "div": "<div xmlns=\"http://www.w3.org/1999/xhtml\"><table class=\"hl7__ips\"><tr><td>Maria Nohlmans</td><td>female</td><td>11-Jun-1947</td></tr></table></div>"
        },
        "gender": "female",
        "birthDate": "1947-06-11"
      }
    },
    {
      "fullUrl": "urn:uuid:38c5c40c-39a1-430d-b7e4-23de337c9329",
      "resource": {
        "resourceType": "ServiceRequest",
        "id": "38c5c40c-39a1-430d-b7e4-23de337c9329",
        "meta": {
          "profile": [
            "http://hl7.eu/fhir/laboratory/StructureDefinition/ServiceRequest-eu-lab"
          ]
        },
        "identifier": [
          {
            "system": "http://example.org",
            "value": "2e51db3f-048b-4cf1-ace6-aaa667629b87"
          }
        ],
        "specimen": [
          {
            "reference": "urn:uuid:9a0d054f-5fa1-4690-95af-0f23bbae6fb3"
          },
          {
            "reference": "urn:uuid:aa1a7f7a-df04-4e01-8474-41854172dbca"
          },
          {
            "reference": "urn:uuid:5c7b94af-81b4-4e58-beb0-f5ffa0372e13"
          },
          {
            "reference": "urn:uuid:60e7c0f6-1cae-45db-95aa-e886c73e483c"
          }
        ],
        "reasonCode": [
          {
            "coding": [
              {
                "code": "401314000",
                "system": "http://snomed.info/sct",
                "display": "Acute non-ST segment elevation myocardial infarction"
              }
            ]
          },
          {
            "coding": [
              {
                "code": "157141000119108",
                "system": "http://snomed.info/sct",
                "display": "Proteinuria due to type 2 diabetes mellitus"
              }
            ]
          },
          {
            "coding": [
              {
                "code": "237602007",
                "system": "http://snomed.info/sct",
                "display": "Metabolic syndrome X"
              }
            ]
          },
          {
            "coding": [
              {
                "code": "90781000119102",
                "system": "http://snomed.info/sct",
                "display": "Microalbuminuria due to type 2 diabetes mellitus"
              }
            ]
          },
          {
            "coding": [
              {
                "code": "127013003",
                "system": "http://snomed.info/sct",
                "display": "Disorder of kidney due to diabetes mellitus"
              }
            ]
          },
          {
            "coding": [
              {
                "code": "59621000",
                "system": "http://snomed.info/sct",
                "display": "Essential hypertension"
              }
            ]
          },
          {
            "coding": [
              {
                "code": "271737000",
                "system": "http://snomed.info/sct",
                "display": "Anemia"
              }
            ]
          },
          {
            "coding": [
              {
                "code": "15777000",
                "system": "http://snomed.info/sct",
                "display": "Prediabetes"
              }
            ]
          }
        ],
        "status": "active",
        "intent": "order",
        "code": {
          "coding": [
            {
              "code": "108252007",
              "system": "http://snomed.info/sct",
              "display": "Laboratory procedure"
            }
          ]
        },
        "subject": {
          "reference": "urn:uuid:aeb189ea-97dd-4573-8efb-dce6a5773f8f",
          "display": "Maria Nohlmans"
        },
        "requester": {
          "reference": "urn:uuid:bdc3c73b-ceb2-402d-a137-944ebb0cddab"
        }
      }
    },
    {
      "fullUrl": "urn:uuid:bdc3c73b-ceb2-402d-a137-944ebb0cddab",
      "resource": {
        "resourceType": "PractitionerRole",
        "id": "bdc3c73b-ceb2-402d-a137-944ebb0cddab",
        "meta": {
          "profile": [
            "http://hl7.eu/fhir/base/StructureDefinition/practitionerRole-eu"
          ]
        },
        "text": {
          "status": "generated",
          "div": "<div xmlns=\"http://www.w3.org/1999/xhtml\">Provider Role Id: bdc3c73b-ceb2-402d-a137-944ebb0cddab</div>"
        },
        "organization": {
          "reference": "urn:uuid:08945fa4-ffcc-4bba-b706-8dda8c8955de"
        }
      }
    },
    {
      "fullUrl": "urn:uuid:08945fa4-ffcc-4bba-b706-8dda8c8955de",
      "resource": {
        "resourceType": "Organization",
        "id": "08945fa4-ffcc-4bba-b706-8dda8c8955de",
        "meta": {
          "profile": [
            "http://hl7.eu/fhir/base/StructureDefinition/organization-eu"
          ]
        },
        "identifier": [
          {
            "assigner": {
              "display": "HL7 Europe"
            },
            "system": "urn:oid:2.16.840.1.113883.2.51.999",
            "value": "ceb629ea-4366-44a0-b83a-3b1090ca2545"
          }
        ],
        "address": [
          {
            "line": [
              "Brinckmannstraße 35"
            ],
            "city": "Husum",
            "postalCode": "25813",
            "country": "Germany"
          }
        ],
        "text": {
          "status": "generated",
          "div": "<div xmlns=\"http://www.w3.org/1999/xhtml\">Provider Organization: Dr. Wolfram Hussels Kieferorthopäde</div>"
        },
        "name": "Dr. Wolfram Hussels Kieferorthopäde"
      }
    },
    {
      "fullUrl": "urn:uuid:9a0d054f-5fa1-4690-95af-0f23bbae6fb3",
      "resource": {
        "resourceType": "Specimen",
        "id": "9a0d054f-5fa1-4690-95af-0f23bbae6fb3",
        "meta": {
          "profile": [
            "http://hl7.eu/fhir/laboratory/StructureDefinition/Specimen-eu-lab"
          ]
        },
        "collection": {
          "collectedDateTime": "2015-11-11"
        },
        "text": {
          "status": "generated",
          "div": "<div xmlns=\"http://www.w3.org/1999/xhtml\"><table class=\"hl7__eu__lab__report\"><tr><th>Specimen</th><th>Collection Date</th></tr><tr><td>Whole blood specimen (specimen)</td><td><span class=\"nb\">11-Nov-2015</span></td></tr></table></div>"
        },
        "type": {
          "coding": [
            {
              "code": "258580003",
              "system": "http://snomed.info/sct",
              "display": "Whole blood specimen (specimen)"
            }
          ]
        }
      }
    },
    {
      "fullUrl": "urn:uuid:aa1a7f7a-df04-4e01-8474-41854172dbca",
      "resource": {
        "resourceType": "Specimen",
        "id": "aa1a7f7a-df04-4e01-8474-41854172dbca",
        "meta": {
          "profile": [
            "http://hl7.eu/fhir/laboratory/StructureDefinition/Specimen-eu-lab"
          ]
        },
        "collection": {
          "collectedDateTime": "2015-11-11"
        },
        "text": {
          "status": "generated",
          "div": "<div xmlns=\"http://www.w3.org/1999/xhtml\"><table class=\"hl7__eu__lab__report\"><tr><th>Specimen</th><th>Collection Date</th></tr><tr><td>Acellular blood (serum or plasma) specimen</td><td><span class=\"nb\">11-Nov-2015</span></td></tr></table></div>"
        },
        "type": {
          "coding": [
            {
              "code": "122592007",
              "system": "http://snomed.info/sct",
              "display": "Acellular blood (serum or plasma) specimen"
            }
          ]
        }
      }
    },
    {
      "fullUrl": "urn:uuid:5c7b94af-81b4-4e58-beb0-f5ffa0372e13",
      "resource": {
        "resourceType": "Specimen",
        "id": "5c7b94af-81b4-4e58-beb0-f5ffa0372e13",
        "meta": {
          "profile": [
            "http://hl7.eu/fhir/laboratory/StructureDefinition/Specimen-eu-lab"
          ]
        },
        "collection": {
          "collectedDateTime": "2015-11-11"
        },
        "text": {
          "status": "generated",
          "div": "<div xmlns=\"http://www.w3.org/1999/xhtml\"><table class=\"hl7__eu__lab__report\"><tr><th>Specimen</th><th>Collection Date</th></tr><tr><td>Serum specimen</td><td><span class=\"nb\">11-Nov-2015</span></td></tr></table></div>"
        },
        "type": {
          "coding": [
            {
              "code": "119364003",
              "system": "http://snomed.info/sct",
              "display": "Serum specimen"
            }
          ]
        }
      }
    },
    {
      "fullUrl": "urn:uuid:60e7c0f6-1cae-45db-95aa-e886c73e483c",
      "resource": {
        "resourceType": "Specimen",
        "id": "60e7c0f6-1cae-45db-95aa-e886c73e483c",
        "meta": {
          "profile": [
            "http://hl7.eu/fhir/laboratory/StructureDefinition/Specimen-eu-lab"
          ]
        },
        "collection": {
          "collectedDateTime": "2015-11-11"
        },
        "text": {
          "status": "generated",
          "div": "<div xmlns=\"http://www.w3.org/1999/xhtml\"><table class=\"hl7__eu__lab__report\"><tr><th>Specimen</th><th>Collection Date</th></tr><tr><td>Urine specimen</td><td><span class=\"nb\">11-Nov-2015</span></td></tr></table></div>"
        },
        "type": {
          "coding": [
            {
              "code": "122575003",
              "system": "http://snomed.info/sct",
              "display": "Urine specimen"
            }
          ]
        }
      }
    },
    {
      "fullUrl": "urn:uuid:80b7683c-0cd9-4535-ae25-7dae48490bcd",
      "resource": {
        "resourceType": "Observation",
        "id": "80b7683c-0cd9-4535-ae25-7dae48490bcd",
        "meta": {
          "profile": [
            "http://hl7.eu/fhir/laboratory/StructureDefinition/Observation-resultslab-eu-lab"
          ]
        },
        "performer": [
          {
            "display": "The Central European Lab"
          }
        ],
        "category": [
          {
            "coding": [
              {
                "system": "http://terminology.hl7.org/CodeSystem/observation-category",
                "code": "laboratory"
              }
            ]
          }
        ],
        "code": {
          "coding": [
            {
              "code": "2339-0",
              "system": "http://loinc.org",
              "display": "Glucose [Mass/volume] in Blood"
            }
          ],
          "text": "Glucose [Mass/volume] in Blood"
        },
        "valueQuantity": {
          "system": "http://unitsofmeasure.org",
          "value": 96,
          "unit": "mg/dL",
          "code": "mg/dL"
        },
        "referenceRange": [
          {
            "low": {
              "value": 70,
              "code": "mg/dL",
              "system": "http://unitsofmeasure.org"
            }
          },
          {
            "high": {
              "value": 140,
              "code": "mg/dL",
              "system": "http://unitsofmeasure.org"
            }
          }
        ],
        "text": {
          "status": "generated",
          "div": "<div xmlns=\"http://www.w3.org/1999/xhtml\"><table class=\"hl7__eu__lab__report\"><tr><th>Test</th><th>11-Nov-2015</th><th>Reference&#xA0;Range</th><th>Unit</th></tr><tr><td>Glucose [Mass/volume] in Blood</td><td>96.0</td><td>70 - 140</td><td></td><td>mg/dL</td></tr></table></div>"
        },
        "status": "final",
        "subject": {
          "reference": "urn:uuid:aeb189ea-97dd-4573-8efb-dce6a5773f8f",
          "display": "Maria Nohlmans"
        },
        "effectiveDateTime": "2015-11-11T11:01:39Z",
        "specimen": {
          "reference": "urn:uuid:9a0d054f-5fa1-4690-95af-0f23bbae6fb3"
        }
      }
    },
    {
      "fullUrl": "urn:uuid:860c61f0-3444-43b4-8289-e5cab068a9bd",
      "resource": {
        "resourceType": "Observation",
        "id": "860c61f0-3444-43b4-8289-e5cab068a9bd",
        "meta": {
          "profile": [
            "http://hl7.eu/fhir/laboratory/StructureDefinition/Observation-resultslab-eu-lab"
          ]
        },
        "performer": [
          {
            "display": "The Central European Lab"
          }
        ],
        "category": [
          {
            "coding": [
              {
                "system": "http://terminology.hl7.org/CodeSystem/observation-category",
                "code": "laboratory"
              }
            ]
          }
        ],
        "code": {
          "coding": [
            {
              "code": "6299-2",
              "system": "http://loinc.org",
              "display": "Urea nitrogen [Mass/volume] in Blood"
            }
          ],
          "text": "Urea nitrogen [Mass/volume] in Blood"
        },
        "valueQuantity": {
          "system": "http://unitsofmeasure.org",
          "value": 19.9,
          "unit": "mg/dL",
          "code": "mg/dL"
        },
        "referenceRange": [
          {
            "low": {
              "value": 7,
              "code": "mg/dL",
              "system": "http://unitsofmeasure.org"
            }
          },
          {
            "high": {
              "value": 30,
              "code": "mg/dL",
              "system": "http://unitsofmeasure.org"
            }
          }
        ],
        "text": {
          "status": "generated",
          "div": "<div xmlns=\"http://www.w3.org/1999/xhtml\"><table class=\"hl7__eu__lab__report\"><tr><th>Test</th><th>11-Nov-2015</th><th>Reference&#xA0;Range</th><th>Unit</th></tr><tr><td>Urea nitrogen [Mass/volume] in Blood</td><td>19.9</td><td>7 - 30</td><td></td><td>mg/dL</td></tr></table></div>"
        },
        "status": "final",
        "subject": {
          "reference": "urn:uuid:aeb189ea-97dd-4573-8efb-dce6a5773f8f",
          "display": "Maria Nohlmans"
        },
        "effectiveDateTime": "2015-11-11T11:01:39Z",
        "specimen": {
          "reference": "urn:uuid:9a0d054f-5fa1-4690-95af-0f23bbae6fb3"
        }
      }
    },
    {
      "fullUrl": "urn:uuid:59ddec3f-4966-41e7-b5b2-25d9524104d5",
      "resource": {
        "resourceType": "Observation",
        "id": "59ddec3f-4966-41e7-b5b2-25d9524104d5",
        "meta": {
          "profile": [
            "http://hl7.eu/fhir/laboratory/StructureDefinition/Observation-resultslab-eu-lab"
          ]
        },
        "performer": [
          {
            "display": "The Central European Lab"
          }
        ],
        "category": [
          {
            "coding": [
              {
                "system": "http://terminology.hl7.org/CodeSystem/observation-category",
                "code": "laboratory"
              }
            ]
          }
        ],
        "code": {
          "coding": [
            {
              "code": "38483-4",
              "system": "http://loinc.org",
              "display": "Creatinine [Mass/volume] in Blood"
            }
          ],
          "text": "Creatinine [Mass/volume] in Blood"
        },
        "valueQuantity": {
          "system": "http://unitsofmeasure.org",
          "value": 3.3,
          "unit": "mg/dL",
          "code": "mg/dL"
        },
        "referenceRange": [
          {
            "low": {
              "value": 0.5,
              "code": "mg/dL",
              "system": "http://unitsofmeasure.org"
            }
          },
          {
            "high": {
              "value": 1.3,
              "code": "mg/dL",
              "system": "http://unitsofmeasure.org"
            }
          }
        ],
        "interpretation": [
          {
            "coding": [
              {
                "code": "H",
                "system": "http://terminology.hl7.org/CodeSystem/v3-ObservationInterpretation",
                "display": "High"
              }
            ]
          }
        ],
        "text": {
          "status": "generated",
          "div": "<div xmlns=\"http://www.w3.org/1999/xhtml\"><table class=\"hl7__eu__lab__report\"><tr><th>Test</th><th>11-Nov-2015</th><th>Reference&#xA0;Range</th><th>Unit</th></tr><tr><td>Creatinine [Mass/volume] in Blood</td><td>3.3</td><td>0.5 - 1.3</td><td>H</td><td>mg/dL</td></tr></table></div>"
        },
        "status": "final",
        "subject": {
          "reference": "urn:uuid:aeb189ea-97dd-4573-8efb-dce6a5773f8f",
          "display": "Maria Nohlmans"
        },
        "effectiveDateTime": "2015-11-11T11:01:39Z",
        "specimen": {
          "reference": "urn:uuid:9a0d054f-5fa1-4690-95af-0f23bbae6fb3"
        }
      }
    },
    {
      "fullUrl": "urn:uuid:4775b3e8-1479-4473-9b03-70b382adfa19",
      "resource": {
        "resourceType": "Observation",
        "id": "4775b3e8-1479-4473-9b03-70b382adfa19",
        "meta": {
          "profile": [
            "http://hl7.eu/fhir/laboratory/StructureDefinition/Observation-resultslab-eu-lab"
          ]
        },
        "performer": [
          {
            "display": "The Central European Lab"
          }
        ],
        "category": [
          {
            "coding": [
              {
                "system": "http://terminology.hl7.org/CodeSystem/observation-category",
                "code": "laboratory"
              }
            ]
          }
        ],
        "code": {
          "coding": [
            {
              "code": "49765-1",
              "system": "http://loinc.org",
              "display": "Calcium [Mass/volume] in Blood"
            }
          ],
          "text": "Calcium [Mass/volume] in Blood"
        },
        "valueQuantity": {
          "system": "http://unitsofmeasure.org",
          "value": 8.8,
          "unit": "mg/dL",
          "code": "mg/dL"
        },
        "referenceRange": [
          {
            "low": {
              "value": 8.6,
              "code": "mg/dL",
              "system": "http://unitsofmeasure.org"
            }
          },
          {
            "high": {
              "value": 10.2,
              "code": "mg/dL",
              "system": "http://unitsofmeasure.org"
            }
          }
        ],
        "text": {
          "status": "generated",
          "div": "<div xmlns=\"http://www.w3.org/1999/xhtml\"><table class=\"hl7__eu__lab__report\"><tr><th>Test</th><th>11-Nov-2015</th><th>Reference&#xA0;Range</th><th>Unit</th></tr><tr><td>Calcium [Mass/volume] in Blood</td><td>8.8</td><td>8.6 - 10.2</td><td></td><td>mg/dL</td></tr></table></div>"
        },
        "status": "final",
        "subject": {
          "reference": "urn:uuid:aeb189ea-97dd-4573-8efb-dce6a5773f8f",
          "display": "Maria Nohlmans"
        },
        "effectiveDateTime": "2015-11-11T11:01:39Z",
        "specimen": {
          "reference": "urn:uuid:9a0d054f-5fa1-4690-95af-0f23bbae6fb3"
        }
      }
    },
    {
      "fullUrl": "urn:uuid:c2b6a2c9-68ca-45e6-bea0-bde1fc02bde7",
      "resource": {
        "resourceType": "Observation",
        "id": "c2b6a2c9-68ca-45e6-bea0-bde1fc02bde7",
        "meta": {
          "profile": [
            "http://hl7.eu/fhir/laboratory/StructureDefinition/Observation-resultslab-eu-lab"
          ]
        },
        "performer": [
          {
            "display": "The Central European Lab"
          }
        ],
        "category": [
          {
            "coding": [
              {
                "system": "http://terminology.hl7.org/CodeSystem/observation-category",
                "code": "laboratory"
              }
            ]
          }
        ],
        "code": {
          "coding": [
            {
              "code": "2947-0",
              "system": "http://loinc.org",
              "display": "Sodium [Moles/volume] in Blood"
            }
          ],
          "text": "Sodium [Moles/volume] in Blood"
        },
        "valueQuantity": {
          "system": "http://unitsofmeasure.org",
          "value": 142.8,
          "unit": "mmol/L",
          "code": "mmol/L"
        },
        "referenceRange": [
          {
            "low": {
              "value": 135,
              "code": "mmol/L",
              "system": "http://unitsofmeasure.org"
            }
          },
          {
            "high": {
              "value": 145,
              "code": "mmol/L",
              "system": "http://unitsofmeasure.org"
            }
          }
        ],
        "text": {
          "status": "generated",
          "div": "<div xmlns=\"http://www.w3.org/1999/xhtml\"><table class=\"hl7__eu__lab__report\"><tr><th>Test</th><th>11-Nov-2015</th><th>Reference&#xA0;Range</th><th>Unit</th></tr><tr><td>Sodium [Moles/volume] in Blood</td><td>142.8</td><td>135 - 145</td><td></td><td>mmol/L</td></tr></table></div>"
        },
        "status": "final",
        "subject": {
          "reference": "urn:uuid:aeb189ea-97dd-4573-8efb-dce6a5773f8f",
          "display": "Maria Nohlmans"
        },
        "effectiveDateTime": "2015-11-11T11:01:39Z",
        "specimen": {
          "reference": "urn:uuid:9a0d054f-5fa1-4690-95af-0f23bbae6fb3"
        }
      }
    },
    {
      "fullUrl": "urn:uuid:a8bc2398-15cd-4fe3-b4c8-f40fd4f75cda",
      "resource": {
        "resourceType": "Observation",
        "id": "a8bc2398-15cd-4fe3-b4c8-f40fd4f75cda",
        "meta": {
          "profile": [
            "http://hl7.eu/fhir/laboratory/StructureDefinition/Observation-resultslab-eu-lab"
          ]
        },
        "performer": [
          {
            "display": "The Central European Lab"
          }
        ],
        "category": [
          {
            "coding": [
              {
                "system": "http://terminology.hl7.org/CodeSystem/observation-category",
                "code": "laboratory"
              }
            ]
          }
        ],
        "code": {
          "coding": [
            {
              "code": "6298-4",
              "system": "http://loinc.org",
              "display": "Potassium [Moles/volume] in Blood"
            }
          ],
          "text": "Potassium [Moles/volume] in Blood"
        },
        "valueQuantity": {
          "system": "http://unitsofmeasure.org",
          "value": 3.8,
          "unit": "mmol/L",
          "code": "mmol/L"
        },
        "referenceRange": [
          {
            "low": {
              "value": 3.5,
              "code": "mmol/L",
              "system": "http://unitsofmeasure.org"
            }
          },
          {
            "high": {
              "value": 5.1,
              "code": "mmol/L",
              "system": "http://unitsofmeasure.org"
            }
          }
        ],
        "text": {
          "status": "generated",
          "div": "<div xmlns=\"http://www.w3.org/1999/xhtml\"><table class=\"hl7__eu__lab__report\"><tr><th>Test</th><th>11-Nov-2015</th><th>Reference&#xA0;Range</th><th>Unit</th></tr><tr><td>Potassium [Moles/volume] in Blood</td><td>3.8</td><td>3.5 - 5.1</td><td></td><td>mmol/L</td></tr></table></div>"
        },
        "status": "final",
        "subject": {
          "reference": "urn:uuid:aeb189ea-97dd-4573-8efb-dce6a5773f8f",
          "display": "Maria Nohlmans"
        },
        "effectiveDateTime": "2015-11-11T11:01:39Z",
        "specimen": {
          "reference": "urn:uuid:9a0d054f-5fa1-4690-95af-0f23bbae6fb3"
        }
      }
    },
    {
      "fullUrl": "urn:uuid:fd27f1ca-6c30-4b60-bfe3-17cc6db35d7c",
      "resource": {
        "resourceType": "Observation",
        "id": "fd27f1ca-6c30-4b60-bfe3-17cc6db35d7c",
        "meta": {
          "profile": [
            "http://hl7.eu/fhir/laboratory/StructureDefinition/Observation-resultslab-eu-lab"
          ]
        },
        "performer": [
          {
            "display": "The Central European Lab"
          }
        ],
        "category": [
          {
            "coding": [
              {
                "system": "http://terminology.hl7.org/CodeSystem/observation-category",
                "code": "laboratory"
              }
            ]
          }
        ],
        "code": {
          "coding": [
            {
              "code": "2069-3",
              "system": "http://loinc.org",
              "display": "Chloride [Moles/volume] in Blood"
            }
          ],
          "text": "Chloride [Moles/volume] in Blood"
        },
        "valueQuantity": {
          "system": "http://unitsofmeasure.org",
          "value": 104.7,
          "unit": "mmol/L",
          "code": "mmol/L"
        },
        "referenceRange": [
          {
            "low": {
              "value": 98,
              "code": "mmol/L",
              "system": "http://unitsofmeasure.org"
            }
          },
          {
            "high": {
              "value": 114,
              "code": "mmol/L",
              "system": "http://unitsofmeasure.org"
            }
          }
        ],
        "text": {
          "status": "generated",
          "div": "<div xmlns=\"http://www.w3.org/1999/xhtml\"><table class=\"hl7__eu__lab__report\"><tr><th>Test</th><th>11-Nov-2015</th><th>Reference&#xA0;Range</th><th>Unit</th></tr><tr><td>Chloride [Moles/volume] in Blood</td><td>104.7</td><td>98 - 114</td><td></td><td>mmol/L</td></tr></table></div>"
        },
        "status": "final",
        "subject": {
          "reference": "urn:uuid:aeb189ea-97dd-4573-8efb-dce6a5773f8f",
          "display": "Maria Nohlmans"
        },
        "effectiveDateTime": "2015-11-11T11:01:39Z",
        "specimen": {
          "reference": "urn:uuid:9a0d054f-5fa1-4690-95af-0f23bbae6fb3"
        }
      }
    },
    {
      "fullUrl": "urn:uuid:ef9f069d-bc1c-4530-baa8-ebcef71e2537",
      "resource": {
        "resourceType": "Observation",
        "id": "ef9f069d-bc1c-4530-baa8-ebcef71e2537",
        "meta": {
          "profile": [
            "http://hl7.eu/fhir/laboratory/StructureDefinition/Observation-resultslab-eu-lab"
          ]
        },
        "performer": [
          {
            "display": "The Central European Lab"
          }
        ],
        "category": [
          {
            "coding": [
              {
                "system": "http://terminology.hl7.org/CodeSystem/observation-category",
                "code": "laboratory"
              }
            ]
          }
        ],
        "code": {
          "coding": [
            {
              "code": "20565-8",
              "system": "http://loinc.org",
              "display": "Carbon dioxide, total [Moles/volume] in Blood"
            }
          ],
          "text": "Carbon dioxide, total [Moles/volume] in Blood"
        },
        "valueQuantity": {
          "system": "http://unitsofmeasure.org",
          "value": 23.8,
          "unit": "mmol/L",
          "code": "mmol/L"
        },
        "referenceRange": [
          {
            "low": {
              "value": 22,
              "code": "mmol/L",
              "system": "http://unitsofmeasure.org"
            }
          },
          {
            "high": {
              "value": 32,
              "code": "mmol/L",
              "system": "http://unitsofmeasure.org"
            }
          }
        ],
        "text": {
          "status": "generated",
          "div": "<div xmlns=\"http://www.w3.org/1999/xhtml\"><table class=\"hl7__eu__lab__report\"><tr><th>Test</th><th>11-Nov-2015</th><th>Reference&#xA0;Range</th><th>Unit</th></tr><tr><td>Carbon dioxide, total [Moles/volume] in Blood</td><td>23.8</td><td>22 - 32</td><td></td><td>mmol/L</td></tr></table></div>"
        },
        "status": "final",
        "subject": {
          "reference": "urn:uuid:aeb189ea-97dd-4573-8efb-dce6a5773f8f",
          "display": "Maria Nohlmans"
        },
        "effectiveDateTime": "2015-11-11T11:01:39Z",
        "specimen": {
          "reference": "urn:uuid:9a0d054f-5fa1-4690-95af-0f23bbae6fb3"
        }
      }
    },
    {
      "fullUrl": "urn:uuid:f0361edb-48ad-4c6d-ad7b-5f5da6ec4208",
      "resource": {
        "resourceType": "Observation",
        "id": "f0361edb-48ad-4c6d-ad7b-5f5da6ec4208",
        "meta": {
          "profile": [
            "http://hl7.eu/fhir/laboratory/StructureDefinition/Observation-resultslab-eu-lab"
          ]
        },
        "performer": [
          {
            "display": "The Central European Lab"
          }
        ],
        "category": [
          {
            "coding": [
              {
                "system": "http://terminology.hl7.org/CodeSystem/observation-category",
                "code": "laboratory"
              }
            ]
          }
        ],
        "code": {
          "coding": [
            {
              "code": "2885-2",
              "system": "http://loinc.org",
              "display": "Protein [Mass/volume] in Serum or Plasma"
            }
          ],
          "text": "Protein [Mass/volume] in Serum or Plasma"
        },
        "valueQuantity": {
          "system": "http://unitsofmeasure.org",
          "value": 6.8,
          "unit": "g/dL",
          "code": "g/dL"
        },
        "referenceRange": [
          {
            "low": {
              "value": 6,
              "code": "g/dL",
              "system": "http://unitsofmeasure.org"
            }
          },
          {
            "high": {
              "value": 8.3,
              "code": "g/dL",
              "system": "http://unitsofmeasure.org"
            }
          }
        ],
        "text": {
          "status": "generated",
          "div": "<div xmlns=\"http://www.w3.org/1999/xhtml\"><table class=\"hl7__eu__lab__report\"><tr><th>Test</th><th>11-Nov-2015</th><th>Reference&#xA0;Range</th><th>Unit</th></tr><tr><td>Protein [Mass/volume] in Serum or Plasma</td><td>6.8</td><td>6 - 8.3</td><td></td><td>g/dL</td></tr></table></div>"
        },
        "status": "final",
        "subject": {
          "reference": "urn:uuid:aeb189ea-97dd-4573-8efb-dce6a5773f8f",
          "display": "Maria Nohlmans"
        },
        "effectiveDateTime": "2015-11-11T11:01:39Z",
        "specimen": {
          "reference": "urn:uuid:aa1a7f7a-df04-4e01-8474-41854172dbca"
        }
      }
    },
    {
      "fullUrl": "urn:uuid:54637fde-dccb-47f1-ad56-8613a8a5716c",
      "resource": {
        "resourceType": "Observation",
        "id": "54637fde-dccb-47f1-ad56-8613a8a5716c",
        "meta": {
          "profile": [
            "http://hl7.eu/fhir/laboratory/StructureDefinition/Observation-resultslab-eu-lab"
          ]
        },
        "performer": [
          {
            "display": "The Central European Lab"
          }
        ],
        "category": [
          {
            "coding": [
              {
                "system": "http://terminology.hl7.org/CodeSystem/observation-category",
                "code": "laboratory"
              }
            ]
          }
        ],
        "code": {
          "coding": [
            {
              "code": "1751-7",
              "system": "http://loinc.org",
              "display": "Albumin [Mass/volume] in Serum or Plasma"
            }
          ],
          "text": "Albumin [Mass/volume] in Serum or Plasma"
        },
        "valueQuantity": {
          "system": "http://unitsofmeasure.org",
          "value": 5.4,
          "unit": "g/dL",
          "code": "g/dL"
        },
        "referenceRange": [
          {
            "low": {
              "value": 3.5,
              "code": "g/dL",
              "system": "http://unitsofmeasure.org"
            }
          },
          {
            "high": {
              "value": 5.5,
              "code": "g/dL",
              "system": "http://unitsofmeasure.org"
            }
          }
        ],
        "text": {
          "status": "generated",
          "div": "<div xmlns=\"http://www.w3.org/1999/xhtml\"><table class=\"hl7__eu__lab__report\"><tr><th>Test</th><th>11-Nov-2015</th><th>Reference&#xA0;Range</th><th>Unit</th></tr><tr><td>Albumin [Mass/volume] in Serum or Plasma</td><td>5.4</td><td>3.5 - 5.5</td><td></td><td>g/dL</td></tr></table></div>"
        },
        "status": "final",
        "subject": {
          "reference": "urn:uuid:aeb189ea-97dd-4573-8efb-dce6a5773f8f",
          "display": "Maria Nohlmans"
        },
        "effectiveDateTime": "2015-11-11T11:01:39Z",
        "specimen": {
          "reference": "urn:uuid:aa1a7f7a-df04-4e01-8474-41854172dbca"
        }
      }
    },
    {
      "fullUrl": "urn:uuid:98d7793c-52d3-4b61-8e17-a3c010574b06",
      "resource": {
        "resourceType": "Observation",
        "id": "98d7793c-52d3-4b61-8e17-a3c010574b06",
        "meta": {
          "profile": [
            "http://hl7.eu/fhir/laboratory/StructureDefinition/Observation-resultslab-eu-lab"
          ]
        },
        "performer": [
          {
            "display": "The Central European Lab"
          }
        ],
        "category": [
          {
            "coding": [
              {
                "system": "http://terminology.hl7.org/CodeSystem/observation-category",
                "code": "laboratory"
              }
            ]
          }
        ],
        "code": {
          "coding": [
            {
              "code": "10834-0",
              "system": "http://loinc.org",
              "display": "Globulin [Mass/volume] in Serum by calculation"
            }
          ],
          "text": "Globulin [Mass/volume] in Serum by calculation"
        },
        "valueQuantity": {
          "system": "http://unitsofmeasure.org",
          "value": 2.6,
          "unit": "g/L",
          "code": "g/L"
        },
        "referenceRange": [
          {
            "low": {
              "value": 2,
              "code": "g/L",
              "system": "http://unitsofmeasure.org"
            }
          },
          {
            "high": {
              "value": 3.5,
              "code": "g/L",
              "system": "http://unitsofmeasure.org"
            }
          }
        ],
        "text": {
          "status": "generated",
          "div": "<div xmlns=\"http://www.w3.org/1999/xhtml\"><table class=\"hl7__eu__lab__report\"><tr><th>Test</th><th>11-Nov-2015</th><th>Reference&#xA0;Range</th><th>Unit</th></tr><tr><td>Globulin [Mass/volume] in Serum by calculation</td><td>2.6</td><td>2 - 3.5</td><td></td><td>g/L</td></tr></table></div>"
        },
        "status": "final",
        "subject": {
          "reference": "urn:uuid:aeb189ea-97dd-4573-8efb-dce6a5773f8f",
          "display": "Maria Nohlmans"
        },
        "effectiveDateTime": "2015-11-11T11:01:39Z",
        "specimen": {
          "reference": "urn:uuid:5c7b94af-81b4-4e58-beb0-f5ffa0372e13"
        }
      }
    },
    {
      "fullUrl": "urn:uuid:a0440cf2-e1fc-4987-a97c-d13109174c45",
      "resource": {
        "resourceType": "Observation",
        "id": "a0440cf2-e1fc-4987-a97c-d13109174c45",
        "meta": {
          "profile": [
            "http://hl7.eu/fhir/laboratory/StructureDefinition/Observation-resultslab-eu-lab"
          ]
        },
        "performer": [
          {
            "display": "The Central European Lab"
          }
        ],
        "category": [
          {
            "coding": [
              {
                "system": "http://terminology.hl7.org/CodeSystem/observation-category",
                "code": "laboratory"
              }
            ]
          }
        ],
        "code": {
          "coding": [
            {
              "code": "1975-2",
              "system": "http://loinc.org",
              "display": "Bilirubin.total [Mass/volume] in Serum or Plasma"
            }
          ],
          "text": "Bilirubin.total [Mass/volume] in Serum or Plasma"
        },
        "valueQuantity": {
          "system": "http://unitsofmeasure.org",
          "value": 0.7,
          "unit": "mg/dL",
          "code": "mg/dL"
        },
        "referenceRange": [
          {
            "low": {
              "value": 0.3,
              "code": "mg/dL",
              "system": "http://unitsofmeasure.org"
            }
          },
          {
            "high": {
              "value": 1.2,
              "code": "mg/dL",
              "system": "http://unitsofmeasure.org"
            }
          }
        ],
        "text": {
          "status": "generated",
          "div": "<div xmlns=\"http://www.w3.org/1999/xhtml\"><table class=\"hl7__eu__lab__report\"><tr><th>Test</th><th>11-Nov-2015</th><th>Reference&#xA0;Range</th><th>Unit</th></tr><tr><td>Bilirubin.total [Mass/volume] in Serum or Plasma</td><td>0.7</td><td>0.3 - 1.2</td><td></td><td>mg/dL</td></tr></table></div>"
        },
        "status": "final",
        "subject": {
          "reference": "urn:uuid:aeb189ea-97dd-4573-8efb-dce6a5773f8f",
          "display": "Maria Nohlmans"
        },
        "effectiveDateTime": "2015-11-11T11:01:39Z",
        "specimen": {
          "reference": "urn:uuid:aa1a7f7a-df04-4e01-8474-41854172dbca"
        }
      }
    },
    {
      "fullUrl": "urn:uuid:313e7ba7-c0bc-4b56-b902-a341216c7b56",
      "resource": {
        "resourceType": "Observation",
        "id": "313e7ba7-c0bc-4b56-b902-a341216c7b56",
        "meta": {
          "profile": [
            "http://hl7.eu/fhir/laboratory/StructureDefinition/Observation-resultslab-eu-lab"
          ]
        },
        "performer": [
          {
            "display": "The Central European Lab"
          }
        ],
        "category": [
          {
            "coding": [
              {
                "system": "http://terminology.hl7.org/CodeSystem/observation-category",
                "code": "laboratory"
              }
            ]
          }
        ],
        "code": {
          "coding": [
            {
              "code": "6768-6",
              "system": "http://loinc.org",
              "display": "Alkaline phosphatase [Enzymatic activity/volume] in Serum or Plasma"
            }
          ],
          "text": "Alkaline phosphatase [Enzymatic activity/volume] in Serum or Plasma"
        },
        "valueQuantity": {
          "system": "http://unitsofmeasure.org",
          "value": 77.5,
          "unit": "U/L",
          "code": "U/L"
        },
        "referenceRange": [
          {
            "low": {
              "value": 44,
              "code": "U/L",
              "system": "http://unitsofmeasure.org"
            }
          },
          {
            "high": {
              "value": 142,
              "code": "U/L",
              "system": "http://unitsofmeasure.org"
            }
          }
        ],
        "text": {
          "status": "generated",
          "div": "<div xmlns=\"http://www.w3.org/1999/xhtml\"><table class=\"hl7__eu__lab__report\"><tr><th>Test</th><th>11-Nov-2015</th><th>Reference&#xA0;Range</th><th>Unit</th></tr><tr><td>Alkaline phosphatase [Enzymatic activity/volume] in Serum or Plasma</td><td>77.5</td><td>44 - 142</td><td></td><td>U/L</td></tr></table></div>"
        },
        "status": "final",
        "subject": {
          "reference": "urn:uuid:aeb189ea-97dd-4573-8efb-dce6a5773f8f",
          "display": "Maria Nohlmans"
        },
        "effectiveDateTime": "2015-11-11T11:01:39Z",
        "specimen": {
          "reference": "urn:uuid:aa1a7f7a-df04-4e01-8474-41854172dbca"
        }
      }
    },
    {
      "fullUrl": "urn:uuid:8eff43ca-e159-4fd7-9366-c32afc8ae1af",
      "resource": {
        "resourceType": "Observation",
        "id": "8eff43ca-e159-4fd7-9366-c32afc8ae1af",
        "meta": {
          "profile": [
            "http://hl7.eu/fhir/laboratory/StructureDefinition/Observation-resultslab-eu-lab"
          ]
        },
        "performer": [
          {
            "display": "The Central European Lab"
          }
        ],
        "category": [
          {
            "coding": [
              {
                "system": "http://terminology.hl7.org/CodeSystem/observation-category",
                "code": "laboratory"
              }
            ]
          }
        ],
        "code": {
          "coding": [
            {
              "code": "1742-6",
              "system": "http://loinc.org",
              "display": "Alanine aminotransferase [Enzymatic activity/volume] in Serum or Plasma"
            }
          ],
          "text": "Alanine aminotransferase [Enzymatic activity/volume] in Serum or Plasma"
        },
        "valueQuantity": {
          "system": "http://unitsofmeasure.org",
          "value": 36.9,
          "unit": "U/L",
          "code": "U/L"
        },
        "referenceRange": [
          {
            "low": {
              "value": 7,
              "code": "U/L",
              "system": "http://unitsofmeasure.org"
            }
          },
          {
            "high": {
              "value": 40,
              "code": "U/L",
              "system": "http://unitsofmeasure.org"
            }
          }
        ],
        "text": {
          "status": "generated",
          "div": "<div xmlns=\"http://www.w3.org/1999/xhtml\"><table class=\"hl7__eu__lab__report\"><tr><th>Test</th><th>11-Nov-2015</th><th>Reference&#xA0;Range</th><th>Unit</th></tr><tr><td>Alanine aminotransferase [Enzymatic activity/volume] in Serum or Plasma</td><td>36.9</td><td>7 - 40</td><td></td><td>U/L</td></tr></table></div>"
        },
        "status": "final",
        "subject": {
          "reference": "urn:uuid:aeb189ea-97dd-4573-8efb-dce6a5773f8f",
          "display": "Maria Nohlmans"
        },
        "effectiveDateTime": "2015-11-11T11:01:39Z",
        "specimen": {
          "reference": "urn:uuid:aa1a7f7a-df04-4e01-8474-41854172dbca"
        }
      }
    },
    {
      "fullUrl": "urn:uuid:8a9d79f3-5389-412b-9aa7-ed24e069a568",
      "resource": {
        "resourceType": "Observation",
        "id": "8a9d79f3-5389-412b-9aa7-ed24e069a568",
        "meta": {
          "profile": [
            "http://hl7.eu/fhir/laboratory/StructureDefinition/Observation-resultslab-eu-lab"
          ]
        },
        "performer": [
          {
            "display": "The Central European Lab"
          }
        ],
        "category": [
          {
            "coding": [
              {
                "system": "http://terminology.hl7.org/CodeSystem/observation-category",
                "code": "laboratory"
              }
            ]
          }
        ],
        "code": {
          "coding": [
            {
              "code": "1920-8",
              "system": "http://loinc.org",
              "display": "Aspartate aminotransferase [Enzymatic activity/volume] in Serum or Plasma"
            }
          ],
          "text": "Aspartate aminotransferase [Enzymatic activity/volume] in Serum or Plasma"
        },
        "valueQuantity": {
          "system": "http://unitsofmeasure.org",
          "value": 18.8,
          "unit": "U/L",
          "code": "U/L"
        },
        "referenceRange": [
          {
            "low": {
              "value": 10,
              "code": "U/L",
              "system": "http://unitsofmeasure.org"
            }
          },
          {
            "high": {
              "value": 40,
              "code": "U/L",
              "system": "http://unitsofmeasure.org"
            }
          }
        ],
        "text": {
          "status": "generated",
          "div": "<div xmlns=\"http://www.w3.org/1999/xhtml\"><table class=\"hl7__eu__lab__report\"><tr><th>Test</th><th>11-Nov-2015</th><th>Reference&#xA0;Range</th><th>Unit</th></tr><tr><td>Aspartate aminotransferase [Enzymatic activity/volume] in Serum or Plasma</td><td>18.8</td><td>10 - 40</td><td></td><td>U/L</td></tr></table></div>"
        },
        "status": "final",
        "subject": {
          "reference": "urn:uuid:aeb189ea-97dd-4573-8efb-dce6a5773f8f",
          "display": "Maria Nohlmans"
        },
        "effectiveDateTime": "2015-11-11T11:01:39Z",
        "specimen": {
          "reference": "urn:uuid:aa1a7f7a-df04-4e01-8474-41854172dbca"
        }
      }
    },
    {
      "fullUrl": "urn:uuid:3a798411-5bb1-493c-9cb8-2ecc620fe107",
      "resource": {
        "resourceType": "Observation",
        "id": "3a798411-5bb1-493c-9cb8-2ecc620fe107",
        "meta": {
          "profile": [
            "http://hl7.eu/fhir/laboratory/StructureDefinition/Observation-resultslab-eu-lab"
          ]
        },
        "performer": [
          {
            "display": "The Central European Lab"
          }
        ],
        "category": [
          {
            "coding": [
              {
                "system": "http://terminology.hl7.org/CodeSystem/observation-category",
                "code": "laboratory"
              }
            ]
          }
        ],
        "code": {
          "coding": [
            {
              "code": "5767-9",
              "system": "http://loinc.org",
              "display": "Appearance of Urine"
            }
          ],
          "text": "Appearance of Urine"
        },
        "text": {
          "status": "generated",
          "div": "<div xmlns=\"http://www.w3.org/1999/xhtml\"><table class=\"hl7__eu__lab__report\"><tr><th>Test</th><th>11-Nov-2015</th><th>Reference&#xA0;Range</th><th>Unit</th></tr><tr><td>Appearance of Urine</td></tr></table></div>"
        },
        "status": "final",
        "subject": {
          "reference": "urn:uuid:aeb189ea-97dd-4573-8efb-dce6a5773f8f",
          "display": "Maria Nohlmans"
        },
        "effectiveDateTime": "2015-11-11T11:01:39Z",
        "specimen": {
          "reference": "urn:uuid:60e7c0f6-1cae-45db-95aa-e886c73e483c"
        }
      }
    },
    {
      "fullUrl": "urn:uuid:db313358-2fef-441f-a758-db445db247fe",
      "resource": {
        "resourceType": "Observation",
        "id": "db313358-2fef-441f-a758-db445db247fe",
        "meta": {
          "profile": [
            "http://hl7.eu/fhir/laboratory/StructureDefinition/Observation-resultslab-eu-lab"
          ]
        },
        "performer": [
          {
            "display": "The Central European Lab"
          }
        ],
        "category": [
          {
            "coding": [
              {
                "system": "http://terminology.hl7.org/CodeSystem/observation-category",
                "code": "laboratory"
              }
            ]
          }
        ],
        "code": {
          "coding": [
            {
              "code": "34533-0",
              "system": "http://loinc.org",
              "display": "Odor of Urine"
            }
          ],
          "text": "Odor of Urine"
        },
        "text": {
          "status": "generated",
          "div": "<div xmlns=\"http://www.w3.org/1999/xhtml\"><table class=\"hl7__eu__lab__report\"><tr><th>Test</th><th>11-Nov-2015</th><th>Reference&#xA0;Range</th><th>Unit</th></tr><tr><td>Odor of Urine</td></tr></table></div>"
        },
        "status": "final",
        "subject": {
          "reference": "urn:uuid:aeb189ea-97dd-4573-8efb-dce6a5773f8f",
          "display": "Maria Nohlmans"
        },
        "effectiveDateTime": "2015-11-11T11:01:39Z",
        "specimen": {
          "reference": "urn:uuid:60e7c0f6-1cae-45db-95aa-e886c73e483c"
        }
      }
    },
    {
      "fullUrl": "urn:uuid:b076cc3f-570d-4229-9911-51f29fafe5e1",
      "resource": {
        "resourceType": "Observation",
        "id": "b076cc3f-570d-4229-9911-51f29fafe5e1",
        "meta": {
          "profile": [
            "http://hl7.eu/fhir/laboratory/StructureDefinition/Observation-resultslab-eu-lab"
          ]
        },
        "performer": [
          {
            "display": "The Central European Lab"
          }
        ],
        "category": [
          {
            "coding": [
              {
                "system": "http://terminology.hl7.org/CodeSystem/observation-category",
                "code": "laboratory"
              }
            ]
          }
        ],
        "code": {
          "coding": [
            {
              "code": "32167-9",
              "system": "http://loinc.org",
              "display": "Clarity of Urine"
            }
          ],
          "text": "Clarity of Urine"
        },
        "text": {
          "status": "generated",
          "div": "<div xmlns=\"http://www.w3.org/1999/xhtml\"><table class=\"hl7__eu__lab__report\"><tr><th>Test</th><th>11-Nov-2015</th><th>Reference&#xA0;Range</th><th>Unit</th></tr><tr><td>Clarity of Urine</td></tr></table></div>"
        },
        "status": "final",
        "subject": {
          "reference": "urn:uuid:aeb189ea-97dd-4573-8efb-dce6a5773f8f",
          "display": "Maria Nohlmans"
        },
        "effectiveDateTime": "2015-11-11T11:01:39Z",
        "specimen": {
          "reference": "urn:uuid:60e7c0f6-1cae-45db-95aa-e886c73e483c"
        }
      }
    },
    {
      "fullUrl": "urn:uuid:042c7853-f214-4b15-82a2-5c8292835a62",
      "resource": {
        "resourceType": "Observation",
        "id": "042c7853-f214-4b15-82a2-5c8292835a62",
        "meta": {
          "profile": [
            "http://hl7.eu/fhir/laboratory/StructureDefinition/Observation-resultslab-eu-lab"
          ]
        },
        "performer": [
          {
            "display": "The Central European Lab"
          }
        ],
        "category": [
          {
            "coding": [
              {
                "system": "http://terminology.hl7.org/CodeSystem/observation-category",
                "code": "laboratory"
              }
            ]
          }
        ],
        "code": {
          "coding": [
            {
              "code": "5778-6",
              "system": "http://loinc.org",
              "display": "Color of Urine"
            }
          ],
          "text": "Color of Urine"
        },
        "text": {
          "status": "generated",
          "div": "<div xmlns=\"http://www.w3.org/1999/xhtml\"><table class=\"hl7__eu__lab__report\"><tr><th>Test</th><th>11-Nov-2015</th><th>Reference&#xA0;Range</th><th>Unit</th></tr><tr><td>Color of Urine</td></tr></table></div>"
        },
        "status": "final",
        "subject": {
          "reference": "urn:uuid:aeb189ea-97dd-4573-8efb-dce6a5773f8f",
          "display": "Maria Nohlmans"
        },
        "effectiveDateTime": "2015-11-11T11:01:39Z",
        "specimen": {
          "reference": "urn:uuid:60e7c0f6-1cae-45db-95aa-e886c73e483c"
        }
      }
    },
    {
      "fullUrl": "urn:uuid:a88aacc3-c2dc-4022-9645-4733192d84ea",
      "resource": {
        "resourceType": "Observation",
        "id": "a88aacc3-c2dc-4022-9645-4733192d84ea",
        "meta": {
          "profile": [
            "http://hl7.eu/fhir/laboratory/StructureDefinition/Observation-resultslab-eu-lab"
          ]
        },
        "performer": [
          {
            "display": "The Central European Lab"
          }
        ],
        "category": [
          {
            "coding": [
              {
                "system": "http://terminology.hl7.org/CodeSystem/observation-category",
                "code": "laboratory"
              }
            ]
          }
        ],
        "code": {
          "coding": [
            {
              "code": "5792-7",
              "system": "http://loinc.org",
              "display": "Glucose [Mass/volume] in Urine by Test strip"
            }
          ],
          "text": "Glucose [Mass/volume] in Urine by Test strip"
        },
        "valueQuantity": {
          "system": "http://unitsofmeasure.org",
          "value": 1.1,
          "unit": "mg/dL",
          "code": "mg/dL"
        },
        "referenceRange": [
          {
            "low": {
              "value": 0.8,
              "code": "mg/dL",
              "system": "http://unitsofmeasure.org"
            }
          },
          {
            "high": {
              "value": 0,
              "code": "mg/dL",
              "system": "http://unitsofmeasure.org"
            }
          }
        ],
        "interpretation": [
          {
            "coding": [
              {
                "code": "H",
                "system": "http://terminology.hl7.org/CodeSystem/v3-ObservationInterpretation",
                "display": "High"
              }
            ]
          }
        ],
        "text": {
          "status": "generated",
          "div": "<div xmlns=\"http://www.w3.org/1999/xhtml\"><table class=\"hl7__eu__lab__report\"><tr><th>Test</th><th>11-Nov-2015</th><th>Reference&#xA0;Range</th><th>Unit</th></tr><tr><td>Glucose [Mass/volume] in Urine by Test strip</td><td>1.1</td><td>0.8 - 0</td><td>H</td><td>mg/dL</td></tr></table></div>"
        },
        "status": "final",
        "subject": {
          "reference": "urn:uuid:aeb189ea-97dd-4573-8efb-dce6a5773f8f",
          "display": "Maria Nohlmans"
        },
        "effectiveDateTime": "2015-11-11T11:01:39Z",
        "specimen": {
          "reference": "urn:uuid:60e7c0f6-1cae-45db-95aa-e886c73e483c"
        }
      }
    },
    {
      "fullUrl": "urn:uuid:88805a9e-b0f3-42d0-9121-6bd6c435cb6e",
      "resource": {
        "resourceType": "Observation",
        "id": "88805a9e-b0f3-42d0-9121-6bd6c435cb6e",
        "meta": {
          "profile": [
            "http://hl7.eu/fhir/laboratory/StructureDefinition/Observation-resultslab-eu-lab"
          ]
        },
        "performer": [
          {
            "display": "The Central European Lab"
          }
        ],
        "category": [
          {
            "coding": [
              {
                "system": "http://terminology.hl7.org/CodeSystem/observation-category",
                "code": "laboratory"
              }
            ]
          }
        ],
        "code": {
          "coding": [
            {
              "code": "25428-4",
              "system": "http://loinc.org",
              "display": "Glucose [Presence] in Urine by Test strip"
            }
          ],
          "text": "Glucose [Presence] in Urine by Test strip"
        },
        "text": {
          "status": "generated",
          "div": "<div xmlns=\"http://www.w3.org/1999/xhtml\"><table class=\"hl7__eu__lab__report\"><tr><th>Test</th><th>11-Nov-2015</th><th>Reference&#xA0;Range</th><th>Unit</th></tr><tr><td>Glucose [Presence] in Urine by Test strip</td></tr></table></div>"
        },
        "status": "final",
        "subject": {
          "reference": "urn:uuid:aeb189ea-97dd-4573-8efb-dce6a5773f8f",
          "display": "Maria Nohlmans"
        },
        "effectiveDateTime": "2015-11-11T11:01:39Z",
        "specimen": {
          "reference": "urn:uuid:60e7c0f6-1cae-45db-95aa-e886c73e483c"
        }
      }
    },
    {
      "fullUrl": "urn:uuid:30f332c3-2f4a-44af-be78-76884fc4efb9",
      "resource": {
        "resourceType": "Observation",
        "id": "30f332c3-2f4a-44af-be78-76884fc4efb9",
        "meta": {
          "profile": [
            "http://hl7.eu/fhir/laboratory/StructureDefinition/Observation-resultslab-eu-lab"
          ]
        },
        "performer": [
          {
            "display": "The Central European Lab"
          }
        ],
        "category": [
          {
            "coding": [
              {
                "system": "http://terminology.hl7.org/CodeSystem/observation-category",
                "code": "laboratory"
              }
            ]
          }
        ],
        "code": {
          "coding": [
            {
              "code": "20505-4",
              "system": "http://loinc.org",
              "display": "Bilirubin.total [Mass/volume] in Urine by Test strip"
            }
          ],
          "text": "Bilirubin.total [Mass/volume] in Urine by Test strip"
        },
        "valueQuantity": {
          "system": "http://unitsofmeasure.org",
          "value": 0.3,
          "unit": "mg/dL",
          "code": "mg/dL"
        },
        "referenceRange": [
          {
            "low": {
              "value": 0,
              "code": "mg/dL",
              "system": "http://unitsofmeasure.org"
            }
          },
          {
            "high": {
              "value": 1.5,
              "code": "mg/dL",
              "system": "http://unitsofmeasure.org"
            }
          }
        ],
        "text": {
          "status": "generated",
          "div": "<div xmlns=\"http://www.w3.org/1999/xhtml\"><table class=\"hl7__eu__lab__report\"><tr><th>Test</th><th>11-Nov-2015</th><th>Reference&#xA0;Range</th><th>Unit</th></tr><tr><td>Bilirubin.total [Mass/volume] in Urine by Test strip</td><td>0.3</td><td>0 - 1.5</td><td></td><td>mg/dL</td></tr></table></div>"
        },
        "status": "final",
        "subject": {
          "reference": "urn:uuid:aeb189ea-97dd-4573-8efb-dce6a5773f8f",
          "display": "Maria Nohlmans"
        },
        "effectiveDateTime": "2015-11-11T11:01:39Z",
        "specimen": {
          "reference": "urn:uuid:60e7c0f6-1cae-45db-95aa-e886c73e483c"
        }
      }
    },
    {
      "fullUrl": "urn:uuid:ff435714-f33d-487f-91d8-c142cc8e56fc",
      "resource": {
        "resourceType": "Observation",
        "id": "ff435714-f33d-487f-91d8-c142cc8e56fc",
        "meta": {
          "profile": [
            "http://hl7.eu/fhir/laboratory/StructureDefinition/Observation-resultslab-eu-lab"
          ]
        },
        "performer": [
          {
            "display": "The Central European Lab"
          }
        ],
        "category": [
          {
            "coding": [
              {
                "system": "http://terminology.hl7.org/CodeSystem/observation-category",
                "code": "laboratory"
              }
            ]
          }
        ],
        "code": {
          "coding": [
            {
              "code": "5770-3",
              "system": "http://loinc.org",
              "display": "Bilirubin.total [Presence] in Urine by Test strip"
            }
          ],
          "text": "Bilirubin.total [Presence] in Urine by Test strip"
        },
        "text": {
          "status": "generated",
          "div": "<div xmlns=\"http://www.w3.org/1999/xhtml\"><table class=\"hl7__eu__lab__report\"><tr><th>Test</th><th>11-Nov-2015</th><th>Reference&#xA0;Range</th><th>Unit</th></tr><tr><td>Bilirubin.total [Presence] in Urine by Test strip</td></tr></table></div>"
        },
        "status": "final",
        "subject": {
          "reference": "urn:uuid:aeb189ea-97dd-4573-8efb-dce6a5773f8f",
          "display": "Maria Nohlmans"
        },
        "effectiveDateTime": "2015-11-11T11:01:39Z",
        "specimen": {
          "reference": "urn:uuid:60e7c0f6-1cae-45db-95aa-e886c73e483c"
        }
      }
    },
    {
      "fullUrl": "urn:uuid:37cf4f0e-9c46-4d9d-ac8e-e98346dc36b9",
      "resource": {
        "resourceType": "Observation",
        "id": "37cf4f0e-9c46-4d9d-ac8e-e98346dc36b9",
        "meta": {
          "profile": [
            "http://hl7.eu/fhir/laboratory/StructureDefinition/Observation-resultslab-eu-lab"
          ]
        },
        "performer": [
          {
            "display": "The Central European Lab"
          }
        ],
        "category": [
          {
            "coding": [
              {
                "system": "http://terminology.hl7.org/CodeSystem/observation-category",
                "code": "laboratory"
              }
            ]
          }
        ],
        "code": {
          "coding": [
            {
              "code": "5797-6",
              "system": "http://loinc.org",
              "display": "Ketones [Mass/volume] in Urine by Test strip"
            }
          ],
          "text": "Ketones [Mass/volume] in Urine by Test strip"
        },
        "valueQuantity": {
          "system": "http://unitsofmeasure.org",
          "value": 5.5,
          "unit": "mg/dL",
          "code": "mg/dL"
        },
        "referenceRange": [
          {
            "low": {
              "value": 0,
              "code": "mg/dL",
              "system": "http://unitsofmeasure.org"
            }
          },
          {
            "high": {
              "value": 8,
              "code": "mg/dL",
              "system": "http://unitsofmeasure.org"
            }
          }
        ],
        "text": {
          "status": "generated",
          "div": "<div xmlns=\"http://www.w3.org/1999/xhtml\"><table class=\"hl7__eu__lab__report\"><tr><th>Test</th><th>11-Nov-2015</th><th>Reference&#xA0;Range</th><th>Unit</th></tr><tr><td>Ketones [Mass/volume] in Urine by Test strip</td><td>5.5</td><td>0 - 8</td><td></td><td>mg/dL</td></tr></table></div>"
        },
        "status": "final",
        "subject": {
          "reference": "urn:uuid:aeb189ea-97dd-4573-8efb-dce6a5773f8f",
          "display": "Maria Nohlmans"
        },
        "effectiveDateTime": "2015-11-11T11:01:39Z",
        "specimen": {
          "reference": "urn:uuid:60e7c0f6-1cae-45db-95aa-e886c73e483c"
        }
      }
    },
    {
      "fullUrl": "urn:uuid:ab0e350c-9769-44dd-b5b0-66dea6e0824d",
      "resource": {
        "resourceType": "Observation",
        "id": "ab0e350c-9769-44dd-b5b0-66dea6e0824d",
        "meta": {
          "profile": [
            "http://hl7.eu/fhir/laboratory/StructureDefinition/Observation-resultslab-eu-lab"
          ]
        },
        "performer": [
          {
            "display": "The Central European Lab"
          }
        ],
        "category": [
          {
            "coding": [
              {
                "system": "http://terminology.hl7.org/CodeSystem/observation-category",
                "code": "laboratory"
              }
            ]
          }
        ],
        "code": {
          "coding": [
            {
              "code": "2514-8",
              "system": "http://loinc.org",
              "display": "Ketones [Presence] in Urine by Test strip"
            }
          ],
          "text": "Ketones [Presence] in Urine by Test strip"
        },
        "text": {
          "status": "generated",
          "div": "<div xmlns=\"http://www.w3.org/1999/xhtml\"><table class=\"hl7__eu__lab__report\"><tr><th>Test</th><th>11-Nov-2015</th><th>Reference&#xA0;Range</th><th>Unit</th></tr><tr><td>Ketones [Presence] in Urine by Test strip</td></tr></table></div>"
        },
        "status": "final",
        "subject": {
          "reference": "urn:uuid:aeb189ea-97dd-4573-8efb-dce6a5773f8f",
          "display": "Maria Nohlmans"
        },
        "effectiveDateTime": "2015-11-11T11:01:39Z",
        "specimen": {
          "reference": "urn:uuid:60e7c0f6-1cae-45db-95aa-e886c73e483c"
        }
      }
    },
    {
      "fullUrl": "urn:uuid:62e13c91-fbe3-4e36-96d6-d7ce47567c93",
      "resource": {
        "resourceType": "Observation",
        "id": "62e13c91-fbe3-4e36-96d6-d7ce47567c93",
        "meta": {
          "profile": [
            "http://hl7.eu/fhir/laboratory/StructureDefinition/Observation-resultslab-eu-lab"
          ]
        },
        "performer": [
          {
            "display": "The Central European Lab"
          }
        ],
        "category": [
          {
            "coding": [
              {
                "system": "http://terminology.hl7.org/CodeSystem/observation-category",
                "code": "laboratory"
              }
            ]
          }
        ],
        "code": {
          "coding": [
            {
              "code": "5811-5",
              "system": "http://loinc.org",
              "display": "Specific gravity of Urine by Test strip"
            }
          ],
          "text": "Specific gravity of Urine by Test strip"
        },
        "valueQuantity": {
          "system": "http://unitsofmeasure.org",
          "value": 1,
          "unit": "{nominal}",
          "code": "{nominal}"
        },
        "referenceRange": [
          {
            "low": {
              "value": 1.01,
              "code": "g/mL",
              "system": "http://unitsofmeasure.org"
            }
          },
          {
            "high": {
              "value": 1.03,
              "code": "g/mL",
              "system": "http://unitsofmeasure.org"
            }
          }
        ],
        "interpretation": [
          {
            "coding": [
              {
                "code": "L",
                "system": "http://terminology.hl7.org/CodeSystem/v3-ObservationInterpretation",
                "display": "Low"
              }
            ]
          }
        ],
        "text": {
          "status": "generated",
          "div": "<div xmlns=\"http://www.w3.org/1999/xhtml\"><table class=\"hl7__eu__lab__report\"><tr><th>Test</th><th>11-Nov-2015</th><th>Reference&#xA0;Range</th><th>Unit</th></tr><tr><td>Specific gravity of Urine by Test strip</td><td>1.0</td><td>1.01 - 1.03</td><td>L</td><td>{nominal}</td></tr></table></div>"
        },
        "status": "final",
        "subject": {
          "reference": "urn:uuid:aeb189ea-97dd-4573-8efb-dce6a5773f8f",
          "display": "Maria Nohlmans"
        },
        "effectiveDateTime": "2015-11-11T11:01:39Z",
        "specimen": {
          "reference": "urn:uuid:60e7c0f6-1cae-45db-95aa-e886c73e483c"
        }
      }
    },
    {
      "fullUrl": "urn:uuid:32e61b34-fa35-4313-860f-b30a85eef82d",
      "resource": {
        "resourceType": "Observation",
        "id": "32e61b34-fa35-4313-860f-b30a85eef82d",
        "meta": {
          "profile": [
            "http://hl7.eu/fhir/laboratory/StructureDefinition/Observation-resultslab-eu-lab"
          ]
        },
        "performer": [
          {
            "display": "The Central European Lab"
          }
        ],
        "category": [
          {
            "coding": [
              {
                "system": "http://terminology.hl7.org/CodeSystem/observation-category",
                "code": "laboratory"
              }
            ]
          }
        ],
        "code": {
          "coding": [
            {
              "code": "5803-2",
              "system": "http://loinc.org",
              "display": "pH of Urine by Test strip"
            }
          ],
          "text": "pH of Urine by Test strip"
        },
        "valueQuantity": {
          "system": "http://unitsofmeasure.org",
          "value": 6.8,
          "unit": "pH",
          "code": "pH"
        },
        "referenceRange": [
          {
            "low": {
              "value": 4.6,
              "code": "pH",
              "system": "http://unitsofmeasure.org"
            }
          },
          {
            "high": {
              "value": 7.5,
              "code": "pH",
              "system": "http://unitsofmeasure.org"
            }
          }
        ],
        "text": {
          "status": "generated",
          "div": "<div xmlns=\"http://www.w3.org/1999/xhtml\"><table class=\"hl7__eu__lab__report\"><tr><th>Test</th><th>11-Nov-2015</th><th>Reference&#xA0;Range</th><th>Unit</th></tr><tr><td>pH of Urine by Test strip</td><td>6.8</td><td>4.6 - 7.5</td><td></td><td>pH</td></tr></table></div>"
        },
        "status": "final",
        "subject": {
          "reference": "urn:uuid:aeb189ea-97dd-4573-8efb-dce6a5773f8f",
          "display": "Maria Nohlmans"
        },
        "effectiveDateTime": "2015-11-11T11:01:39Z",
        "specimen": {
          "reference": "urn:uuid:60e7c0f6-1cae-45db-95aa-e886c73e483c"
        }
      }
    },
    {
      "fullUrl": "urn:uuid:90c74109-ab1c-43af-8703-d53343e1f0b7",
      "resource": {
        "resourceType": "Observation",
        "id": "90c74109-ab1c-43af-8703-d53343e1f0b7",
        "meta": {
          "profile": [
            "http://hl7.eu/fhir/laboratory/StructureDefinition/Observation-resultslab-eu-lab"
          ]
        },
        "performer": [
          {
            "display": "The Central European Lab"
          }
        ],
        "category": [
          {
            "coding": [
              {
                "system": "http://terminology.hl7.org/CodeSystem/observation-category",
                "code": "laboratory"
              }
            ]
          }
        ],
        "code": {
          "coding": [
            {
              "code": "5804-0",
              "system": "http://loinc.org",
              "display": "Protein [Mass/volume] in Urine by Test strip"
            }
          ],
          "text": "Protein [Mass/volume] in Urine by Test strip"
        },
        "valueQuantity": {
          "system": "http://unitsofmeasure.org",
          "value": 403.5,
          "unit": "mg/dL",
          "code": "mg/dL"
        },
        "referenceRange": [
          {
            "low": {
              "value": 0,
              "code": "mg/dL",
              "system": "http://unitsofmeasure.org"
            }
          },
          {
            "high": {
              "value": 14,
              "code": "mg/dL",
              "system": "http://unitsofmeasure.org"
            }
          }
        ],
        "interpretation": [
          {
            "coding": [
              {
                "code": "H",
                "system": "http://terminology.hl7.org/CodeSystem/v3-ObservationInterpretation",
                "display": "High"
              }
            ]
          }
        ],
        "text": {
          "status": "generated",
          "div": "<div xmlns=\"http://www.w3.org/1999/xhtml\"><table class=\"hl7__eu__lab__report\"><tr><th>Test</th><th>11-Nov-2015</th><th>Reference&#xA0;Range</th><th>Unit</th></tr><tr><td>Protein [Mass/volume] in Urine by Test strip</td><td>403.5</td><td>0 - 14</td><td>H</td><td>mg/dL</td></tr></table></div>"
        },
        "status": "final",
        "subject": {
          "reference": "urn:uuid:aeb189ea-97dd-4573-8efb-dce6a5773f8f",
          "display": "Maria Nohlmans"
        },
        "effectiveDateTime": "2015-11-11T11:01:39Z",
        "specimen": {
          "reference": "urn:uuid:60e7c0f6-1cae-45db-95aa-e886c73e483c"
        }
      }
    },
    {
      "fullUrl": "urn:uuid:8d3fe3c3-7c63-46cd-8653-de6a44443eb7",
      "resource": {
        "resourceType": "Observation",
        "id": "8d3fe3c3-7c63-46cd-8653-de6a44443eb7",
        "meta": {
          "profile": [
            "http://hl7.eu/fhir/laboratory/StructureDefinition/Observation-resultslab-eu-lab"
          ]
        },
        "performer": [
          {
            "display": "The Central European Lab"
          }
        ],
        "category": [
          {
            "coding": [
              {
                "system": "http://terminology.hl7.org/CodeSystem/observation-category",
                "code": "laboratory"
              }
            ]
          }
        ],
        "code": {
          "coding": [
            {
              "code": "20454-5",
              "system": "http://loinc.org",
              "display": "Protein [Presence] in Urine by Test strip"
            }
          ],
          "text": "Protein [Presence] in Urine by Test strip"
        },
        "text": {
          "status": "generated",
          "div": "<div xmlns=\"http://www.w3.org/1999/xhtml\"><table class=\"hl7__eu__lab__report\"><tr><th>Test</th><th>11-Nov-2015</th><th>Reference&#xA0;Range</th><th>Unit</th></tr><tr><td>Protein [Presence] in Urine by Test strip</td></tr></table></div>"
        },
        "status": "final",
        "subject": {
          "reference": "urn:uuid:aeb189ea-97dd-4573-8efb-dce6a5773f8f",
          "display": "Maria Nohlmans"
        },
        "effectiveDateTime": "2015-11-11T11:01:39Z",
        "specimen": {
          "reference": "urn:uuid:60e7c0f6-1cae-45db-95aa-e886c73e483c"
        }
      }
    },
    {
      "fullUrl": "urn:uuid:7ed3fd57-790d-4b17-8271-bb07ca51ec31",
      "resource": {
        "resourceType": "Observation",
        "id": "7ed3fd57-790d-4b17-8271-bb07ca51ec31",
        "meta": {
          "profile": [
            "http://hl7.eu/fhir/laboratory/StructureDefinition/Observation-resultslab-eu-lab"
          ]
        },
        "performer": [
          {
            "display": "The Central European Lab"
          }
        ],
        "category": [
          {
            "coding": [
              {
                "system": "http://terminology.hl7.org/CodeSystem/observation-category",
                "code": "laboratory"
              }
            ]
          }
        ],
        "code": {
          "coding": [
            {
              "code": "5802-4",
              "system": "http://loinc.org",
              "display": "Nitrite [Presence] in Urine by Test strip"
            }
          ],
          "text": "Nitrite [Presence] in Urine by Test strip"
        },
        "text": {
          "status": "generated",
          "div": "<div xmlns=\"http://www.w3.org/1999/xhtml\"><table class=\"hl7__eu__lab__report\"><tr><th>Test</th><th>11-Nov-2015</th><th>Reference&#xA0;Range</th><th>Unit</th></tr><tr><td>Nitrite [Presence] in Urine by Test strip</td></tr></table></div>"
        },
        "status": "final",
        "subject": {
          "reference": "urn:uuid:aeb189ea-97dd-4573-8efb-dce6a5773f8f",
          "display": "Maria Nohlmans"
        },
        "effectiveDateTime": "2015-11-11T11:01:39Z",
        "specimen": {
          "reference": "urn:uuid:60e7c0f6-1cae-45db-95aa-e886c73e483c"
        }
      }
    },
    {
      "fullUrl": "urn:uuid:a243a994-cd85-4d4c-b283-5070c11e2d12",
      "resource": {
        "resourceType": "Observation",
        "id": "a243a994-cd85-4d4c-b283-5070c11e2d12",
        "meta": {
          "profile": [
            "http://hl7.eu/fhir/laboratory/StructureDefinition/Observation-resultslab-eu-lab"
          ]
        },
        "performer": [
          {
            "display": "The Central European Lab"
          }
        ],
        "category": [
          {
            "coding": [
              {
                "system": "http://terminology.hl7.org/CodeSystem/observation-category",
                "code": "laboratory"
              }
            ]
          }
        ],
        "code": {
          "coding": [
            {
              "code": "5794-3",
              "system": "http://loinc.org",
              "display": "Hemoglobin [Presence] in Urine by Test strip"
            }
          ],
          "text": "Hemoglobin [Presence] in Urine by Test strip"
        },
        "text": {
          "status": "generated",
          "div": "<div xmlns=\"http://www.w3.org/1999/xhtml\"><table class=\"hl7__eu__lab__report\"><tr><th>Test</th><th>11-Nov-2015</th><th>Reference&#xA0;Range</th><th>Unit</th></tr><tr><td>Hemoglobin [Presence] in Urine by Test strip</td></tr></table></div>"
        },
        "status": "final",
        "subject": {
          "reference": "urn:uuid:aeb189ea-97dd-4573-8efb-dce6a5773f8f",
          "display": "Maria Nohlmans"
        },
        "effectiveDateTime": "2015-11-11T11:01:39Z",
        "specimen": {
          "reference": "urn:uuid:60e7c0f6-1cae-45db-95aa-e886c73e483c"
        }
      }
    },
    {
      "fullUrl": "urn:uuid:be314658-871d-4067-9405-b333f7a03650",
      "resource": {
        "resourceType": "Observation",
        "id": "be314658-871d-4067-9405-b333f7a03650",
        "meta": {
          "profile": [
            "http://hl7.eu/fhir/laboratory/StructureDefinition/Observation-resultslab-eu-lab"
          ]
        },
        "performer": [
          {
            "display": "The Central European Lab"
          }
        ],
        "category": [
          {
            "coding": [
              {
                "system": "http://terminology.hl7.org/CodeSystem/observation-category",
                "code": "laboratory"
              }
            ]
          }
        ],
        "code": {
          "coding": [
            {
              "code": "5799-2",
              "system": "http://loinc.org",
              "display": "Leukocyte esterase [Presence] in Urine by Test strip"
            }
          ],
          "text": "Leukocyte esterase [Presence] in Urine by Test strip"
        },
        "text": {
          "status": "generated",
          "div": "<div xmlns=\"http://www.w3.org/1999/xhtml\"><table class=\"hl7__eu__lab__report\"><tr><th>Test</th><th>11-Nov-2015</th><th>Reference&#xA0;Range</th><th>Unit</th></tr><tr><td>Leukocyte esterase [Presence] in Urine by Test strip</td></tr></table></div>"
        },
        "status": "final",
        "subject": {
          "reference": "urn:uuid:aeb189ea-97dd-4573-8efb-dce6a5773f8f",
          "display": "Maria Nohlmans"
        },
        "effectiveDateTime": "2015-11-11T11:01:39Z",
        "specimen": {
          "reference": "urn:uuid:60e7c0f6-1cae-45db-95aa-e886c73e483c"
        }
      }
    },
    {
      "fullUrl": "urn:uuid:561b9189-f851-4cc2-aa11-d705dcd15e1a",
      "resource": {
        "resourceType": "Device",
        "id": "561b9189-f851-4cc2-aa11-d705dcd15e1a",
        "deviceName": [
          {
            "name": "SYNDERAI Synthetic Generator",
            "type": "manufacturer-name"
          }
        ],
        "version": [
          {
            "value": "5.0"
          }
        ],
        "text": {
          "status": "generated",
          "div": "<div xmlns=\"http://www.w3.org/1999/xhtml\">SYNDERAI Synthetic Generator v5.0</div>"
        },
        "status": "active\"",
        "distinctIdentifier": "synderai-generator-50",
        "manufacturer": "SYNDERAI Project"
      }
    },
    {
      "fullUrl": "urn:uuid:2537edfb-88f6-4e73-8e45-a856d84403c0",
      "resource": {
        "resourceType": "Provenance",
        "id": "2537edfb-88f6-4e73-8e45-a856d84403c0",
        "target": [
          {
            "reference": "Patient/aeb189ea-97dd-4573-8efb-dce6a5773f8f"
          },
          {
            "reference": "Bundle/e043cb1b-155b-41dd-89cc-3412349e028c"
          },
          {
            "reference": "Composition/b42250f1-961f-4e48-a9f0-6e41481cd6fe"
          },
          {
            "reference": "PractitionerRole/a591ed31-b982-42dd-8e6b-7878b923e595"
          },
          {
            "reference": "Practitioner/00a15039-e806-423b-aa99-39ef2df9fcdc"
          },
          {
            "reference": "PractitionerRole/bdc3c73b-ceb2-402d-a137-944ebb0cddab"
          },
          {
            "reference": "Organization/08945fa4-ffcc-4bba-b706-8dda8c8955de"
          }
        ],
        "activity": {
          "text": "Synthetic Example Data Generation"
        },
        "policy": [
          "https://synderai.net/synderai-synthetic-data-policy"
        ],
        "agent": [
          {
            "type": {
              "text": "author"
            },
            "who": {
              "reference": "Device/561b9189-f851-4cc2-aa11-d705dcd15e1a"
            }
          }
        ],
        "reason": [
          {
            "text": "Interoperability Testing and Training (non-clinical use)"
          }
        ],
        "text": {
          "status": "generated",
          "div": "<div xmlns=\"http://www.w3.org/1999/xhtml\">Provenance for SYNDERAI Synthetic Example Data Resource</div>"
        },
        "recorded": "2015-11-11T12:01:39Z"
      }
    },
    {
      "fullUrl": "urn:uuid:a591ed31-b982-42dd-8e6b-7878b923e595",
      "resource": {
        "resourceType": "PractitionerRole",
        "id": "a591ed31-b982-42dd-8e6b-7878b923e595",
        "meta": {
          "profile": [
            "http://hl7.eu/fhir/base/StructureDefinition/practitionerRole-eu"
          ]
        },
        "text": {
          "status": "generated",
          "div": "<div xmlns=\"http://www.w3.org/1999/xhtml\">Laboratory Role Id: a591ed31-b982-42dd-8e6b-7878b923e595</div>"
        },
        "practitioner": {
          "reference": "urn:uuid:00a15039-e806-423b-aa99-39ef2df9fcdc"
        }
      }
    },
    {
      "fullUrl": "urn:uuid:00a15039-e806-423b-aa99-39ef2df9fcdc",
      "resource": {
        "resourceType": "Practitioner",
        "id": "00a15039-e806-423b-aa99-39ef2df9fcdc",
        "meta": {
          "profile": [
            "http://hl7.eu/fhir/base/StructureDefinition/practitioner-eu"
          ]
        },
        "identifier": [
          {
            "assigner": {
              "display": "HL7 Europe"
            },
            "system": "urn:oid:2.16.840.1.113883.2.51.999",
            "value": "7588f4a9-c42b-44bf-b287-72152d146d5f"
          }
        ],
        "name": [
          {
            "prefix": [
              "dr"
            ],
            "given": [
              "Ex"
            ],
            "family": "Ample"
          }
        ],
        "address": [
          {
            "line": [
              "Laboratoire Central Européenne",
              "Boulevard du Jardin Botanique 32"
            ],
            "postalCode": "1000",
            "city": "Brussels",
            "country": "Belgium"
          }
        ],
        "text": {
          "status": "generated",
          "div": "<div xmlns=\"http://www.w3.org/1999/xhtml\">Laboratory: Laboratoire Central Européenne, 1000 Brussels, Belgium</div>"
        }
      }
    }
  ],
  "type": "document",
  "timestamp": "2015-11-11T12:01:39Z"
}
