{
  "resourceType": "Bundle",
  "id": "11e54b83-97fd-4785-a706-45cef19cdcf5",
  "meta": {
    "profile": [
      "http://hl7.eu/fhir/laboratory/StructureDefinition/Bundle-eu-lab"
    ]
  },
  "identifier": {
    "assigner": {
      "display": "HL7 Europe"
    },
    "system": "urn:oid:2.16.840.1.113883.2.51.999",
    "value": "1260811f-f6c0-4531-a6fb-88818e76cba8"
  },
  "entry": [
    {
      "fullUrl": "urn:uuid:4f104b5d-b315-4a85-9f52-0d1625e37ca3",
      "resource": {
        "resourceType": "Composition",
        "id": "4f104b5d-b315-4a85-9f52-0d1625e37ca3",
        "meta": {
          "profile": [
            "http://hl7.eu/fhir/laboratory/StructureDefinition/Composition-eu-lab"
          ]
        },
        "identifier": {
          "assigner": {
            "display": "HL7 Europe"
          },
          "system": "urn:oid:2.16.840.1.113883.2.51.999",
          "value": "55826518-07c4-4a65-a24a-2657a71ef9a5"
        },
        "author": [
          {
            "reference": "urn:uuid:2994d633-ac41-4c53-b586-f2093d9a7245"
          }
        ],
        "category": [
          {
            "coding": [
              {
                "code": "26436-6",
                "system": "http://loinc.org",
                "display": "Laboratory studies (set)"
              }
            ]
          }
        ],
        "type": {
          "coding": [
            {
              "code": "11502-2",
              "system": "http://loinc.org",
              "display": "Laboratory report"
            }
          ],
          "text": "Laboratory Report"
        },
        "section": [
          {
            "code": {
              "coding": [
                {
                  "code": "26436-6",
                  "system": "http://loinc.org",
                  "display": "Laboratory studies (set)"
                }
              ],
              "text": "Laboratory studies"
            },
            "section": [
              {
                "code": {
                  "coding": [
                    {
                      "code": "$18719-5",
                      "system": "http://loinc.org",
                      "display": "Chemistry studies (set)"
                    }
                  ],
                  "text": "Chemistry"
                },
                "entry": [
                  {
                    "reference": "urn:uuid:36c01f4c-733a-4584-97e8-54930d1ade0a"
                  },
                  {
                    "reference": "urn:uuid:d62c2ca6-6551-4e81-b1a0-1ccf4d87759c"
                  },
                  {
                    "reference": "urn:uuid:c3ba504f-2f51-4733-8599-d12f5fc7321f"
                  },
                  {
                    "reference": "urn:uuid:6f16aba8-e138-44a2-8dc6-58c35064118f"
                  },
                  {
                    "reference": "urn:uuid:1db3408a-6b34-4693-9123-e7125f847643"
                  },
                  {
                    "reference": "urn:uuid:b97946b1-7ef0-43f3-aa3b-0d4a071df351"
                  },
                  {
                    "reference": "urn:uuid:6fc1f76b-75bf-40a6-b10a-171dd210860a"
                  },
                  {
                    "reference": "urn:uuid:f2edb709-4f59-4031-8c0a-5aaca913d468"
                  },
                  {
                    "reference": "urn:uuid:80255712-39ae-4fce-a299-57436d5d9c49"
                  },
                  {
                    "reference": "urn:uuid:89597135-2bde-4959-9c17-65d8ad1aad33"
                  },
                  {
                    "reference": "urn:uuid:5067995d-ad81-45af-9d80-ddf7717d2939"
                  },
                  {
                    "reference": "urn:uuid:7d4d3056-b8a5-448a-92f3-9fea5eb54847"
                  },
                  {
                    "reference": "urn:uuid:f70d2362-0e92-4223-b30f-1db115ab0a3d"
                  },
                  {
                    "reference": "urn:uuid:c6929dc3-bd6b-4223-af3f-7739948dd7e1"
                  },
                  {
                    "reference": "urn:uuid:d97c4ca5-0f13-43e1-b60d-97b5bb3bd460"
                  },
                  {
                    "reference": "urn:uuid:55453403-9141-4984-b4c0-bd613ae6dd0a"
                  }
                ],
                "text": {
                  "status": "generated",
                  "div": "<div xmlns=\"http://www.w3.org/1999/xhtml\"><h3>Chemistry</h3><table class=\"hl7__eu__lab__report\"><thead><tr><th>Test</th><th>22-FEB-2017</th><th>Reference&#xA0;Range</th><th>Unit</th></tr></thead><tbody><tr><td>Glucose [Mass/volume] in Blood</td><td>94.3</td><td>70 - 140</td><td>mg/dL</td></tr><tr><td>Urea nitrogen [Mass/volume] in Blood</td><td>13.4</td><td>7 - 30</td><td>mg/dL</td></tr><tr><td>Creatinine [Mass/volume] in Blood</td><td><strong>3.0 H</strong></td><td>0.5 - 1.3</td><td>mg/dL</td></tr><tr><td>Calcium [Mass/volume] in Blood</td><td>8.6</td><td>8.6 - 10.2</td><td>mg/dL</td></tr><tr><td>Sodium [Moles/volume] in Blood</td><td>139.7</td><td>135 - 145</td><td>mmol/L</td></tr><tr><td>Potassium [Moles/volume] in Blood</td><td>4.0</td><td>3.5 - 5.1</td><td>mmol/L</td></tr><tr><td>Chloride [Moles/volume] in Blood</td><td>106.7</td><td>98 - 114</td><td>mmol/L</td></tr><tr><td>Carbon dioxide, total [Moles/volume] in Blood</td><td>27.9</td><td>22 - 32</td><td>mmol/L</td></tr><tr><td>Protein [Mass/volume] in Serum or Plasma</td><td>7.2</td><td>6 - 8.3</td><td>g/dL</td></tr><tr><td>Albumin [Mass/volume] in Serum or Plasma</td><td>3.8</td><td>3.5 - 5.5</td><td>g/dL</td></tr><tr><td>Globulin [Mass/volume] in Serum by calculation</td><td>2.6</td><td>2 - 3.5</td><td>g/L</td></tr><tr><td>Bilirubin.total [Mass/volume] in Serum or Plasma</td><td>1.0</td><td>0.3 - 1.2</td><td>mg/dL</td></tr><tr><td>Alkaline phosphatase [Enzymatic activity/volume] in Serum or Plasma</td><td>106.5</td><td>44 - 142</td><td>U/L</td></tr><tr><td>Alanine aminotransferase [Enzymatic activity/volume] in Serum or Plasma</td><td>25.6</td><td>7 - 40</td><td>U/L</td></tr><tr><td>Aspartate aminotransferase [Enzymatic activity/volume] in Serum or Plasma</td><td>11.9</td><td>10 - 40</td><td>U/L</td></tr><tr><td>Ketones [Presence] in Urine by Test strip</td><td>Urine ketone test = +++</td><td></td><td></td></tr></tbody></table></div>"
                },
                "title": "Chemistry"
              },
              {
                "code": {
                  "coding": [
                    {
                      "code": "$18729-4",
                      "system": "http://loinc.org",
                      "display": "Urinalysis studies (set)"
                    }
                  ],
                  "text": "Urinalysis"
                },
                "entry": [
                  {
                    "reference": "urn:uuid:7814af5e-0827-46cd-b7a3-e267db5e18f8"
                  },
                  {
                    "reference": "urn:uuid:a915501b-a84f-4155-9837-c9766096db46"
                  },
                  {
                    "reference": "urn:uuid:cfddcff8-0292-45a9-a46c-40f2049e6a00"
                  },
                  {
                    "reference": "urn:uuid:353b81e5-463d-4bef-962f-d63b039adb02"
                  },
                  {
                    "reference": "urn:uuid:49948134-a03b-4e45-b861-59a579459737"
                  },
                  {
                    "reference": "urn:uuid:40bb7d2c-ec83-4fcb-8252-23818508bbb6"
                  },
                  {
                    "reference": "urn:uuid:b111d6c3-198e-477c-ab58-de157cf2f426"
                  },
                  {
                    "reference": "urn:uuid:d55ada22-0c1d-4cff-bc43-fb2448e64077"
                  },
                  {
                    "reference": "urn:uuid:ea29425e-db0d-447a-9842-06685e1826f9"
                  },
                  {
                    "reference": "urn:uuid:f211b70f-a8bb-4fdd-88b6-2b80414e596f"
                  },
                  {
                    "reference": "urn:uuid:425268ee-fd68-43f1-816c-aa0c0bc00b65"
                  },
                  {
                    "reference": "urn:uuid:5aa0a91f-7f3b-4dba-8f7a-8b348f0c738b"
                  }
                ],
                "text": {
                  "status": "generated",
                  "div": "<div xmlns=\"http://www.w3.org/1999/xhtml\"><h3>Urinalysis</h3><table class=\"hl7__eu__lab__report\"><thead><tr><th>Test</th><th>22-FEB-2017</th><th>Reference&#xA0;Range</th><th>Unit</th></tr></thead><tbody><tr><td>Glucose [Mass/volume] in Urine by Test strip</td><td><strong>1.7 H</strong></td><td>0.8 - 0</td><td>mg/dL</td></tr><tr><td>Glucose [Presence] in Urine by Test strip</td><td>++</td><td></td><td></td></tr><tr><td>Bilirubin.total [Mass/volume] in Urine by Test strip</td><td>0.7</td><td>0 - 1.5</td><td>mg/dL</td></tr><tr><td>Bilirubin.total [Presence] in Urine by Test strip</td><td>Finding of bilirubin in urine</td><td></td><td></td></tr><tr><td>Ketones [Mass/volume] in Urine by Test strip</td><td><strong>9.1 H</strong></td><td>0 - 8</td><td>mg/dL</td></tr><tr><td>Specific gravity of Urine by Test strip</td><td><strong>1.0 L</strong></td><td>1.01 - 1.03</td><td>{nominal}</td></tr><tr><td>pH of Urine by Test strip</td><td>6.1</td><td>4.6 - 7.5</td><td>pH</td></tr><tr><td>Protein [Mass/volume] in Urine by Test strip</td><td><strong>268.7 H</strong></td><td>0 - 14</td><td>mg/dL</td></tr><tr><td>Protein [Presence] in Urine by Test strip</td><td>Urine protein test = +++</td><td></td><td></td></tr><tr><td>Nitrite [Presence] in Urine by Test strip</td><td>Urine nitrite negative</td><td></td><td></td></tr><tr><td>Hemoglobin [Presence] in Urine by Test strip</td><td>Urine blood test = negative</td><td></td><td></td></tr><tr><td>Leukocyte esterase [Presence] in Urine by Test strip</td><td>Urine leukocyte test negative</td><td></td><td></td></tr></tbody></table></div>"
                },
                "title": "Urinalysis"
              },
              {
                "code": {
                  "coding": [
                    {
                      "code": "$LP7846-1",
                      "system": "http://loinc.org",
                      "display": "Specimen information"
                    }
                  ],
                  "text": "Specimen information"
                },
                "entry": [
                  {
                    "reference": "urn:uuid:ae8ae699-0e8d-4d58-90a7-7c00677bf435"
                  },
                  {
                    "reference": "urn:uuid:a1494661-b91f-47c5-a72f-7f0515066c53"
                  },
                  {
                    "reference": "urn:uuid:2f3c22fd-8028-4cdb-8fe3-edf1a7a1d232"
                  },
                  {
                    "reference": "urn:uuid:0e1fc234-95e5-4b68-81e9-9075c22bf9e7"
                  }
                ],
                "text": {
                  "status": "generated",
                  "div": "<div xmlns=\"http://www.w3.org/1999/xhtml\"><h3>Specimen information</h3><table class=\"hl7__eu__lab__report\"><thead><tr><th>Test</th><th>22-FEB-2017</th><th>Specimen</th><th></th></tr></thead><tbody><tr><td>Appearance of Urine</td><td>Cloudy urine</td><td>Urine</td><td></td></tr><tr><td>Odor of Urine</td><td>Urine smell ammoniacal</td><td>Urine</td><td></td></tr><tr><td>Clarity of Urine</td><td>Translucent</td><td>Urine</td><td></td></tr><tr><td>Color of Urine</td><td>Brown color</td><td>Urine</td><td></td></tr></tbody></table></div>"
                },
                "title": "Specimen information"
              }
            ],
            "title": "Laboratory Report"
          },
          {
            "text": {
              "status": "generated",
              "div": "<div xmlns=\"http://www.w3.org/1999/xhtml\"><h3>Annotation</h3><table class=\"hl7__eu__lab__report\"><tr><th>Conclusion and Recommendations based on this report and previous findings known to us</th></tr><tr><td>The patient shows markedly elevated serum creatinine, indicating significant renal impairment. Urinalysis reveals proteinuria, glucosuria, and ketonuria, with low specific gravity, suggesting impaired renal concentrating ability and possible nephrotic or diabetic kidney involvement. No evidence of urinary tract infection is present. Liver function and electrolytes are within normal limits. Recommend urgent nephrology evaluation and assessment for underlying causes of acute or chronic kidney disease.</td></tr></table></div>"
            },
            "code": {
              "coding": [
                {
                  "system": "http://loinc.org",
                  "code": "48767-8",
                  "display": "Annotation comment"
                }
              ]
            },
            "title": "Annotation comment"
          }
        ],
        "status": "final",
        "subject": {
          "reference": "urn:uuid:f8815771-2784-4ef1-b78d-6eb061a2f114",
          "display": "Maria Nohlmans"
        },
        "date": "2017-02-22T14:03:39Z",
        "title": "Laboratory Report",
        "confidentiality": "N"
      }
    },
    {
      "fullUrl": "urn:uuid:48d026fc-9a97-4f58-8925-c9d84eb05d16",
      "resource": {
        "resourceType": "DiagnosticReport",
        "id": "48d026fc-9a97-4f58-8925-c9d84eb05d16",
        "meta": {
          "profile": [
            "http://hl7.eu/fhir/laboratory/StructureDefinition/DiagnosticReport-eu-lab"
          ]
        },
        "identifier": [
          {
            "assigner": {
              "display": "HL7 Europe"
            },
            "system": "urn:oid:2.16.840.1.113883.2.51.999",
            "value": "11d19e41-1174-4059-84c6-26621967a1c3"
          }
        ],
        "extension": [
          {
            "url": "http://hl7.org/fhir/5.0/StructureDefinition/extension-DiagnosticReport.composition",
            "valueReference": {
              "reference": "urn:uuid:55826518-07c4-4a65-a24a-2657a71ef9a5"
            }
          }
        ],
        "category": [
          {
            "coding": [
              {
                "code": "26436-6",
                "system": "http://loinc.org",
                "display": "Laboratory studies (set)"
              }
            ]
          }
        ],
        "specimen": [
          {
            "reference": "urn:uuid:2e995d25-f1fb-45ba-8658-5d8b036725e0"
          },
          {
            "reference": "urn:uuid:689c4e18-a110-4099-9506-4860f4663be1"
          },
          {
            "reference": "urn:uuid:686c59da-cd56-4478-bcc8-be211c3154ab"
          },
          {
            "reference": "urn:uuid:0d95c74e-fab5-4f77-8239-c838a4215afc"
          }
        ],
        "result": [
          {
            "reference": "urn:uuid:36c01f4c-733a-4584-97e8-54930d1ade0a"
          },
          {
            "reference": "urn:uuid:d62c2ca6-6551-4e81-b1a0-1ccf4d87759c"
          },
          {
            "reference": "urn:uuid:c3ba504f-2f51-4733-8599-d12f5fc7321f"
          },
          {
            "reference": "urn:uuid:6f16aba8-e138-44a2-8dc6-58c35064118f"
          },
          {
            "reference": "urn:uuid:1db3408a-6b34-4693-9123-e7125f847643"
          },
          {
            "reference": "urn:uuid:b97946b1-7ef0-43f3-aa3b-0d4a071df351"
          },
          {
            "reference": "urn:uuid:6fc1f76b-75bf-40a6-b10a-171dd210860a"
          },
          {
            "reference": "urn:uuid:f2edb709-4f59-4031-8c0a-5aaca913d468"
          },
          {
            "reference": "urn:uuid:80255712-39ae-4fce-a299-57436d5d9c49"
          },
          {
            "reference": "urn:uuid:89597135-2bde-4959-9c17-65d8ad1aad33"
          },
          {
            "reference": "urn:uuid:5067995d-ad81-45af-9d80-ddf7717d2939"
          },
          {
            "reference": "urn:uuid:7d4d3056-b8a5-448a-92f3-9fea5eb54847"
          },
          {
            "reference": "urn:uuid:f70d2362-0e92-4223-b30f-1db115ab0a3d"
          },
          {
            "reference": "urn:uuid:c6929dc3-bd6b-4223-af3f-7739948dd7e1"
          },
          {
            "reference": "urn:uuid:d97c4ca5-0f13-43e1-b60d-97b5bb3bd460"
          },
          {
            "reference": "urn:uuid:ae8ae699-0e8d-4d58-90a7-7c00677bf435"
          },
          {
            "reference": "urn:uuid:a1494661-b91f-47c5-a72f-7f0515066c53"
          },
          {
            "reference": "urn:uuid:2f3c22fd-8028-4cdb-8fe3-edf1a7a1d232"
          },
          {
            "reference": "urn:uuid:0e1fc234-95e5-4b68-81e9-9075c22bf9e7"
          },
          {
            "reference": "urn:uuid:7814af5e-0827-46cd-b7a3-e267db5e18f8"
          },
          {
            "reference": "urn:uuid:a915501b-a84f-4155-9837-c9766096db46"
          },
          {
            "reference": "urn:uuid:cfddcff8-0292-45a9-a46c-40f2049e6a00"
          },
          {
            "reference": "urn:uuid:353b81e5-463d-4bef-962f-d63b039adb02"
          },
          {
            "reference": "urn:uuid:49948134-a03b-4e45-b861-59a579459737"
          },
          {
            "reference": "urn:uuid:55453403-9141-4984-b4c0-bd613ae6dd0a"
          },
          {
            "reference": "urn:uuid:40bb7d2c-ec83-4fcb-8252-23818508bbb6"
          },
          {
            "reference": "urn:uuid:b111d6c3-198e-477c-ab58-de157cf2f426"
          },
          {
            "reference": "urn:uuid:d55ada22-0c1d-4cff-bc43-fb2448e64077"
          },
          {
            "reference": "urn:uuid:ea29425e-db0d-447a-9842-06685e1826f9"
          },
          {
            "reference": "urn:uuid:f211b70f-a8bb-4fdd-88b6-2b80414e596f"
          },
          {
            "reference": "urn:uuid:425268ee-fd68-43f1-816c-aa0c0bc00b65"
          },
          {
            "reference": "urn:uuid:5aa0a91f-7f3b-4dba-8f7a-8b348f0c738b"
          }
        ],
        "status": "registered",
        "code": {
          "coding": [
            {
              "code": "11502-2",
              "system": "http://loinc.org",
              "display": "Laboratory report"
            }
          ]
        },
        "subject": {
          "reference": "urn:uuid:f8815771-2784-4ef1-b78d-6eb061a2f114",
          "display": "Maria Nohlmans"
        }
      }
    },
    {
      "fullUrl": "urn:uuid:f8815771-2784-4ef1-b78d-6eb061a2f114",
      "resource": {
        "resourceType": "Patient",
        "id": "f8815771-2784-4ef1-b78d-6eb061a2f114",
        "meta": {
          "security": [
            {
              "system": "http://terminology.hl7.org/CodeSystem/v3-ActReason",
              "code": "HTEST"
            },
            {
              "system": "http://terminology.hl7.org/CodeSystem/v3-ActReason",
              "code": "TRAIN"
            }
          ],
          "tag": [
            {
              "system": "https://synderai.net/fhir/CodeSystem/tags",
              "code": "synthetic",
              "display": "SYNDERAI Synthetic data"
            }
          ],
          "profile": [
            "http://hl7.eu/fhir/base/StructureDefinition/patient-eu-core"
          ]
        },
        "identifier": [
          {
            "type": {
              "coding": [
                {
                  "code": "PT",
                  "system": "http://terminology.hl7.org/CodeSystem/v2-0203"
                }
              ]
            },
            "system": "http://ec.europa.eu/identifier/eci",
            "value": "6886-506417-1"
          },
          {
            "type": {
              "coding": [
                {
                  "code": "MR",
                  "system": "http://terminology.hl7.org/CodeSystem/v2-0203"
                }
              ]
            },
            "system": "http://local.setting.eu/identifier",
            "value": "2cb21ed6-b617-b1f3-2290-589a710de5ee"
          }
        ],
        "name": [
          {
            "family": "Nohlmans"
          },
          {
            "given": [
              "Maria"
            ]
          },
          {
            "text": "Maria Nohlmans"
          }
        ],
        "address": [
          {
            "line": [
              "Alfons-Wulff-Weg 1"
            ],
            "use": "home",
            "type": "physical",
            "postalCode": "25813",
            "city": "Husum",
            "country": "Germany"
          }
        ],
        "telecom": [
          {
            "system": "phone",
            "value": "+49(0)1911 105501"
          }
        ],
        "extension": [
          {
            "url": "http://hl7.org/fhir/StructureDefinition/patient-nationality",
            "valueCodeableConcept": {
              "coding": [
                {
                  "code": "DE",
                  "system": "http://hl7.org/fhir/ValueSet/country"
                }
              ]
            }
          }
        ],
        "text": {
          "status": "generated",
          "div": "<div xmlns=\"http://www.w3.org/1999/xhtml\"><table class=\"hl7__ips\"><tr><td>Maria Nohlmans</td><td>female</td><td>11-Jun-1947</td></tr></table></div>"
        },
        "gender": "female",
        "birthDate": "1947-06-11"
      }
    },
    {
      "fullUrl": "urn:uuid:64ad43e7-42a5-419c-a706-2485515d981d",
      "resource": {
        "resourceType": "ServiceRequest",
        "id": "64ad43e7-42a5-419c-a706-2485515d981d",
        "meta": {
          "profile": [
            "http://hl7.eu/fhir/laboratory/StructureDefinition/ServiceRequest-eu-lab"
          ]
        },
        "identifier": [
          {
            "system": "http://example.org",
            "value": "7b245769-9789-4d75-a11d-408327be76b5"
          }
        ],
        "specimen": [
          {
            "reference": "urn:uuid:2e995d25-f1fb-45ba-8658-5d8b036725e0"
          },
          {
            "reference": "urn:uuid:689c4e18-a110-4099-9506-4860f4663be1"
          },
          {
            "reference": "urn:uuid:686c59da-cd56-4478-bcc8-be211c3154ab"
          },
          {
            "reference": "urn:uuid:0d95c74e-fab5-4f77-8239-c838a4215afc"
          }
        ],
        "reasonCode": [
          {
            "coding": [
              {
                "code": "401314000",
                "system": "http://snomed.info/sct",
                "display": "Acute non-ST segment elevation myocardial infarction"
              }
            ]
          },
          {
            "coding": [
              {
                "code": "157141000119108",
                "system": "http://snomed.info/sct",
                "display": "Proteinuria due to type 2 diabetes mellitus"
              }
            ]
          },
          {
            "coding": [
              {
                "code": "237602007",
                "system": "http://snomed.info/sct",
                "display": "Metabolic syndrome X"
              }
            ]
          },
          {
            "coding": [
              {
                "code": "90781000119102",
                "system": "http://snomed.info/sct",
                "display": "Microalbuminuria due to type 2 diabetes mellitus"
              }
            ]
          },
          {
            "coding": [
              {
                "code": "127013003",
                "system": "http://snomed.info/sct",
                "display": "Disorder of kidney due to diabetes mellitus"
              }
            ]
          },
          {
            "coding": [
              {
                "code": "59621000",
                "system": "http://snomed.info/sct",
                "display": "Essential hypertension"
              }
            ]
          },
          {
            "coding": [
              {
                "code": "271737000",
                "system": "http://snomed.info/sct",
                "display": "Anemia"
              }
            ]
          },
          {
            "coding": [
              {
                "code": "15777000",
                "system": "http://snomed.info/sct",
                "display": "Prediabetes"
              }
            ]
          }
        ],
        "status": "active",
        "intent": "order",
        "code": {
          "coding": [
            {
              "code": "108252007",
              "system": "http://snomed.info/sct",
              "display": "Laboratory procedure"
            }
          ]
        },
        "subject": {
          "reference": "urn:uuid:f8815771-2784-4ef1-b78d-6eb061a2f114",
          "display": "Maria Nohlmans"
        },
        "requester": {
          "reference": "urn:uuid:f12eeeb8-6332-4922-abc7-139e99d5a8fc"
        }
      }
    },
    {
      "fullUrl": "urn:uuid:f12eeeb8-6332-4922-abc7-139e99d5a8fc",
      "resource": {
        "resourceType": "PractitionerRole",
        "id": "f12eeeb8-6332-4922-abc7-139e99d5a8fc",
        "meta": {
          "profile": [
            "http://hl7.eu/fhir/base/StructureDefinition/practitionerRole-eu"
          ]
        },
        "text": {
          "status": "generated",
          "div": "<div xmlns=\"http://www.w3.org/1999/xhtml\">Provider Role Id: f12eeeb8-6332-4922-abc7-139e99d5a8fc</div>"
        },
        "organization": {
          "reference": "urn:uuid:0a92eb1c-e5f6-44ea-9db0-0f8921d1143c"
        }
      }
    },
    {
      "fullUrl": "urn:uuid:0a92eb1c-e5f6-44ea-9db0-0f8921d1143c",
      "resource": {
        "resourceType": "Organization",
        "id": "0a92eb1c-e5f6-44ea-9db0-0f8921d1143c",
        "meta": {
          "profile": [
            "http://hl7.eu/fhir/base/StructureDefinition/organization-eu"
          ]
        },
        "identifier": [
          {
            "assigner": {
              "display": "HL7 Europe"
            },
            "system": "urn:oid:2.16.840.1.113883.2.51.999",
            "value": "19011a4d-b68c-4d1a-8dea-744728b65154"
          }
        ],
        "address": [
          {
            "line": [
              "Brinckmannstraße 35"
            ],
            "city": "Husum",
            "postalCode": "25813",
            "country": "Germany"
          }
        ],
        "text": {
          "status": "generated",
          "div": "<div xmlns=\"http://www.w3.org/1999/xhtml\">Provider Organization: Dr. Wolfram Hussels Kieferorthopäde</div>"
        },
        "name": "Dr. Wolfram Hussels Kieferorthopäde"
      }
    },
    {
      "fullUrl": "urn:uuid:2e995d25-f1fb-45ba-8658-5d8b036725e0",
      "resource": {
        "resourceType": "Specimen",
        "id": "2e995d25-f1fb-45ba-8658-5d8b036725e0",
        "meta": {
          "profile": [
            "http://hl7.eu/fhir/laboratory/StructureDefinition/Specimen-eu-lab"
          ]
        },
        "collection": {
          "collectedDateTime": "2017-02-22"
        },
        "text": {
          "status": "generated",
          "div": "<div xmlns=\"http://www.w3.org/1999/xhtml\"><table class=\"hl7__eu__lab__report\"><tr><th>Specimen</th><th>Collection Date</th></tr><tr><td>Whole blood specimen (specimen)</td><td><span class=\"nb\">22-Feb-2017</span></td></tr></table></div>"
        },
        "type": {
          "coding": [
            {
              "code": "258580003",
              "system": "http://snomed.info/sct",
              "display": "Whole blood specimen (specimen)"
            }
          ]
        }
      }
    },
    {
      "fullUrl": "urn:uuid:689c4e18-a110-4099-9506-4860f4663be1",
      "resource": {
        "resourceType": "Specimen",
        "id": "689c4e18-a110-4099-9506-4860f4663be1",
        "meta": {
          "profile": [
            "http://hl7.eu/fhir/laboratory/StructureDefinition/Specimen-eu-lab"
          ]
        },
        "collection": {
          "collectedDateTime": "2017-02-22"
        },
        "text": {
          "status": "generated",
          "div": "<div xmlns=\"http://www.w3.org/1999/xhtml\"><table class=\"hl7__eu__lab__report\"><tr><th>Specimen</th><th>Collection Date</th></tr><tr><td>Acellular blood (serum or plasma) specimen</td><td><span class=\"nb\">22-Feb-2017</span></td></tr></table></div>"
        },
        "type": {
          "coding": [
            {
              "code": "122592007",
              "system": "http://snomed.info/sct",
              "display": "Acellular blood (serum or plasma) specimen"
            }
          ]
        }
      }
    },
    {
      "fullUrl": "urn:uuid:686c59da-cd56-4478-bcc8-be211c3154ab",
      "resource": {
        "resourceType": "Specimen",
        "id": "686c59da-cd56-4478-bcc8-be211c3154ab",
        "meta": {
          "profile": [
            "http://hl7.eu/fhir/laboratory/StructureDefinition/Specimen-eu-lab"
          ]
        },
        "collection": {
          "collectedDateTime": "2017-02-22"
        },
        "text": {
          "status": "generated",
          "div": "<div xmlns=\"http://www.w3.org/1999/xhtml\"><table class=\"hl7__eu__lab__report\"><tr><th>Specimen</th><th>Collection Date</th></tr><tr><td>Serum specimen</td><td><span class=\"nb\">22-Feb-2017</span></td></tr></table></div>"
        },
        "type": {
          "coding": [
            {
              "code": "119364003",
              "system": "http://snomed.info/sct",
              "display": "Serum specimen"
            }
          ]
        }
      }
    },
    {
      "fullUrl": "urn:uuid:0d95c74e-fab5-4f77-8239-c838a4215afc",
      "resource": {
        "resourceType": "Specimen",
        "id": "0d95c74e-fab5-4f77-8239-c838a4215afc",
        "meta": {
          "profile": [
            "http://hl7.eu/fhir/laboratory/StructureDefinition/Specimen-eu-lab"
          ]
        },
        "collection": {
          "collectedDateTime": "2017-02-22"
        },
        "text": {
          "status": "generated",
          "div": "<div xmlns=\"http://www.w3.org/1999/xhtml\"><table class=\"hl7__eu__lab__report\"><tr><th>Specimen</th><th>Collection Date</th></tr><tr><td>Urine specimen</td><td><span class=\"nb\">22-Feb-2017</span></td></tr></table></div>"
        },
        "type": {
          "coding": [
            {
              "code": "122575003",
              "system": "http://snomed.info/sct",
              "display": "Urine specimen"
            }
          ]
        }
      }
    },
    {
      "fullUrl": "urn:uuid:36c01f4c-733a-4584-97e8-54930d1ade0a",
      "resource": {
        "resourceType": "Observation",
        "id": "36c01f4c-733a-4584-97e8-54930d1ade0a",
        "meta": {
          "profile": [
            "http://hl7.eu/fhir/laboratory/StructureDefinition/Observation-resultslab-eu-lab"
          ]
        },
        "performer": [
          {
            "display": "The Central European Lab"
          }
        ],
        "category": [
          {
            "coding": [
              {
                "system": "http://terminology.hl7.org/CodeSystem/observation-category",
                "code": "laboratory"
              }
            ]
          }
        ],
        "code": {
          "coding": [
            {
              "code": "2339-0",
              "system": "http://loinc.org",
              "display": "Glucose [Mass/volume] in Blood"
            }
          ],
          "text": "Glucose [Mass/volume] in Blood"
        },
        "valueQuantity": {
          "system": "http://unitsofmeasure.org",
          "value": 94.3,
          "unit": "mg/dL",
          "code": "mg/dL"
        },
        "referenceRange": [
          {
            "low": {
              "value": 70,
              "code": "mg/dL",
              "system": "http://unitsofmeasure.org"
            }
          },
          {
            "high": {
              "value": 140,
              "code": "mg/dL",
              "system": "http://unitsofmeasure.org"
            }
          }
        ],
        "text": {
          "status": "generated",
          "div": "<div xmlns=\"http://www.w3.org/1999/xhtml\"><table class=\"hl7__eu__lab__report\"><tr><th>Test</th><th>22-Feb-2017</th><th>Reference&#xA0;Range</th><th>Unit</th></tr><tr><td>Glucose [Mass/volume] in Blood</td><td>94.3</td><td>70 - 140</td><td></td><td>mg/dL</td></tr></table></div>"
        },
        "status": "final",
        "subject": {
          "reference": "urn:uuid:f8815771-2784-4ef1-b78d-6eb061a2f114",
          "display": "Maria Nohlmans"
        },
        "effectiveDateTime": "2017-02-22T13:03:39Z",
        "specimen": {
          "reference": "urn:uuid:2e995d25-f1fb-45ba-8658-5d8b036725e0"
        }
      }
    },
    {
      "fullUrl": "urn:uuid:d62c2ca6-6551-4e81-b1a0-1ccf4d87759c",
      "resource": {
        "resourceType": "Observation",
        "id": "d62c2ca6-6551-4e81-b1a0-1ccf4d87759c",
        "meta": {
          "profile": [
            "http://hl7.eu/fhir/laboratory/StructureDefinition/Observation-resultslab-eu-lab"
          ]
        },
        "performer": [
          {
            "display": "The Central European Lab"
          }
        ],
        "category": [
          {
            "coding": [
              {
                "system": "http://terminology.hl7.org/CodeSystem/observation-category",
                "code": "laboratory"
              }
            ]
          }
        ],
        "code": {
          "coding": [
            {
              "code": "6299-2",
              "system": "http://loinc.org",
              "display": "Urea nitrogen [Mass/volume] in Blood"
            }
          ],
          "text": "Urea nitrogen [Mass/volume] in Blood"
        },
        "valueQuantity": {
          "system": "http://unitsofmeasure.org",
          "value": 13.4,
          "unit": "mg/dL",
          "code": "mg/dL"
        },
        "referenceRange": [
          {
            "low": {
              "value": 7,
              "code": "mg/dL",
              "system": "http://unitsofmeasure.org"
            }
          },
          {
            "high": {
              "value": 30,
              "code": "mg/dL",
              "system": "http://unitsofmeasure.org"
            }
          }
        ],
        "text": {
          "status": "generated",
          "div": "<div xmlns=\"http://www.w3.org/1999/xhtml\"><table class=\"hl7__eu__lab__report\"><tr><th>Test</th><th>22-Feb-2017</th><th>Reference&#xA0;Range</th><th>Unit</th></tr><tr><td>Urea nitrogen [Mass/volume] in Blood</td><td>13.4</td><td>7 - 30</td><td></td><td>mg/dL</td></tr></table></div>"
        },
        "status": "final",
        "subject": {
          "reference": "urn:uuid:f8815771-2784-4ef1-b78d-6eb061a2f114",
          "display": "Maria Nohlmans"
        },
        "effectiveDateTime": "2017-02-22T13:03:39Z",
        "specimen": {
          "reference": "urn:uuid:2e995d25-f1fb-45ba-8658-5d8b036725e0"
        }
      }
    },
    {
      "fullUrl": "urn:uuid:c3ba504f-2f51-4733-8599-d12f5fc7321f",
      "resource": {
        "resourceType": "Observation",
        "id": "c3ba504f-2f51-4733-8599-d12f5fc7321f",
        "meta": {
          "profile": [
            "http://hl7.eu/fhir/laboratory/StructureDefinition/Observation-resultslab-eu-lab"
          ]
        },
        "performer": [
          {
            "display": "The Central European Lab"
          }
        ],
        "category": [
          {
            "coding": [
              {
                "system": "http://terminology.hl7.org/CodeSystem/observation-category",
                "code": "laboratory"
              }
            ]
          }
        ],
        "code": {
          "coding": [
            {
              "code": "38483-4",
              "system": "http://loinc.org",
              "display": "Creatinine [Mass/volume] in Blood"
            }
          ],
          "text": "Creatinine [Mass/volume] in Blood"
        },
        "valueQuantity": {
          "system": "http://unitsofmeasure.org",
          "value": 3,
          "unit": "mg/dL",
          "code": "mg/dL"
        },
        "referenceRange": [
          {
            "low": {
              "value": 0.5,
              "code": "mg/dL",
              "system": "http://unitsofmeasure.org"
            }
          },
          {
            "high": {
              "value": 1.3,
              "code": "mg/dL",
              "system": "http://unitsofmeasure.org"
            }
          }
        ],
        "interpretation": [
          {
            "coding": [
              {
                "code": "H",
                "system": "http://terminology.hl7.org/CodeSystem/v3-ObservationInterpretation",
                "display": "High"
              }
            ]
          }
        ],
        "text": {
          "status": "generated",
          "div": "<div xmlns=\"http://www.w3.org/1999/xhtml\"><table class=\"hl7__eu__lab__report\"><tr><th>Test</th><th>22-Feb-2017</th><th>Reference&#xA0;Range</th><th>Unit</th></tr><tr><td>Creatinine [Mass/volume] in Blood</td><td>3.0</td><td>0.5 - 1.3</td><td>H</td><td>mg/dL</td></tr></table></div>"
        },
        "status": "final",
        "subject": {
          "reference": "urn:uuid:f8815771-2784-4ef1-b78d-6eb061a2f114",
          "display": "Maria Nohlmans"
        },
        "effectiveDateTime": "2017-02-22T13:03:39Z",
        "specimen": {
          "reference": "urn:uuid:2e995d25-f1fb-45ba-8658-5d8b036725e0"
        }
      }
    },
    {
      "fullUrl": "urn:uuid:6f16aba8-e138-44a2-8dc6-58c35064118f",
      "resource": {
        "resourceType": "Observation",
        "id": "6f16aba8-e138-44a2-8dc6-58c35064118f",
        "meta": {
          "profile": [
            "http://hl7.eu/fhir/laboratory/StructureDefinition/Observation-resultslab-eu-lab"
          ]
        },
        "performer": [
          {
            "display": "The Central European Lab"
          }
        ],
        "category": [
          {
            "coding": [
              {
                "system": "http://terminology.hl7.org/CodeSystem/observation-category",
                "code": "laboratory"
              }
            ]
          }
        ],
        "code": {
          "coding": [
            {
              "code": "49765-1",
              "system": "http://loinc.org",
              "display": "Calcium [Mass/volume] in Blood"
            }
          ],
          "text": "Calcium [Mass/volume] in Blood"
        },
        "valueQuantity": {
          "system": "http://unitsofmeasure.org",
          "value": 8.6,
          "unit": "mg/dL",
          "code": "mg/dL"
        },
        "referenceRange": [
          {
            "low": {
              "value": 8.6,
              "code": "mg/dL",
              "system": "http://unitsofmeasure.org"
            }
          },
          {
            "high": {
              "value": 10.2,
              "code": "mg/dL",
              "system": "http://unitsofmeasure.org"
            }
          }
        ],
        "text": {
          "status": "generated",
          "div": "<div xmlns=\"http://www.w3.org/1999/xhtml\"><table class=\"hl7__eu__lab__report\"><tr><th>Test</th><th>22-Feb-2017</th><th>Reference&#xA0;Range</th><th>Unit</th></tr><tr><td>Calcium [Mass/volume] in Blood</td><td>8.6</td><td>8.6 - 10.2</td><td></td><td>mg/dL</td></tr></table></div>"
        },
        "status": "final",
        "subject": {
          "reference": "urn:uuid:f8815771-2784-4ef1-b78d-6eb061a2f114",
          "display": "Maria Nohlmans"
        },
        "effectiveDateTime": "2017-02-22T13:03:39Z",
        "specimen": {
          "reference": "urn:uuid:2e995d25-f1fb-45ba-8658-5d8b036725e0"
        }
      }
    },
    {
      "fullUrl": "urn:uuid:1db3408a-6b34-4693-9123-e7125f847643",
      "resource": {
        "resourceType": "Observation",
        "id": "1db3408a-6b34-4693-9123-e7125f847643",
        "meta": {
          "profile": [
            "http://hl7.eu/fhir/laboratory/StructureDefinition/Observation-resultslab-eu-lab"
          ]
        },
        "performer": [
          {
            "display": "The Central European Lab"
          }
        ],
        "category": [
          {
            "coding": [
              {
                "system": "http://terminology.hl7.org/CodeSystem/observation-category",
                "code": "laboratory"
              }
            ]
          }
        ],
        "code": {
          "coding": [
            {
              "code": "2947-0",
              "system": "http://loinc.org",
              "display": "Sodium [Moles/volume] in Blood"
            }
          ],
          "text": "Sodium [Moles/volume] in Blood"
        },
        "valueQuantity": {
          "system": "http://unitsofmeasure.org",
          "value": 139.7,
          "unit": "mmol/L",
          "code": "mmol/L"
        },
        "referenceRange": [
          {
            "low": {
              "value": 135,
              "code": "mmol/L",
              "system": "http://unitsofmeasure.org"
            }
          },
          {
            "high": {
              "value": 145,
              "code": "mmol/L",
              "system": "http://unitsofmeasure.org"
            }
          }
        ],
        "text": {
          "status": "generated",
          "div": "<div xmlns=\"http://www.w3.org/1999/xhtml\"><table class=\"hl7__eu__lab__report\"><tr><th>Test</th><th>22-Feb-2017</th><th>Reference&#xA0;Range</th><th>Unit</th></tr><tr><td>Sodium [Moles/volume] in Blood</td><td>139.7</td><td>135 - 145</td><td></td><td>mmol/L</td></tr></table></div>"
        },
        "status": "final",
        "subject": {
          "reference": "urn:uuid:f8815771-2784-4ef1-b78d-6eb061a2f114",
          "display": "Maria Nohlmans"
        },
        "effectiveDateTime": "2017-02-22T13:03:39Z",
        "specimen": {
          "reference": "urn:uuid:2e995d25-f1fb-45ba-8658-5d8b036725e0"
        }
      }
    },
    {
      "fullUrl": "urn:uuid:b97946b1-7ef0-43f3-aa3b-0d4a071df351",
      "resource": {
        "resourceType": "Observation",
        "id": "b97946b1-7ef0-43f3-aa3b-0d4a071df351",
        "meta": {
          "profile": [
            "http://hl7.eu/fhir/laboratory/StructureDefinition/Observation-resultslab-eu-lab"
          ]
        },
        "performer": [
          {
            "display": "The Central European Lab"
          }
        ],
        "category": [
          {
            "coding": [
              {
                "system": "http://terminology.hl7.org/CodeSystem/observation-category",
                "code": "laboratory"
              }
            ]
          }
        ],
        "code": {
          "coding": [
            {
              "code": "6298-4",
              "system": "http://loinc.org",
              "display": "Potassium [Moles/volume] in Blood"
            }
          ],
          "text": "Potassium [Moles/volume] in Blood"
        },
        "valueQuantity": {
          "system": "http://unitsofmeasure.org",
          "value": 4,
          "unit": "mmol/L",
          "code": "mmol/L"
        },
        "referenceRange": [
          {
            "low": {
              "value": 3.5,
              "code": "mmol/L",
              "system": "http://unitsofmeasure.org"
            }
          },
          {
            "high": {
              "value": 5.1,
              "code": "mmol/L",
              "system": "http://unitsofmeasure.org"
            }
          }
        ],
        "text": {
          "status": "generated",
          "div": "<div xmlns=\"http://www.w3.org/1999/xhtml\"><table class=\"hl7__eu__lab__report\"><tr><th>Test</th><th>22-Feb-2017</th><th>Reference&#xA0;Range</th><th>Unit</th></tr><tr><td>Potassium [Moles/volume] in Blood</td><td>4.0</td><td>3.5 - 5.1</td><td></td><td>mmol/L</td></tr></table></div>"
        },
        "status": "final",
        "subject": {
          "reference": "urn:uuid:f8815771-2784-4ef1-b78d-6eb061a2f114",
          "display": "Maria Nohlmans"
        },
        "effectiveDateTime": "2017-02-22T13:03:39Z",
        "specimen": {
          "reference": "urn:uuid:2e995d25-f1fb-45ba-8658-5d8b036725e0"
        }
      }
    },
    {
      "fullUrl": "urn:uuid:6fc1f76b-75bf-40a6-b10a-171dd210860a",
      "resource": {
        "resourceType": "Observation",
        "id": "6fc1f76b-75bf-40a6-b10a-171dd210860a",
        "meta": {
          "profile": [
            "http://hl7.eu/fhir/laboratory/StructureDefinition/Observation-resultslab-eu-lab"
          ]
        },
        "performer": [
          {
            "display": "The Central European Lab"
          }
        ],
        "category": [
          {
            "coding": [
              {
                "system": "http://terminology.hl7.org/CodeSystem/observation-category",
                "code": "laboratory"
              }
            ]
          }
        ],
        "code": {
          "coding": [
            {
              "code": "2069-3",
              "system": "http://loinc.org",
              "display": "Chloride [Moles/volume] in Blood"
            }
          ],
          "text": "Chloride [Moles/volume] in Blood"
        },
        "valueQuantity": {
          "system": "http://unitsofmeasure.org",
          "value": 106.7,
          "unit": "mmol/L",
          "code": "mmol/L"
        },
        "referenceRange": [
          {
            "low": {
              "value": 98,
              "code": "mmol/L",
              "system": "http://unitsofmeasure.org"
            }
          },
          {
            "high": {
              "value": 114,
              "code": "mmol/L",
              "system": "http://unitsofmeasure.org"
            }
          }
        ],
        "text": {
          "status": "generated",
          "div": "<div xmlns=\"http://www.w3.org/1999/xhtml\"><table class=\"hl7__eu__lab__report\"><tr><th>Test</th><th>22-Feb-2017</th><th>Reference&#xA0;Range</th><th>Unit</th></tr><tr><td>Chloride [Moles/volume] in Blood</td><td>106.7</td><td>98 - 114</td><td></td><td>mmol/L</td></tr></table></div>"
        },
        "status": "final",
        "subject": {
          "reference": "urn:uuid:f8815771-2784-4ef1-b78d-6eb061a2f114",
          "display": "Maria Nohlmans"
        },
        "effectiveDateTime": "2017-02-22T13:03:39Z",
        "specimen": {
          "reference": "urn:uuid:2e995d25-f1fb-45ba-8658-5d8b036725e0"
        }
      }
    },
    {
      "fullUrl": "urn:uuid:f2edb709-4f59-4031-8c0a-5aaca913d468",
      "resource": {
        "resourceType": "Observation",
        "id": "f2edb709-4f59-4031-8c0a-5aaca913d468",
        "meta": {
          "profile": [
            "http://hl7.eu/fhir/laboratory/StructureDefinition/Observation-resultslab-eu-lab"
          ]
        },
        "performer": [
          {
            "display": "The Central European Lab"
          }
        ],
        "category": [
          {
            "coding": [
              {
                "system": "http://terminology.hl7.org/CodeSystem/observation-category",
                "code": "laboratory"
              }
            ]
          }
        ],
        "code": {
          "coding": [
            {
              "code": "20565-8",
              "system": "http://loinc.org",
              "display": "Carbon dioxide, total [Moles/volume] in Blood"
            }
          ],
          "text": "Carbon dioxide, total [Moles/volume] in Blood"
        },
        "valueQuantity": {
          "system": "http://unitsofmeasure.org",
          "value": 27.9,
          "unit": "mmol/L",
          "code": "mmol/L"
        },
        "referenceRange": [
          {
            "low": {
              "value": 22,
              "code": "mmol/L",
              "system": "http://unitsofmeasure.org"
            }
          },
          {
            "high": {
              "value": 32,
              "code": "mmol/L",
              "system": "http://unitsofmeasure.org"
            }
          }
        ],
        "text": {
          "status": "generated",
          "div": "<div xmlns=\"http://www.w3.org/1999/xhtml\"><table class=\"hl7__eu__lab__report\"><tr><th>Test</th><th>22-Feb-2017</th><th>Reference&#xA0;Range</th><th>Unit</th></tr><tr><td>Carbon dioxide, total [Moles/volume] in Blood</td><td>27.9</td><td>22 - 32</td><td></td><td>mmol/L</td></tr></table></div>"
        },
        "status": "final",
        "subject": {
          "reference": "urn:uuid:f8815771-2784-4ef1-b78d-6eb061a2f114",
          "display": "Maria Nohlmans"
        },
        "effectiveDateTime": "2017-02-22T13:03:39Z",
        "specimen": {
          "reference": "urn:uuid:2e995d25-f1fb-45ba-8658-5d8b036725e0"
        }
      }
    },
    {
      "fullUrl": "urn:uuid:80255712-39ae-4fce-a299-57436d5d9c49",
      "resource": {
        "resourceType": "Observation",
        "id": "80255712-39ae-4fce-a299-57436d5d9c49",
        "meta": {
          "profile": [
            "http://hl7.eu/fhir/laboratory/StructureDefinition/Observation-resultslab-eu-lab"
          ]
        },
        "performer": [
          {
            "display": "The Central European Lab"
          }
        ],
        "category": [
          {
            "coding": [
              {
                "system": "http://terminology.hl7.org/CodeSystem/observation-category",
                "code": "laboratory"
              }
            ]
          }
        ],
        "code": {
          "coding": [
            {
              "code": "2885-2",
              "system": "http://loinc.org",
              "display": "Protein [Mass/volume] in Serum or Plasma"
            }
          ],
          "text": "Protein [Mass/volume] in Serum or Plasma"
        },
        "valueQuantity": {
          "system": "http://unitsofmeasure.org",
          "value": 7.2,
          "unit": "g/dL",
          "code": "g/dL"
        },
        "referenceRange": [
          {
            "low": {
              "value": 6,
              "code": "g/dL",
              "system": "http://unitsofmeasure.org"
            }
          },
          {
            "high": {
              "value": 8.3,
              "code": "g/dL",
              "system": "http://unitsofmeasure.org"
            }
          }
        ],
        "text": {
          "status": "generated",
          "div": "<div xmlns=\"http://www.w3.org/1999/xhtml\"><table class=\"hl7__eu__lab__report\"><tr><th>Test</th><th>22-Feb-2017</th><th>Reference&#xA0;Range</th><th>Unit</th></tr><tr><td>Protein [Mass/volume] in Serum or Plasma</td><td>7.2</td><td>6 - 8.3</td><td></td><td>g/dL</td></tr></table></div>"
        },
        "status": "final",
        "subject": {
          "reference": "urn:uuid:f8815771-2784-4ef1-b78d-6eb061a2f114",
          "display": "Maria Nohlmans"
        },
        "effectiveDateTime": "2017-02-22T13:03:39Z",
        "specimen": {
          "reference": "urn:uuid:689c4e18-a110-4099-9506-4860f4663be1"
        }
      }
    },
    {
      "fullUrl": "urn:uuid:89597135-2bde-4959-9c17-65d8ad1aad33",
      "resource": {
        "resourceType": "Observation",
        "id": "89597135-2bde-4959-9c17-65d8ad1aad33",
        "meta": {
          "profile": [
            "http://hl7.eu/fhir/laboratory/StructureDefinition/Observation-resultslab-eu-lab"
          ]
        },
        "performer": [
          {
            "display": "The Central European Lab"
          }
        ],
        "category": [
          {
            "coding": [
              {
                "system": "http://terminology.hl7.org/CodeSystem/observation-category",
                "code": "laboratory"
              }
            ]
          }
        ],
        "code": {
          "coding": [
            {
              "code": "1751-7",
              "system": "http://loinc.org",
              "display": "Albumin [Mass/volume] in Serum or Plasma"
            }
          ],
          "text": "Albumin [Mass/volume] in Serum or Plasma"
        },
        "valueQuantity": {
          "system": "http://unitsofmeasure.org",
          "value": 3.8,
          "unit": "g/dL",
          "code": "g/dL"
        },
        "referenceRange": [
          {
            "low": {
              "value": 3.5,
              "code": "g/dL",
              "system": "http://unitsofmeasure.org"
            }
          },
          {
            "high": {
              "value": 5.5,
              "code": "g/dL",
              "system": "http://unitsofmeasure.org"
            }
          }
        ],
        "text": {
          "status": "generated",
          "div": "<div xmlns=\"http://www.w3.org/1999/xhtml\"><table class=\"hl7__eu__lab__report\"><tr><th>Test</th><th>22-Feb-2017</th><th>Reference&#xA0;Range</th><th>Unit</th></tr><tr><td>Albumin [Mass/volume] in Serum or Plasma</td><td>3.8</td><td>3.5 - 5.5</td><td></td><td>g/dL</td></tr></table></div>"
        },
        "status": "final",
        "subject": {
          "reference": "urn:uuid:f8815771-2784-4ef1-b78d-6eb061a2f114",
          "display": "Maria Nohlmans"
        },
        "effectiveDateTime": "2017-02-22T13:03:39Z",
        "specimen": {
          "reference": "urn:uuid:689c4e18-a110-4099-9506-4860f4663be1"
        }
      }
    },
    {
      "fullUrl": "urn:uuid:5067995d-ad81-45af-9d80-ddf7717d2939",
      "resource": {
        "resourceType": "Observation",
        "id": "5067995d-ad81-45af-9d80-ddf7717d2939",
        "meta": {
          "profile": [
            "http://hl7.eu/fhir/laboratory/StructureDefinition/Observation-resultslab-eu-lab"
          ]
        },
        "performer": [
          {
            "display": "The Central European Lab"
          }
        ],
        "category": [
          {
            "coding": [
              {
                "system": "http://terminology.hl7.org/CodeSystem/observation-category",
                "code": "laboratory"
              }
            ]
          }
        ],
        "code": {
          "coding": [
            {
              "code": "10834-0",
              "system": "http://loinc.org",
              "display": "Globulin [Mass/volume] in Serum by calculation"
            }
          ],
          "text": "Globulin [Mass/volume] in Serum by calculation"
        },
        "valueQuantity": {
          "system": "http://unitsofmeasure.org",
          "value": 2.6,
          "unit": "g/L",
          "code": "g/L"
        },
        "referenceRange": [
          {
            "low": {
              "value": 2,
              "code": "g/L",
              "system": "http://unitsofmeasure.org"
            }
          },
          {
            "high": {
              "value": 3.5,
              "code": "g/L",
              "system": "http://unitsofmeasure.org"
            }
          }
        ],
        "text": {
          "status": "generated",
          "div": "<div xmlns=\"http://www.w3.org/1999/xhtml\"><table class=\"hl7__eu__lab__report\"><tr><th>Test</th><th>22-Feb-2017</th><th>Reference&#xA0;Range</th><th>Unit</th></tr><tr><td>Globulin [Mass/volume] in Serum by calculation</td><td>2.6</td><td>2 - 3.5</td><td></td><td>g/L</td></tr></table></div>"
        },
        "status": "final",
        "subject": {
          "reference": "urn:uuid:f8815771-2784-4ef1-b78d-6eb061a2f114",
          "display": "Maria Nohlmans"
        },
        "effectiveDateTime": "2017-02-22T13:03:39Z",
        "specimen": {
          "reference": "urn:uuid:686c59da-cd56-4478-bcc8-be211c3154ab"
        }
      }
    },
    {
      "fullUrl": "urn:uuid:7d4d3056-b8a5-448a-92f3-9fea5eb54847",
      "resource": {
        "resourceType": "Observation",
        "id": "7d4d3056-b8a5-448a-92f3-9fea5eb54847",
        "meta": {
          "profile": [
            "http://hl7.eu/fhir/laboratory/StructureDefinition/Observation-resultslab-eu-lab"
          ]
        },
        "performer": [
          {
            "display": "The Central European Lab"
          }
        ],
        "category": [
          {
            "coding": [
              {
                "system": "http://terminology.hl7.org/CodeSystem/observation-category",
                "code": "laboratory"
              }
            ]
          }
        ],
        "code": {
          "coding": [
            {
              "code": "1975-2",
              "system": "http://loinc.org",
              "display": "Bilirubin.total [Mass/volume] in Serum or Plasma"
            }
          ],
          "text": "Bilirubin.total [Mass/volume] in Serum or Plasma"
        },
        "valueQuantity": {
          "system": "http://unitsofmeasure.org",
          "value": 1,
          "unit": "mg/dL",
          "code": "mg/dL"
        },
        "referenceRange": [
          {
            "low": {
              "value": 0.3,
              "code": "mg/dL",
              "system": "http://unitsofmeasure.org"
            }
          },
          {
            "high": {
              "value": 1.2,
              "code": "mg/dL",
              "system": "http://unitsofmeasure.org"
            }
          }
        ],
        "text": {
          "status": "generated",
          "div": "<div xmlns=\"http://www.w3.org/1999/xhtml\"><table class=\"hl7__eu__lab__report\"><tr><th>Test</th><th>22-Feb-2017</th><th>Reference&#xA0;Range</th><th>Unit</th></tr><tr><td>Bilirubin.total [Mass/volume] in Serum or Plasma</td><td>1.0</td><td>0.3 - 1.2</td><td></td><td>mg/dL</td></tr></table></div>"
        },
        "status": "final",
        "subject": {
          "reference": "urn:uuid:f8815771-2784-4ef1-b78d-6eb061a2f114",
          "display": "Maria Nohlmans"
        },
        "effectiveDateTime": "2017-02-22T13:03:39Z",
        "specimen": {
          "reference": "urn:uuid:689c4e18-a110-4099-9506-4860f4663be1"
        }
      }
    },
    {
      "fullUrl": "urn:uuid:f70d2362-0e92-4223-b30f-1db115ab0a3d",
      "resource": {
        "resourceType": "Observation",
        "id": "f70d2362-0e92-4223-b30f-1db115ab0a3d",
        "meta": {
          "profile": [
            "http://hl7.eu/fhir/laboratory/StructureDefinition/Observation-resultslab-eu-lab"
          ]
        },
        "performer": [
          {
            "display": "The Central European Lab"
          }
        ],
        "category": [
          {
            "coding": [
              {
                "system": "http://terminology.hl7.org/CodeSystem/observation-category",
                "code": "laboratory"
              }
            ]
          }
        ],
        "code": {
          "coding": [
            {
              "code": "6768-6",
              "system": "http://loinc.org",
              "display": "Alkaline phosphatase [Enzymatic activity/volume] in Serum or Plasma"
            }
          ],
          "text": "Alkaline phosphatase [Enzymatic activity/volume] in Serum or Plasma"
        },
        "valueQuantity": {
          "system": "http://unitsofmeasure.org",
          "value": 106.5,
          "unit": "U/L",
          "code": "U/L"
        },
        "referenceRange": [
          {
            "low": {
              "value": 44,
              "code": "U/L",
              "system": "http://unitsofmeasure.org"
            }
          },
          {
            "high": {
              "value": 142,
              "code": "U/L",
              "system": "http://unitsofmeasure.org"
            }
          }
        ],
        "text": {
          "status": "generated",
          "div": "<div xmlns=\"http://www.w3.org/1999/xhtml\"><table class=\"hl7__eu__lab__report\"><tr><th>Test</th><th>22-Feb-2017</th><th>Reference&#xA0;Range</th><th>Unit</th></tr><tr><td>Alkaline phosphatase [Enzymatic activity/volume] in Serum or Plasma</td><td>106.5</td><td>44 - 142</td><td></td><td>U/L</td></tr></table></div>"
        },
        "status": "final",
        "subject": {
          "reference": "urn:uuid:f8815771-2784-4ef1-b78d-6eb061a2f114",
          "display": "Maria Nohlmans"
        },
        "effectiveDateTime": "2017-02-22T13:03:39Z",
        "specimen": {
          "reference": "urn:uuid:689c4e18-a110-4099-9506-4860f4663be1"
        }
      }
    },
    {
      "fullUrl": "urn:uuid:c6929dc3-bd6b-4223-af3f-7739948dd7e1",
      "resource": {
        "resourceType": "Observation",
        "id": "c6929dc3-bd6b-4223-af3f-7739948dd7e1",
        "meta": {
          "profile": [
            "http://hl7.eu/fhir/laboratory/StructureDefinition/Observation-resultslab-eu-lab"
          ]
        },
        "performer": [
          {
            "display": "The Central European Lab"
          }
        ],
        "category": [
          {
            "coding": [
              {
                "system": "http://terminology.hl7.org/CodeSystem/observation-category",
                "code": "laboratory"
              }
            ]
          }
        ],
        "code": {
          "coding": [
            {
              "code": "1742-6",
              "system": "http://loinc.org",
              "display": "Alanine aminotransferase [Enzymatic activity/volume] in Serum or Plasma"
            }
          ],
          "text": "Alanine aminotransferase [Enzymatic activity/volume] in Serum or Plasma"
        },
        "valueQuantity": {
          "system": "http://unitsofmeasure.org",
          "value": 25.6,
          "unit": "U/L",
          "code": "U/L"
        },
        "referenceRange": [
          {
            "low": {
              "value": 7,
              "code": "U/L",
              "system": "http://unitsofmeasure.org"
            }
          },
          {
            "high": {
              "value": 40,
              "code": "U/L",
              "system": "http://unitsofmeasure.org"
            }
          }
        ],
        "text": {
          "status": "generated",
          "div": "<div xmlns=\"http://www.w3.org/1999/xhtml\"><table class=\"hl7__eu__lab__report\"><tr><th>Test</th><th>22-Feb-2017</th><th>Reference&#xA0;Range</th><th>Unit</th></tr><tr><td>Alanine aminotransferase [Enzymatic activity/volume] in Serum or Plasma</td><td>25.6</td><td>7 - 40</td><td></td><td>U/L</td></tr></table></div>"
        },
        "status": "final",
        "subject": {
          "reference": "urn:uuid:f8815771-2784-4ef1-b78d-6eb061a2f114",
          "display": "Maria Nohlmans"
        },
        "effectiveDateTime": "2017-02-22T13:03:39Z",
        "specimen": {
          "reference": "urn:uuid:689c4e18-a110-4099-9506-4860f4663be1"
        }
      }
    },
    {
      "fullUrl": "urn:uuid:d97c4ca5-0f13-43e1-b60d-97b5bb3bd460",
      "resource": {
        "resourceType": "Observation",
        "id": "d97c4ca5-0f13-43e1-b60d-97b5bb3bd460",
        "meta": {
          "profile": [
            "http://hl7.eu/fhir/laboratory/StructureDefinition/Observation-resultslab-eu-lab"
          ]
        },
        "performer": [
          {
            "display": "The Central European Lab"
          }
        ],
        "category": [
          {
            "coding": [
              {
                "system": "http://terminology.hl7.org/CodeSystem/observation-category",
                "code": "laboratory"
              }
            ]
          }
        ],
        "code": {
          "coding": [
            {
              "code": "1920-8",
              "system": "http://loinc.org",
              "display": "Aspartate aminotransferase [Enzymatic activity/volume] in Serum or Plasma"
            }
          ],
          "text": "Aspartate aminotransferase [Enzymatic activity/volume] in Serum or Plasma"
        },
        "valueQuantity": {
          "system": "http://unitsofmeasure.org",
          "value": 11.9,
          "unit": "U/L",
          "code": "U/L"
        },
        "referenceRange": [
          {
            "low": {
              "value": 10,
              "code": "U/L",
              "system": "http://unitsofmeasure.org"
            }
          },
          {
            "high": {
              "value": 40,
              "code": "U/L",
              "system": "http://unitsofmeasure.org"
            }
          }
        ],
        "text": {
          "status": "generated",
          "div": "<div xmlns=\"http://www.w3.org/1999/xhtml\"><table class=\"hl7__eu__lab__report\"><tr><th>Test</th><th>22-Feb-2017</th><th>Reference&#xA0;Range</th><th>Unit</th></tr><tr><td>Aspartate aminotransferase [Enzymatic activity/volume] in Serum or Plasma</td><td>11.9</td><td>10 - 40</td><td></td><td>U/L</td></tr></table></div>"
        },
        "status": "final",
        "subject": {
          "reference": "urn:uuid:f8815771-2784-4ef1-b78d-6eb061a2f114",
          "display": "Maria Nohlmans"
        },
        "effectiveDateTime": "2017-02-22T13:03:39Z",
        "specimen": {
          "reference": "urn:uuid:689c4e18-a110-4099-9506-4860f4663be1"
        }
      }
    },
    {
      "fullUrl": "urn:uuid:ae8ae699-0e8d-4d58-90a7-7c00677bf435",
      "resource": {
        "resourceType": "Observation",
        "id": "ae8ae699-0e8d-4d58-90a7-7c00677bf435",
        "meta": {
          "profile": [
            "http://hl7.eu/fhir/laboratory/StructureDefinition/Observation-resultslab-eu-lab"
          ]
        },
        "performer": [
          {
            "display": "The Central European Lab"
          }
        ],
        "category": [
          {
            "coding": [
              {
                "system": "http://terminology.hl7.org/CodeSystem/observation-category",
                "code": "laboratory"
              }
            ]
          }
        ],
        "code": {
          "coding": [
            {
              "code": "5767-9",
              "system": "http://loinc.org",
              "display": "Appearance of Urine"
            }
          ],
          "text": "Appearance of Urine"
        },
        "text": {
          "status": "generated",
          "div": "<div xmlns=\"http://www.w3.org/1999/xhtml\"><table class=\"hl7__eu__lab__report\"><tr><th>Test</th><th>22-Feb-2017</th><th>Reference&#xA0;Range</th><th>Unit</th></tr><tr><td>Appearance of Urine</td></tr></table></div>"
        },
        "status": "final",
        "subject": {
          "reference": "urn:uuid:f8815771-2784-4ef1-b78d-6eb061a2f114",
          "display": "Maria Nohlmans"
        },
        "effectiveDateTime": "2017-02-22T13:03:39Z",
        "specimen": {
          "reference": "urn:uuid:0d95c74e-fab5-4f77-8239-c838a4215afc"
        }
      }
    },
    {
      "fullUrl": "urn:uuid:a1494661-b91f-47c5-a72f-7f0515066c53",
      "resource": {
        "resourceType": "Observation",
        "id": "a1494661-b91f-47c5-a72f-7f0515066c53",
        "meta": {
          "profile": [
            "http://hl7.eu/fhir/laboratory/StructureDefinition/Observation-resultslab-eu-lab"
          ]
        },
        "performer": [
          {
            "display": "The Central European Lab"
          }
        ],
        "category": [
          {
            "coding": [
              {
                "system": "http://terminology.hl7.org/CodeSystem/observation-category",
                "code": "laboratory"
              }
            ]
          }
        ],
        "code": {
          "coding": [
            {
              "code": "34533-0",
              "system": "http://loinc.org",
              "display": "Odor of Urine"
            }
          ],
          "text": "Odor of Urine"
        },
        "text": {
          "status": "generated",
          "div": "<div xmlns=\"http://www.w3.org/1999/xhtml\"><table class=\"hl7__eu__lab__report\"><tr><th>Test</th><th>22-Feb-2017</th><th>Reference&#xA0;Range</th><th>Unit</th></tr><tr><td>Odor of Urine</td></tr></table></div>"
        },
        "status": "final",
        "subject": {
          "reference": "urn:uuid:f8815771-2784-4ef1-b78d-6eb061a2f114",
          "display": "Maria Nohlmans"
        },
        "effectiveDateTime": "2017-02-22T13:03:39Z",
        "specimen": {
          "reference": "urn:uuid:0d95c74e-fab5-4f77-8239-c838a4215afc"
        }
      }
    },
    {
      "fullUrl": "urn:uuid:2f3c22fd-8028-4cdb-8fe3-edf1a7a1d232",
      "resource": {
        "resourceType": "Observation",
        "id": "2f3c22fd-8028-4cdb-8fe3-edf1a7a1d232",
        "meta": {
          "profile": [
            "http://hl7.eu/fhir/laboratory/StructureDefinition/Observation-resultslab-eu-lab"
          ]
        },
        "performer": [
          {
            "display": "The Central European Lab"
          }
        ],
        "category": [
          {
            "coding": [
              {
                "system": "http://terminology.hl7.org/CodeSystem/observation-category",
                "code": "laboratory"
              }
            ]
          }
        ],
        "code": {
          "coding": [
            {
              "code": "32167-9",
              "system": "http://loinc.org",
              "display": "Clarity of Urine"
            }
          ],
          "text": "Clarity of Urine"
        },
        "text": {
          "status": "generated",
          "div": "<div xmlns=\"http://www.w3.org/1999/xhtml\"><table class=\"hl7__eu__lab__report\"><tr><th>Test</th><th>22-Feb-2017</th><th>Reference&#xA0;Range</th><th>Unit</th></tr><tr><td>Clarity of Urine</td></tr></table></div>"
        },
        "status": "final",
        "subject": {
          "reference": "urn:uuid:f8815771-2784-4ef1-b78d-6eb061a2f114",
          "display": "Maria Nohlmans"
        },
        "effectiveDateTime": "2017-02-22T13:03:39Z",
        "specimen": {
          "reference": "urn:uuid:0d95c74e-fab5-4f77-8239-c838a4215afc"
        }
      }
    },
    {
      "fullUrl": "urn:uuid:0e1fc234-95e5-4b68-81e9-9075c22bf9e7",
      "resource": {
        "resourceType": "Observation",
        "id": "0e1fc234-95e5-4b68-81e9-9075c22bf9e7",
        "meta": {
          "profile": [
            "http://hl7.eu/fhir/laboratory/StructureDefinition/Observation-resultslab-eu-lab"
          ]
        },
        "performer": [
          {
            "display": "The Central European Lab"
          }
        ],
        "category": [
          {
            "coding": [
              {
                "system": "http://terminology.hl7.org/CodeSystem/observation-category",
                "code": "laboratory"
              }
            ]
          }
        ],
        "code": {
          "coding": [
            {
              "code": "5778-6",
              "system": "http://loinc.org",
              "display": "Color of Urine"
            }
          ],
          "text": "Color of Urine"
        },
        "text": {
          "status": "generated",
          "div": "<div xmlns=\"http://www.w3.org/1999/xhtml\"><table class=\"hl7__eu__lab__report\"><tr><th>Test</th><th>22-Feb-2017</th><th>Reference&#xA0;Range</th><th>Unit</th></tr><tr><td>Color of Urine</td></tr></table></div>"
        },
        "status": "final",
        "subject": {
          "reference": "urn:uuid:f8815771-2784-4ef1-b78d-6eb061a2f114",
          "display": "Maria Nohlmans"
        },
        "effectiveDateTime": "2017-02-22T13:03:39Z",
        "specimen": {
          "reference": "urn:uuid:0d95c74e-fab5-4f77-8239-c838a4215afc"
        }
      }
    },
    {
      "fullUrl": "urn:uuid:7814af5e-0827-46cd-b7a3-e267db5e18f8",
      "resource": {
        "resourceType": "Observation",
        "id": "7814af5e-0827-46cd-b7a3-e267db5e18f8",
        "meta": {
          "profile": [
            "http://hl7.eu/fhir/laboratory/StructureDefinition/Observation-resultslab-eu-lab"
          ]
        },
        "performer": [
          {
            "display": "The Central European Lab"
          }
        ],
        "category": [
          {
            "coding": [
              {
                "system": "http://terminology.hl7.org/CodeSystem/observation-category",
                "code": "laboratory"
              }
            ]
          }
        ],
        "code": {
          "coding": [
            {
              "code": "5792-7",
              "system": "http://loinc.org",
              "display": "Glucose [Mass/volume] in Urine by Test strip"
            }
          ],
          "text": "Glucose [Mass/volume] in Urine by Test strip"
        },
        "valueQuantity": {
          "system": "http://unitsofmeasure.org",
          "value": 1.7,
          "unit": "mg/dL",
          "code": "mg/dL"
        },
        "referenceRange": [
          {
            "low": {
              "value": 0.8,
              "code": "mg/dL",
              "system": "http://unitsofmeasure.org"
            }
          },
          {
            "high": {
              "value": 0,
              "code": "mg/dL",
              "system": "http://unitsofmeasure.org"
            }
          }
        ],
        "interpretation": [
          {
            "coding": [
              {
                "code": "H",
                "system": "http://terminology.hl7.org/CodeSystem/v3-ObservationInterpretation",
                "display": "High"
              }
            ]
          }
        ],
        "text": {
          "status": "generated",
          "div": "<div xmlns=\"http://www.w3.org/1999/xhtml\"><table class=\"hl7__eu__lab__report\"><tr><th>Test</th><th>22-Feb-2017</th><th>Reference&#xA0;Range</th><th>Unit</th></tr><tr><td>Glucose [Mass/volume] in Urine by Test strip</td><td>1.7</td><td>0.8 - 0</td><td>H</td><td>mg/dL</td></tr></table></div>"
        },
        "status": "final",
        "subject": {
          "reference": "urn:uuid:f8815771-2784-4ef1-b78d-6eb061a2f114",
          "display": "Maria Nohlmans"
        },
        "effectiveDateTime": "2017-02-22T13:03:39Z",
        "specimen": {
          "reference": "urn:uuid:0d95c74e-fab5-4f77-8239-c838a4215afc"
        }
      }
    },
    {
      "fullUrl": "urn:uuid:a915501b-a84f-4155-9837-c9766096db46",
      "resource": {
        "resourceType": "Observation",
        "id": "a915501b-a84f-4155-9837-c9766096db46",
        "meta": {
          "profile": [
            "http://hl7.eu/fhir/laboratory/StructureDefinition/Observation-resultslab-eu-lab"
          ]
        },
        "performer": [
          {
            "display": "The Central European Lab"
          }
        ],
        "category": [
          {
            "coding": [
              {
                "system": "http://terminology.hl7.org/CodeSystem/observation-category",
                "code": "laboratory"
              }
            ]
          }
        ],
        "code": {
          "coding": [
            {
              "code": "25428-4",
              "system": "http://loinc.org",
              "display": "Glucose [Presence] in Urine by Test strip"
            }
          ],
          "text": "Glucose [Presence] in Urine by Test strip"
        },
        "text": {
          "status": "generated",
          "div": "<div xmlns=\"http://www.w3.org/1999/xhtml\"><table class=\"hl7__eu__lab__report\"><tr><th>Test</th><th>22-Feb-2017</th><th>Reference&#xA0;Range</th><th>Unit</th></tr><tr><td>Glucose [Presence] in Urine by Test strip</td></tr></table></div>"
        },
        "status": "final",
        "subject": {
          "reference": "urn:uuid:f8815771-2784-4ef1-b78d-6eb061a2f114",
          "display": "Maria Nohlmans"
        },
        "effectiveDateTime": "2017-02-22T13:03:39Z",
        "specimen": {
          "reference": "urn:uuid:0d95c74e-fab5-4f77-8239-c838a4215afc"
        }
      }
    },
    {
      "fullUrl": "urn:uuid:cfddcff8-0292-45a9-a46c-40f2049e6a00",
      "resource": {
        "resourceType": "Observation",
        "id": "cfddcff8-0292-45a9-a46c-40f2049e6a00",
        "meta": {
          "profile": [
            "http://hl7.eu/fhir/laboratory/StructureDefinition/Observation-resultslab-eu-lab"
          ]
        },
        "performer": [
          {
            "display": "The Central European Lab"
          }
        ],
        "category": [
          {
            "coding": [
              {
                "system": "http://terminology.hl7.org/CodeSystem/observation-category",
                "code": "laboratory"
              }
            ]
          }
        ],
        "code": {
          "coding": [
            {
              "code": "20505-4",
              "system": "http://loinc.org",
              "display": "Bilirubin.total [Mass/volume] in Urine by Test strip"
            }
          ],
          "text": "Bilirubin.total [Mass/volume] in Urine by Test strip"
        },
        "valueQuantity": {
          "system": "http://unitsofmeasure.org",
          "value": 0.7,
          "unit": "mg/dL",
          "code": "mg/dL"
        },
        "referenceRange": [
          {
            "low": {
              "value": 0,
              "code": "mg/dL",
              "system": "http://unitsofmeasure.org"
            }
          },
          {
            "high": {
              "value": 1.5,
              "code": "mg/dL",
              "system": "http://unitsofmeasure.org"
            }
          }
        ],
        "text": {
          "status": "generated",
          "div": "<div xmlns=\"http://www.w3.org/1999/xhtml\"><table class=\"hl7__eu__lab__report\"><tr><th>Test</th><th>22-Feb-2017</th><th>Reference&#xA0;Range</th><th>Unit</th></tr><tr><td>Bilirubin.total [Mass/volume] in Urine by Test strip</td><td>0.7</td><td>0 - 1.5</td><td></td><td>mg/dL</td></tr></table></div>"
        },
        "status": "final",
        "subject": {
          "reference": "urn:uuid:f8815771-2784-4ef1-b78d-6eb061a2f114",
          "display": "Maria Nohlmans"
        },
        "effectiveDateTime": "2017-02-22T13:03:39Z",
        "specimen": {
          "reference": "urn:uuid:0d95c74e-fab5-4f77-8239-c838a4215afc"
        }
      }
    },
    {
      "fullUrl": "urn:uuid:353b81e5-463d-4bef-962f-d63b039adb02",
      "resource": {
        "resourceType": "Observation",
        "id": "353b81e5-463d-4bef-962f-d63b039adb02",
        "meta": {
          "profile": [
            "http://hl7.eu/fhir/laboratory/StructureDefinition/Observation-resultslab-eu-lab"
          ]
        },
        "performer": [
          {
            "display": "The Central European Lab"
          }
        ],
        "category": [
          {
            "coding": [
              {
                "system": "http://terminology.hl7.org/CodeSystem/observation-category",
                "code": "laboratory"
              }
            ]
          }
        ],
        "code": {
          "coding": [
            {
              "code": "5770-3",
              "system": "http://loinc.org",
              "display": "Bilirubin.total [Presence] in Urine by Test strip"
            }
          ],
          "text": "Bilirubin.total [Presence] in Urine by Test strip"
        },
        "text": {
          "status": "generated",
          "div": "<div xmlns=\"http://www.w3.org/1999/xhtml\"><table class=\"hl7__eu__lab__report\"><tr><th>Test</th><th>22-Feb-2017</th><th>Reference&#xA0;Range</th><th>Unit</th></tr><tr><td>Bilirubin.total [Presence] in Urine by Test strip</td></tr></table></div>"
        },
        "status": "final",
        "subject": {
          "reference": "urn:uuid:f8815771-2784-4ef1-b78d-6eb061a2f114",
          "display": "Maria Nohlmans"
        },
        "effectiveDateTime": "2017-02-22T13:03:39Z",
        "specimen": {
          "reference": "urn:uuid:0d95c74e-fab5-4f77-8239-c838a4215afc"
        }
      }
    },
    {
      "fullUrl": "urn:uuid:49948134-a03b-4e45-b861-59a579459737",
      "resource": {
        "resourceType": "Observation",
        "id": "49948134-a03b-4e45-b861-59a579459737",
        "meta": {
          "profile": [
            "http://hl7.eu/fhir/laboratory/StructureDefinition/Observation-resultslab-eu-lab"
          ]
        },
        "performer": [
          {
            "display": "The Central European Lab"
          }
        ],
        "category": [
          {
            "coding": [
              {
                "system": "http://terminology.hl7.org/CodeSystem/observation-category",
                "code": "laboratory"
              }
            ]
          }
        ],
        "code": {
          "coding": [
            {
              "code": "5797-6",
              "system": "http://loinc.org",
              "display": "Ketones [Mass/volume] in Urine by Test strip"
            }
          ],
          "text": "Ketones [Mass/volume] in Urine by Test strip"
        },
        "valueQuantity": {
          "system": "http://unitsofmeasure.org",
          "value": 9.1,
          "unit": "mg/dL",
          "code": "mg/dL"
        },
        "referenceRange": [
          {
            "low": {
              "value": 0,
              "code": "mg/dL",
              "system": "http://unitsofmeasure.org"
            }
          },
          {
            "high": {
              "value": 8,
              "code": "mg/dL",
              "system": "http://unitsofmeasure.org"
            }
          }
        ],
        "interpretation": [
          {
            "coding": [
              {
                "code": "H",
                "system": "http://terminology.hl7.org/CodeSystem/v3-ObservationInterpretation",
                "display": "High"
              }
            ]
          }
        ],
        "text": {
          "status": "generated",
          "div": "<div xmlns=\"http://www.w3.org/1999/xhtml\"><table class=\"hl7__eu__lab__report\"><tr><th>Test</th><th>22-Feb-2017</th><th>Reference&#xA0;Range</th><th>Unit</th></tr><tr><td>Ketones [Mass/volume] in Urine by Test strip</td><td>9.1</td><td>0 - 8</td><td>H</td><td>mg/dL</td></tr></table></div>"
        },
        "status": "final",
        "subject": {
          "reference": "urn:uuid:f8815771-2784-4ef1-b78d-6eb061a2f114",
          "display": "Maria Nohlmans"
        },
        "effectiveDateTime": "2017-02-22T13:03:39Z",
        "specimen": {
          "reference": "urn:uuid:0d95c74e-fab5-4f77-8239-c838a4215afc"
        }
      }
    },
    {
      "fullUrl": "urn:uuid:55453403-9141-4984-b4c0-bd613ae6dd0a",
      "resource": {
        "resourceType": "Observation",
        "id": "55453403-9141-4984-b4c0-bd613ae6dd0a",
        "meta": {
          "profile": [
            "http://hl7.eu/fhir/laboratory/StructureDefinition/Observation-resultslab-eu-lab"
          ]
        },
        "performer": [
          {
            "display": "The Central European Lab"
          }
        ],
        "category": [
          {
            "coding": [
              {
                "system": "http://terminology.hl7.org/CodeSystem/observation-category",
                "code": "laboratory"
              }
            ]
          }
        ],
        "code": {
          "coding": [
            {
              "code": "2514-8",
              "system": "http://loinc.org",
              "display": "Ketones [Presence] in Urine by Test strip"
            }
          ],
          "text": "Ketones [Presence] in Urine by Test strip"
        },
        "text": {
          "status": "generated",
          "div": "<div xmlns=\"http://www.w3.org/1999/xhtml\"><table class=\"hl7__eu__lab__report\"><tr><th>Test</th><th>22-Feb-2017</th><th>Reference&#xA0;Range</th><th>Unit</th></tr><tr><td>Ketones [Presence] in Urine by Test strip</td></tr></table></div>"
        },
        "status": "final",
        "subject": {
          "reference": "urn:uuid:f8815771-2784-4ef1-b78d-6eb061a2f114",
          "display": "Maria Nohlmans"
        },
        "effectiveDateTime": "2017-02-22T13:03:39Z",
        "specimen": {
          "reference": "urn:uuid:0d95c74e-fab5-4f77-8239-c838a4215afc"
        }
      }
    },
    {
      "fullUrl": "urn:uuid:40bb7d2c-ec83-4fcb-8252-23818508bbb6",
      "resource": {
        "resourceType": "Observation",
        "id": "40bb7d2c-ec83-4fcb-8252-23818508bbb6",
        "meta": {
          "profile": [
            "http://hl7.eu/fhir/laboratory/StructureDefinition/Observation-resultslab-eu-lab"
          ]
        },
        "performer": [
          {
            "display": "The Central European Lab"
          }
        ],
        "category": [
          {
            "coding": [
              {
                "system": "http://terminology.hl7.org/CodeSystem/observation-category",
                "code": "laboratory"
              }
            ]
          }
        ],
        "code": {
          "coding": [
            {
              "code": "5811-5",
              "system": "http://loinc.org",
              "display": "Specific gravity of Urine by Test strip"
            }
          ],
          "text": "Specific gravity of Urine by Test strip"
        },
        "valueQuantity": {
          "system": "http://unitsofmeasure.org",
          "value": 1,
          "unit": "{nominal}",
          "code": "{nominal}"
        },
        "referenceRange": [
          {
            "low": {
              "value": 1.01,
              "code": "g/mL",
              "system": "http://unitsofmeasure.org"
            }
          },
          {
            "high": {
              "value": 1.03,
              "code": "g/mL",
              "system": "http://unitsofmeasure.org"
            }
          }
        ],
        "interpretation": [
          {
            "coding": [
              {
                "code": "L",
                "system": "http://terminology.hl7.org/CodeSystem/v3-ObservationInterpretation",
                "display": "Low"
              }
            ]
          }
        ],
        "text": {
          "status": "generated",
          "div": "<div xmlns=\"http://www.w3.org/1999/xhtml\"><table class=\"hl7__eu__lab__report\"><tr><th>Test</th><th>22-Feb-2017</th><th>Reference&#xA0;Range</th><th>Unit</th></tr><tr><td>Specific gravity of Urine by Test strip</td><td>1.0</td><td>1.01 - 1.03</td><td>L</td><td>{nominal}</td></tr></table></div>"
        },
        "status": "final",
        "subject": {
          "reference": "urn:uuid:f8815771-2784-4ef1-b78d-6eb061a2f114",
          "display": "Maria Nohlmans"
        },
        "effectiveDateTime": "2017-02-22T13:03:39Z",
        "specimen": {
          "reference": "urn:uuid:0d95c74e-fab5-4f77-8239-c838a4215afc"
        }
      }
    },
    {
      "fullUrl": "urn:uuid:b111d6c3-198e-477c-ab58-de157cf2f426",
      "resource": {
        "resourceType": "Observation",
        "id": "b111d6c3-198e-477c-ab58-de157cf2f426",
        "meta": {
          "profile": [
            "http://hl7.eu/fhir/laboratory/StructureDefinition/Observation-resultslab-eu-lab"
          ]
        },
        "performer": [
          {
            "display": "The Central European Lab"
          }
        ],
        "category": [
          {
            "coding": [
              {
                "system": "http://terminology.hl7.org/CodeSystem/observation-category",
                "code": "laboratory"
              }
            ]
          }
        ],
        "code": {
          "coding": [
            {
              "code": "5803-2",
              "system": "http://loinc.org",
              "display": "pH of Urine by Test strip"
            }
          ],
          "text": "pH of Urine by Test strip"
        },
        "valueQuantity": {
          "system": "http://unitsofmeasure.org",
          "value": 6.1,
          "unit": "pH",
          "code": "pH"
        },
        "referenceRange": [
          {
            "low": {
              "value": 4.6,
              "code": "pH",
              "system": "http://unitsofmeasure.org"
            }
          },
          {
            "high": {
              "value": 7.5,
              "code": "pH",
              "system": "http://unitsofmeasure.org"
            }
          }
        ],
        "text": {
          "status": "generated",
          "div": "<div xmlns=\"http://www.w3.org/1999/xhtml\"><table class=\"hl7__eu__lab__report\"><tr><th>Test</th><th>22-Feb-2017</th><th>Reference&#xA0;Range</th><th>Unit</th></tr><tr><td>pH of Urine by Test strip</td><td>6.1</td><td>4.6 - 7.5</td><td></td><td>pH</td></tr></table></div>"
        },
        "status": "final",
        "subject": {
          "reference": "urn:uuid:f8815771-2784-4ef1-b78d-6eb061a2f114",
          "display": "Maria Nohlmans"
        },
        "effectiveDateTime": "2017-02-22T13:03:39Z",
        "specimen": {
          "reference": "urn:uuid:0d95c74e-fab5-4f77-8239-c838a4215afc"
        }
      }
    },
    {
      "fullUrl": "urn:uuid:d55ada22-0c1d-4cff-bc43-fb2448e64077",
      "resource": {
        "resourceType": "Observation",
        "id": "d55ada22-0c1d-4cff-bc43-fb2448e64077",
        "meta": {
          "profile": [
            "http://hl7.eu/fhir/laboratory/StructureDefinition/Observation-resultslab-eu-lab"
          ]
        },
        "performer": [
          {
            "display": "The Central European Lab"
          }
        ],
        "category": [
          {
            "coding": [
              {
                "system": "http://terminology.hl7.org/CodeSystem/observation-category",
                "code": "laboratory"
              }
            ]
          }
        ],
        "code": {
          "coding": [
            {
              "code": "5804-0",
              "system": "http://loinc.org",
              "display": "Protein [Mass/volume] in Urine by Test strip"
            }
          ],
          "text": "Protein [Mass/volume] in Urine by Test strip"
        },
        "valueQuantity": {
          "system": "http://unitsofmeasure.org",
          "value": 268.7,
          "unit": "mg/dL",
          "code": "mg/dL"
        },
        "referenceRange": [
          {
            "low": {
              "value": 0,
              "code": "mg/dL",
              "system": "http://unitsofmeasure.org"
            }
          },
          {
            "high": {
              "value": 14,
              "code": "mg/dL",
              "system": "http://unitsofmeasure.org"
            }
          }
        ],
        "interpretation": [
          {
            "coding": [
              {
                "code": "H",
                "system": "http://terminology.hl7.org/CodeSystem/v3-ObservationInterpretation",
                "display": "High"
              }
            ]
          }
        ],
        "text": {
          "status": "generated",
          "div": "<div xmlns=\"http://www.w3.org/1999/xhtml\"><table class=\"hl7__eu__lab__report\"><tr><th>Test</th><th>22-Feb-2017</th><th>Reference&#xA0;Range</th><th>Unit</th></tr><tr><td>Protein [Mass/volume] in Urine by Test strip</td><td>268.7</td><td>0 - 14</td><td>H</td><td>mg/dL</td></tr></table></div>"
        },
        "status": "final",
        "subject": {
          "reference": "urn:uuid:f8815771-2784-4ef1-b78d-6eb061a2f114",
          "display": "Maria Nohlmans"
        },
        "effectiveDateTime": "2017-02-22T13:03:39Z",
        "specimen": {
          "reference": "urn:uuid:0d95c74e-fab5-4f77-8239-c838a4215afc"
        }
      }
    },
    {
      "fullUrl": "urn:uuid:ea29425e-db0d-447a-9842-06685e1826f9",
      "resource": {
        "resourceType": "Observation",
        "id": "ea29425e-db0d-447a-9842-06685e1826f9",
        "meta": {
          "profile": [
            "http://hl7.eu/fhir/laboratory/StructureDefinition/Observation-resultslab-eu-lab"
          ]
        },
        "performer": [
          {
            "display": "The Central European Lab"
          }
        ],
        "category": [
          {
            "coding": [
              {
                "system": "http://terminology.hl7.org/CodeSystem/observation-category",
                "code": "laboratory"
              }
            ]
          }
        ],
        "code": {
          "coding": [
            {
              "code": "20454-5",
              "system": "http://loinc.org",
              "display": "Protein [Presence] in Urine by Test strip"
            }
          ],
          "text": "Protein [Presence] in Urine by Test strip"
        },
        "text": {
          "status": "generated",
          "div": "<div xmlns=\"http://www.w3.org/1999/xhtml\"><table class=\"hl7__eu__lab__report\"><tr><th>Test</th><th>22-Feb-2017</th><th>Reference&#xA0;Range</th><th>Unit</th></tr><tr><td>Protein [Presence] in Urine by Test strip</td></tr></table></div>"
        },
        "status": "final",
        "subject": {
          "reference": "urn:uuid:f8815771-2784-4ef1-b78d-6eb061a2f114",
          "display": "Maria Nohlmans"
        },
        "effectiveDateTime": "2017-02-22T13:03:39Z",
        "specimen": {
          "reference": "urn:uuid:0d95c74e-fab5-4f77-8239-c838a4215afc"
        }
      }
    },
    {
      "fullUrl": "urn:uuid:f211b70f-a8bb-4fdd-88b6-2b80414e596f",
      "resource": {
        "resourceType": "Observation",
        "id": "f211b70f-a8bb-4fdd-88b6-2b80414e596f",
        "meta": {
          "profile": [
            "http://hl7.eu/fhir/laboratory/StructureDefinition/Observation-resultslab-eu-lab"
          ]
        },
        "performer": [
          {
            "display": "The Central European Lab"
          }
        ],
        "category": [
          {
            "coding": [
              {
                "system": "http://terminology.hl7.org/CodeSystem/observation-category",
                "code": "laboratory"
              }
            ]
          }
        ],
        "code": {
          "coding": [
            {
              "code": "5802-4",
              "system": "http://loinc.org",
              "display": "Nitrite [Presence] in Urine by Test strip"
            }
          ],
          "text": "Nitrite [Presence] in Urine by Test strip"
        },
        "text": {
          "status": "generated",
          "div": "<div xmlns=\"http://www.w3.org/1999/xhtml\"><table class=\"hl7__eu__lab__report\"><tr><th>Test</th><th>22-Feb-2017</th><th>Reference&#xA0;Range</th><th>Unit</th></tr><tr><td>Nitrite [Presence] in Urine by Test strip</td></tr></table></div>"
        },
        "status": "final",
        "subject": {
          "reference": "urn:uuid:f8815771-2784-4ef1-b78d-6eb061a2f114",
          "display": "Maria Nohlmans"
        },
        "effectiveDateTime": "2017-02-22T13:03:39Z",
        "specimen": {
          "reference": "urn:uuid:0d95c74e-fab5-4f77-8239-c838a4215afc"
        }
      }
    },
    {
      "fullUrl": "urn:uuid:425268ee-fd68-43f1-816c-aa0c0bc00b65",
      "resource": {
        "resourceType": "Observation",
        "id": "425268ee-fd68-43f1-816c-aa0c0bc00b65",
        "meta": {
          "profile": [
            "http://hl7.eu/fhir/laboratory/StructureDefinition/Observation-resultslab-eu-lab"
          ]
        },
        "performer": [
          {
            "display": "The Central European Lab"
          }
        ],
        "category": [
          {
            "coding": [
              {
                "system": "http://terminology.hl7.org/CodeSystem/observation-category",
                "code": "laboratory"
              }
            ]
          }
        ],
        "code": {
          "coding": [
            {
              "code": "5794-3",
              "system": "http://loinc.org",
              "display": "Hemoglobin [Presence] in Urine by Test strip"
            }
          ],
          "text": "Hemoglobin [Presence] in Urine by Test strip"
        },
        "text": {
          "status": "generated",
          "div": "<div xmlns=\"http://www.w3.org/1999/xhtml\"><table class=\"hl7__eu__lab__report\"><tr><th>Test</th><th>22-Feb-2017</th><th>Reference&#xA0;Range</th><th>Unit</th></tr><tr><td>Hemoglobin [Presence] in Urine by Test strip</td></tr></table></div>"
        },
        "status": "final",
        "subject": {
          "reference": "urn:uuid:f8815771-2784-4ef1-b78d-6eb061a2f114",
          "display": "Maria Nohlmans"
        },
        "effectiveDateTime": "2017-02-22T13:03:39Z",
        "specimen": {
          "reference": "urn:uuid:0d95c74e-fab5-4f77-8239-c838a4215afc"
        }
      }
    },
    {
      "fullUrl": "urn:uuid:5aa0a91f-7f3b-4dba-8f7a-8b348f0c738b",
      "resource": {
        "resourceType": "Observation",
        "id": "5aa0a91f-7f3b-4dba-8f7a-8b348f0c738b",
        "meta": {
          "profile": [
            "http://hl7.eu/fhir/laboratory/StructureDefinition/Observation-resultslab-eu-lab"
          ]
        },
        "performer": [
          {
            "display": "The Central European Lab"
          }
        ],
        "category": [
          {
            "coding": [
              {
                "system": "http://terminology.hl7.org/CodeSystem/observation-category",
                "code": "laboratory"
              }
            ]
          }
        ],
        "code": {
          "coding": [
            {
              "code": "5799-2",
              "system": "http://loinc.org",
              "display": "Leukocyte esterase [Presence] in Urine by Test strip"
            }
          ],
          "text": "Leukocyte esterase [Presence] in Urine by Test strip"
        },
        "text": {
          "status": "generated",
          "div": "<div xmlns=\"http://www.w3.org/1999/xhtml\"><table class=\"hl7__eu__lab__report\"><tr><th>Test</th><th>22-Feb-2017</th><th>Reference&#xA0;Range</th><th>Unit</th></tr><tr><td>Leukocyte esterase [Presence] in Urine by Test strip</td></tr></table></div>"
        },
        "status": "final",
        "subject": {
          "reference": "urn:uuid:f8815771-2784-4ef1-b78d-6eb061a2f114",
          "display": "Maria Nohlmans"
        },
        "effectiveDateTime": "2017-02-22T13:03:39Z",
        "specimen": {
          "reference": "urn:uuid:0d95c74e-fab5-4f77-8239-c838a4215afc"
        }
      }
    },
    {
      "fullUrl": "urn:uuid:f0fcffa5-9226-4225-b3e9-6c285afaba3f",
      "resource": {
        "resourceType": "Device",
        "id": "f0fcffa5-9226-4225-b3e9-6c285afaba3f",
        "deviceName": [
          {
            "name": "SYNDERAI Synthetic Generator",
            "type": "manufacturer-name"
          }
        ],
        "version": [
          {
            "value": "5.0"
          }
        ],
        "text": {
          "status": "generated",
          "div": "<div xmlns=\"http://www.w3.org/1999/xhtml\">SYNDERAI Synthetic Generator v5.0</div>"
        },
        "status": "active\"",
        "distinctIdentifier": "synderai-generator-50",
        "manufacturer": "SYNDERAI Project"
      }
    },
    {
      "fullUrl": "urn:uuid:8f435ceb-c23b-488e-b85b-8bf20be33034",
      "resource": {
        "resourceType": "Provenance",
        "id": "8f435ceb-c23b-488e-b85b-8bf20be33034",
        "target": [
          {
            "reference": "Patient/f8815771-2784-4ef1-b78d-6eb061a2f114"
          },
          {
            "reference": "Bundle/11e54b83-97fd-4785-a706-45cef19cdcf5"
          },
          {
            "reference": "Composition/4f104b5d-b315-4a85-9f52-0d1625e37ca3"
          },
          {
            "reference": "PractitionerRole/2994d633-ac41-4c53-b586-f2093d9a7245"
          },
          {
            "reference": "Practitioner/99fd7c4f-2791-40f1-ae0d-435b1e28a2c6"
          },
          {
            "reference": "PractitionerRole/f12eeeb8-6332-4922-abc7-139e99d5a8fc"
          },
          {
            "reference": "Organization/0a92eb1c-e5f6-44ea-9db0-0f8921d1143c"
          }
        ],
        "activity": {
          "text": "Synthetic Example Data Generation"
        },
        "policy": [
          "https://synderai.net/synderai-synthetic-data-policy"
        ],
        "agent": [
          {
            "type": {
              "text": "author"
            },
            "who": {
              "reference": "Device/f0fcffa5-9226-4225-b3e9-6c285afaba3f"
            }
          }
        ],
        "reason": [
          {
            "text": "Interoperability Testing and Training (non-clinical use)"
          }
        ],
        "text": {
          "status": "generated",
          "div": "<div xmlns=\"http://www.w3.org/1999/xhtml\">Provenance for SYNDERAI Synthetic Example Data Resource</div>"
        },
        "recorded": "2017-02-22T14:03:39Z"
      }
    },
    {
      "fullUrl": "urn:uuid:2994d633-ac41-4c53-b586-f2093d9a7245",
      "resource": {
        "resourceType": "PractitionerRole",
        "id": "2994d633-ac41-4c53-b586-f2093d9a7245",
        "meta": {
          "profile": [
            "http://hl7.eu/fhir/base/StructureDefinition/practitionerRole-eu"
          ]
        },
        "text": {
          "status": "generated",
          "div": "<div xmlns=\"http://www.w3.org/1999/xhtml\">Laboratory Role Id: 2994d633-ac41-4c53-b586-f2093d9a7245</div>"
        },
        "practitioner": {
          "reference": "urn:uuid:99fd7c4f-2791-40f1-ae0d-435b1e28a2c6"
        }
      }
    },
    {
      "fullUrl": "urn:uuid:99fd7c4f-2791-40f1-ae0d-435b1e28a2c6",
      "resource": {
        "resourceType": "Practitioner",
        "id": "99fd7c4f-2791-40f1-ae0d-435b1e28a2c6",
        "meta": {
          "profile": [
            "http://hl7.eu/fhir/base/StructureDefinition/practitioner-eu"
          ]
        },
        "identifier": [
          {
            "assigner": {
              "display": "HL7 Europe"
            },
            "system": "urn:oid:2.16.840.1.113883.2.51.999",
            "value": "2fe51644-aef6-4c29-b1ed-9d4fee3e0e51"
          }
        ],
        "name": [
          {
            "prefix": [
              "dr"
            ],
            "given": [
              "Ex"
            ],
            "family": "Ample"
          }
        ],
        "address": [
          {
            "line": [
              "Laboratoire Central Européenne",
              "Boulevard du Jardin Botanique 32"
            ],
            "postalCode": "1000",
            "city": "Brussels",
            "country": "Belgium"
          }
        ],
        "text": {
          "status": "generated",
          "div": "<div xmlns=\"http://www.w3.org/1999/xhtml\">Laboratory: Laboratoire Central Européenne, 1000 Brussels, Belgium</div>"
        }
      }
    }
  ],
  "type": "document",
  "timestamp": "2017-02-22T14:03:39Z"
}
