{
  "resourceType": "Bundle",
  "id": "b0184096-0fcb-4846-b94b-1f287fbec8c2",
  "meta": {
    "profile": [
      "http://hl7.eu/fhir/laboratory/StructureDefinition/Bundle-eu-lab"
    ]
  },
  "identifier": {
    "assigner": {
      "display": "HL7 Europe"
    },
    "system": "urn:oid:2.16.840.1.113883.2.51.999",
    "value": "26f29995-db10-48db-9ef1-afc526cfe53f"
  },
  "entry": [
    {
      "fullUrl": "urn:uuid:47158dd7-72b9-4481-aedd-09dea0ac67f5",
      "resource": {
        "resourceType": "Composition",
        "id": "47158dd7-72b9-4481-aedd-09dea0ac67f5",
        "meta": {
          "profile": [
            "http://hl7.eu/fhir/laboratory/StructureDefinition/Composition-eu-lab"
          ]
        },
        "identifier": {
          "assigner": {
            "display": "HL7 Europe"
          },
          "system": "urn:oid:2.16.840.1.113883.2.51.999",
          "value": "30242cc9-ddfa-4848-bfd2-a4c1d75b5fd9"
        },
        "author": [
          {
            "reference": "urn:uuid:4944c15a-0de5-4a6d-bc5f-64797b35f737"
          }
        ],
        "category": [
          {
            "coding": [
              {
                "code": "26436-6",
                "system": "http://loinc.org",
                "display": "Laboratory studies (set)"
              }
            ]
          }
        ],
        "type": {
          "coding": [
            {
              "code": "11502-2",
              "system": "http://loinc.org",
              "display": "Laboratory report"
            }
          ],
          "text": "Laboratory Report"
        },
        "section": [
          {
            "code": {
              "coding": [
                {
                  "code": "26436-6",
                  "system": "http://loinc.org",
                  "display": "Laboratory studies (set)"
                }
              ],
              "text": "Laboratory studies"
            },
            "section": [
              {
                "code": {
                  "coding": [
                    {
                      "code": "$18719-5",
                      "system": "http://loinc.org",
                      "display": "Chemistry studies (set)"
                    }
                  ],
                  "text": "Chemistry"
                },
                "entry": [
                  {
                    "reference": "urn:uuid:4db90bb1-70be-46f4-aa49-beb41f2699ac"
                  },
                  {
                    "reference": "urn:uuid:cb74d3e2-4e4b-4177-8ca4-8301e92945e3"
                  },
                  {
                    "reference": "urn:uuid:5bd00be8-23d0-47ec-b335-3e2cab890234"
                  },
                  {
                    "reference": "urn:uuid:edd407be-6088-4e9c-a574-6af58f02c48b"
                  },
                  {
                    "reference": "urn:uuid:5a9659d6-1e56-4f96-a5ae-7ad9229b6d20"
                  },
                  {
                    "reference": "urn:uuid:11b68806-2133-4561-bc7d-0ee0121bd0ae"
                  },
                  {
                    "reference": "urn:uuid:75784387-09f8-419d-9f3f-db3a2e352bcb"
                  },
                  {
                    "reference": "urn:uuid:77333ea3-ea8f-43c1-a25a-c3cab64213ce"
                  },
                  {
                    "reference": "urn:uuid:0d6c2d7b-0334-46cc-8399-fd1c972e8dc4"
                  },
                  {
                    "reference": "urn:uuid:cd0f1ce6-2ecd-4357-af5c-72cd848b66f5"
                  },
                  {
                    "reference": "urn:uuid:8a75188e-1559-4311-aa21-0289b859de01"
                  },
                  {
                    "reference": "urn:uuid:ebc99376-cdd8-4cbf-b5df-5ac6604aab1e"
                  },
                  {
                    "reference": "urn:uuid:12fc0d79-9464-417e-b0da-acf8a1ee03fb"
                  },
                  {
                    "reference": "urn:uuid:23c811e0-b3ea-43e5-bd10-7a5f2056a737"
                  },
                  {
                    "reference": "urn:uuid:9d33d0cb-5c3e-482a-ab01-5a8e32a86b4a"
                  },
                  {
                    "reference": "urn:uuid:fc4566ca-0843-41dd-9278-600ca3b2e78c"
                  },
                  {
                    "reference": "urn:uuid:6049e5b3-21b5-4b79-b9cf-b5f0c252b51c"
                  },
                  {
                    "reference": "urn:uuid:6ec02a28-6629-4e0c-be4f-e24a5367ee60"
                  }
                ],
                "text": {
                  "status": "generated",
                  "div": "<div xmlns=\"http://www.w3.org/1999/xhtml\"><h3>Chemistry</h3><table class=\"hl7__eu__lab__report\"><thead><tr><th>Test</th><th>17-MAR-2025</th><th>Reference&#xA0;Range</th><th>Unit</th></tr></thead><tbody><tr><td>Glucose [Mass/volume] in Serum or Plasma</td><td><strong>68.1 L</strong></td><td>70 - 99</td><td>mg/dL</td></tr><tr><td>Urea nitrogen [Mass/volume] in Serum or Plasma</td><td>15.6</td><td>7 - 50</td><td>mg/dL</td></tr><tr><td>Creatinine [Mass/volume] in Serum or Plasma</td><td><strong>2.0 H</strong></td><td>0.6 - 1.1</td><td>mg/dL</td></tr><tr><td>Calcium [Mass/volume] in Serum or Plasma</td><td>8.8</td><td>8.6 - 10.4</td><td>mg/dL</td></tr><tr><td>Sodium [Moles/volume] in Serum or Plasma</td><td>142.0</td><td>135 - 145</td><td>mmol/L</td></tr><tr><td>Potassium [Moles/volume] in Serum or Plasma</td><td>3.8</td><td>3.5 - 5.1</td><td>mmol/L</td></tr><tr><td>Chloride [Moles/volume] in Serum or Plasma</td><td>102.7</td><td>98 - 108</td><td>mmol/L</td></tr><tr><td>Carbon dioxide, total [Moles/volume] in Serum or Plasma</td><td>23.3</td><td>22 - 32</td><td>mmol/L</td></tr><tr><td>Ketones [Presence] in Urine by Test strip</td><td>Urine ketone test = ++</td><td></td><td></td></tr><tr><td>Hemoglobin A1c/Hemoglobin.total in Blood</td><td>4.0</td><td>4 - 6.4</td><td>%</td></tr><tr><td>Glucose [Mass/volume] in Blood</td><td><strong>68.1 L</strong></td><td>70 - 100</td><td>mg/dL</td></tr><tr><td>Urea nitrogen [Mass/volume] in Blood</td><td>15.6</td><td>7 - 43</td><td>mg/dL</td></tr><tr><td>Creatinine [Mass/volume] in Blood</td><td><strong>2.7 H</strong></td><td>0.6 - 1.1</td><td>mg/dL</td></tr><tr><td>Calcium [Mass/volume] in Blood</td><td>8.8</td><td>8.5 - 10.5</td><td>mg/dL</td></tr><tr><td>Sodium [Moles/volume] in Blood</td><td>142.0</td><td>135 - 145</td><td>mmol/L</td></tr><tr><td>Potassium [Moles/volume] in Blood</td><td>3.8</td><td>3.5 - 5.1</td><td>mmol/L</td></tr><tr><td>Chloride [Moles/volume] in Blood</td><td>102.7</td><td>98 - 108</td><td>mmol/L</td></tr><tr><td>Carbon dioxide, total [Moles/volume] in Blood</td><td>23.3</td><td>22 - 29</td><td>mmol/L</td></tr></tbody></table></div>"
                },
                "title": "Chemistry"
              },
              {
                "code": {
                  "coding": [
                    {
                      "code": "$18729-4",
                      "system": "http://loinc.org",
                      "display": "Urinalysis studies (set)"
                    }
                  ],
                  "text": "Urinalysis"
                },
                "entry": [
                  {
                    "reference": "urn:uuid:8b0e21c1-62f1-41a4-b8bb-fbc235b22674"
                  },
                  {
                    "reference": "urn:uuid:e8dd8cd2-f3b1-4665-bc77-828a99b63acb"
                  },
                  {
                    "reference": "urn:uuid:e9acd533-5b9e-43fc-a6a7-e88758debe64"
                  },
                  {
                    "reference": "urn:uuid:f8844287-9974-43d9-b96e-feebde1f4017"
                  },
                  {
                    "reference": "urn:uuid:fd0d5219-18f6-431d-a31c-0b6d2fd93a98"
                  },
                  {
                    "reference": "urn:uuid:fd4ce420-b8f9-4eaa-8752-748a6af52d2c"
                  },
                  {
                    "reference": "urn:uuid:5f219edf-2db5-46a0-8dac-7c35d0e11f94"
                  },
                  {
                    "reference": "urn:uuid:e38c3903-66a2-4219-86fd-ea049a343f5d"
                  },
                  {
                    "reference": "urn:uuid:718ef9e9-df38-4375-91f0-21c3a083b258"
                  },
                  {
                    "reference": "urn:uuid:06fca931-0cd0-47a5-a064-24689dbdcabb"
                  },
                  {
                    "reference": "urn:uuid:17c1cae1-7322-4aea-b97e-428aa64d05ba"
                  },
                  {
                    "reference": "urn:uuid:2bfb6cd9-5e84-4150-b157-c75fe55ce660"
                  }
                ],
                "text": {
                  "status": "generated",
                  "div": "<div xmlns=\"http://www.w3.org/1999/xhtml\"><h3>Urinalysis</h3><table class=\"hl7__eu__lab__report\"><thead><tr><th>Test</th><th>17-MAR-2025</th><th>Reference&#xA0;Range</th><th>Unit</th></tr></thead><tbody><tr><td>Glucose [Mass/volume] in Urine by Test strip</td><td><strong>2.2 H</strong></td><td>0.8 - 0</td><td>mg/dL</td></tr><tr><td>Glucose [Presence] in Urine by Test strip</td><td>++</td><td></td><td></td></tr><tr><td>Bilirubin.total [Mass/volume] in Urine by Test strip</td><td>1.0</td><td>0 - 1</td><td>mg/dL</td></tr><tr><td>Bilirubin.total [Presence] in Urine by Test strip</td><td>Finding of bilirubin in urine</td><td></td><td></td></tr><tr><td>Ketones [Mass/volume] in Urine by Test strip</td><td><strong>4.2 H</strong></td><td>0 - 4</td><td>mg/dL</td></tr><tr><td>Specific gravity of Urine by Test strip</td><td><strong>1.0 L</strong></td><td>1.005 - 1.03</td><td>{nominal}</td></tr><tr><td>pH of Urine by Test strip</td><td>6.4</td><td>4.6 - 7</td><td>pH</td></tr><tr><td>Protein [Mass/volume] in Urine by Test strip</td><td><strong>344.0 H</strong></td><td>0 - 14</td><td>mg/dL</td></tr><tr><td>Protein [Presence] in Urine by Test strip</td><td>Urine protein test = ++</td><td></td><td></td></tr><tr><td>Nitrite [Presence] in Urine by Test strip</td><td>Urine nitrite negative</td><td></td><td></td></tr><tr><td>Hemoglobin [Presence] in Urine by Test strip</td><td>Urine blood test = negative</td><td></td><td></td></tr><tr><td>Leukocyte esterase [Presence] in Urine by Test strip</td><td>Urine leukocyte test negative</td><td></td><td></td></tr></tbody></table></div>"
                },
                "title": "Urinalysis"
              },
              {
                "code": {
                  "coding": [
                    {
                      "code": "$LP7846-1",
                      "system": "http://loinc.org",
                      "display": "Specimen information"
                    }
                  ],
                  "text": "Specimen information"
                },
                "entry": [
                  {
                    "reference": "urn:uuid:cf326712-83fd-4190-9ba2-f7c0e4acd937"
                  },
                  {
                    "reference": "urn:uuid:9f4e11e4-3e55-40f2-ab65-d0b887070bc8"
                  },
                  {
                    "reference": "urn:uuid:549289d1-90b9-45f0-bef9-4671a64228cd"
                  },
                  {
                    "reference": "urn:uuid:75fdfa5b-33a3-4551-a9ba-ffda837e8d85"
                  }
                ],
                "text": {
                  "status": "generated",
                  "div": "<div xmlns=\"http://www.w3.org/1999/xhtml\"><h3>Specimen information</h3><table class=\"hl7__eu__lab__report\"><thead><tr><th>Test</th><th>17-MAR-2025</th><th>Specimen</th><th></th></tr></thead><tbody><tr><td>Appearance of Urine</td><td>Cloudy urine</td><td>Urine</td><td></td></tr><tr><td>Odor of Urine</td><td>Urine smell ammoniacal</td><td>Urine</td><td></td></tr><tr><td>Clarity of Urine</td><td>Translucent</td><td>Urine</td><td></td></tr><tr><td>Color of Urine</td><td>Brown color</td><td>Urine</td><td></td></tr></tbody></table></div>"
                },
                "title": "Specimen information"
              }
            ],
            "title": "Laboratory Report"
          },
          {
            "text": {
              "status": "generated",
              "div": "<div xmlns=\"http://www.w3.org/1999/xhtml\"><h3>Annotation</h3><table class=\"hl7__eu__lab__report\"><tr><th>Conclusion and Recommendations based on this report and previous findings known to us</th></tr><tr><td>The patient shows elevated creatinine, significant proteinuria, glycosuria, ketonuria, and low serum glucose, suggesting impaired renal function with possible nephrotic-range proteinuria and abnormal glucose handling. Urine is cloudy, brown, and has an ammoniacal odor, but no evidence of infection. Findings are consistent with possible diabetic nephropathy or another glomerular pathology; acute kidney injury cannot be excluded. Clinical correlation and further nephrological evaluation are recommended.</td></tr></table></div>"
            },
            "code": {
              "coding": [
                {
                  "system": "http://loinc.org",
                  "code": "48767-8",
                  "display": "Annotation comment"
                }
              ]
            },
            "title": "Annotation comment"
          }
        ],
        "status": "final",
        "subject": {
          "reference": "urn:uuid:925c8b69-00b3-433a-887f-59c932ae7a1f",
          "display": "Meaghan Neary"
        },
        "date": "2025-03-17T23:11:04Z",
        "title": "Laboratory Report",
        "confidentiality": "N"
      }
    },
    {
      "fullUrl": "urn:uuid:44033ca7-746b-47da-88c2-302ffa11df3c",
      "resource": {
        "resourceType": "DiagnosticReport",
        "id": "44033ca7-746b-47da-88c2-302ffa11df3c",
        "meta": {
          "profile": [
            "http://hl7.eu/fhir/laboratory/StructureDefinition/DiagnosticReport-eu-lab"
          ]
        },
        "identifier": [
          {
            "assigner": {
              "display": "HL7 Europe"
            },
            "system": "urn:oid:2.16.840.1.113883.2.51.999",
            "value": "4370fd5b-17a6-4d86-a9b9-e8c1aaf13783"
          }
        ],
        "extension": [
          {
            "url": "http://hl7.org/fhir/5.0/StructureDefinition/extension-DiagnosticReport.composition",
            "valueReference": {
              "reference": "urn:uuid:30242cc9-ddfa-4848-bfd2-a4c1d75b5fd9"
            }
          }
        ],
        "category": [
          {
            "coding": [
              {
                "code": "26436-6",
                "system": "http://loinc.org",
                "display": "Laboratory studies (set)"
              }
            ]
          }
        ],
        "specimen": [
          {
            "reference": "urn:uuid:d545c87a-3825-4d45-bfa3-6b13feebd79b"
          },
          {
            "reference": "urn:uuid:4eb57e4c-aaac-41d1-9f45-50cf632a4821"
          },
          {
            "reference": "urn:uuid:b90bed60-64a7-45a4-8b39-138d11bb0fb9"
          }
        ],
        "result": [
          {
            "reference": "urn:uuid:4db90bb1-70be-46f4-aa49-beb41f2699ac"
          },
          {
            "reference": "urn:uuid:cb74d3e2-4e4b-4177-8ca4-8301e92945e3"
          },
          {
            "reference": "urn:uuid:5bd00be8-23d0-47ec-b335-3e2cab890234"
          },
          {
            "reference": "urn:uuid:edd407be-6088-4e9c-a574-6af58f02c48b"
          },
          {
            "reference": "urn:uuid:5a9659d6-1e56-4f96-a5ae-7ad9229b6d20"
          },
          {
            "reference": "urn:uuid:11b68806-2133-4561-bc7d-0ee0121bd0ae"
          },
          {
            "reference": "urn:uuid:75784387-09f8-419d-9f3f-db3a2e352bcb"
          },
          {
            "reference": "urn:uuid:77333ea3-ea8f-43c1-a25a-c3cab64213ce"
          },
          {
            "reference": "urn:uuid:cf326712-83fd-4190-9ba2-f7c0e4acd937"
          },
          {
            "reference": "urn:uuid:9f4e11e4-3e55-40f2-ab65-d0b887070bc8"
          },
          {
            "reference": "urn:uuid:549289d1-90b9-45f0-bef9-4671a64228cd"
          },
          {
            "reference": "urn:uuid:75fdfa5b-33a3-4551-a9ba-ffda837e8d85"
          },
          {
            "reference": "urn:uuid:8b0e21c1-62f1-41a4-b8bb-fbc235b22674"
          },
          {
            "reference": "urn:uuid:e8dd8cd2-f3b1-4665-bc77-828a99b63acb"
          },
          {
            "reference": "urn:uuid:e9acd533-5b9e-43fc-a6a7-e88758debe64"
          },
          {
            "reference": "urn:uuid:f8844287-9974-43d9-b96e-feebde1f4017"
          },
          {
            "reference": "urn:uuid:fd0d5219-18f6-431d-a31c-0b6d2fd93a98"
          },
          {
            "reference": "urn:uuid:0d6c2d7b-0334-46cc-8399-fd1c972e8dc4"
          },
          {
            "reference": "urn:uuid:fd4ce420-b8f9-4eaa-8752-748a6af52d2c"
          },
          {
            "reference": "urn:uuid:5f219edf-2db5-46a0-8dac-7c35d0e11f94"
          },
          {
            "reference": "urn:uuid:e38c3903-66a2-4219-86fd-ea049a343f5d"
          },
          {
            "reference": "urn:uuid:718ef9e9-df38-4375-91f0-21c3a083b258"
          },
          {
            "reference": "urn:uuid:06fca931-0cd0-47a5-a064-24689dbdcabb"
          },
          {
            "reference": "urn:uuid:17c1cae1-7322-4aea-b97e-428aa64d05ba"
          },
          {
            "reference": "urn:uuid:2bfb6cd9-5e84-4150-b157-c75fe55ce660"
          },
          {
            "reference": "urn:uuid:cd0f1ce6-2ecd-4357-af5c-72cd848b66f5"
          },
          {
            "reference": "urn:uuid:8a75188e-1559-4311-aa21-0289b859de01"
          },
          {
            "reference": "urn:uuid:ebc99376-cdd8-4cbf-b5df-5ac6604aab1e"
          },
          {
            "reference": "urn:uuid:12fc0d79-9464-417e-b0da-acf8a1ee03fb"
          },
          {
            "reference": "urn:uuid:23c811e0-b3ea-43e5-bd10-7a5f2056a737"
          },
          {
            "reference": "urn:uuid:9d33d0cb-5c3e-482a-ab01-5a8e32a86b4a"
          },
          {
            "reference": "urn:uuid:fc4566ca-0843-41dd-9278-600ca3b2e78c"
          },
          {
            "reference": "urn:uuid:6049e5b3-21b5-4b79-b9cf-b5f0c252b51c"
          },
          {
            "reference": "urn:uuid:6ec02a28-6629-4e0c-be4f-e24a5367ee60"
          }
        ],
        "status": "registered",
        "code": {
          "coding": [
            {
              "code": "11502-2",
              "system": "http://loinc.org",
              "display": "Laboratory report"
            }
          ]
        },
        "subject": {
          "reference": "urn:uuid:925c8b69-00b3-433a-887f-59c932ae7a1f",
          "display": "Meaghan Neary"
        }
      }
    },
    {
      "fullUrl": "urn:uuid:925c8b69-00b3-433a-887f-59c932ae7a1f",
      "resource": {
        "resourceType": "Patient",
        "id": "925c8b69-00b3-433a-887f-59c932ae7a1f",
        "meta": {
          "security": [
            {
              "system": "http://terminology.hl7.org/CodeSystem/v3-ActReason",
              "code": "HTEST"
            },
            {
              "system": "http://terminology.hl7.org/CodeSystem/v3-ActReason",
              "code": "TRAIN"
            }
          ],
          "tag": [
            {
              "system": "https://synderai.net/fhir/CodeSystem/tags",
              "code": "synthetic",
              "display": "SYNDERAI Synthetic data"
            }
          ],
          "profile": [
            "http://hl7.eu/fhir/base/StructureDefinition/patient-eu-core"
          ]
        },
        "identifier": [
          {
            "type": {
              "coding": [
                {
                  "code": "PT",
                  "system": "http://terminology.hl7.org/CodeSystem/v2-0203"
                }
              ]
            },
            "system": "http://ec.europa.eu/identifier/eci",
            "value": "1586-567257-8"
          },
          {
            "type": {
              "coding": [
                {
                  "code": "MR",
                  "system": "http://terminology.hl7.org/CodeSystem/v2-0203"
                }
              ]
            },
            "system": "http://local.setting.eu/identifier",
            "value": "443e6379-f231-b364-3ccb-644740a1aa2a"
          }
        ],
        "name": [
          {
            "family": "Neary"
          },
          {
            "given": [
              "Meaghan"
            ]
          },
          {
            "text": "Meaghan Neary"
          }
        ],
        "address": [
          {
            "line": [
              "64 Linskey Street"
            ],
            "use": "home",
            "type": "physical",
            "postalCode": "D02",
            "city": "Dublin",
            "country": "Ireland"
          }
        ],
        "telecom": [
          {
            "system": "phone",
            "value": "001-967-573-0911x465"
          }
        ],
        "extension": [
          {
            "url": "http://hl7.org/fhir/StructureDefinition/patient-nationality",
            "valueCodeableConcept": {
              "coding": [
                {
                  "code": "IE",
                  "system": "http://hl7.org/fhir/ValueSet/country"
                }
              ]
            }
          }
        ],
        "text": {
          "status": "generated",
          "div": "<div xmlns=\"http://www.w3.org/1999/xhtml\"><table class=\"hl7__ips\"><tr><td>Meaghan Neary</td><td>female</td><td>19-Dec-1960</td></tr></table></div>"
        },
        "gender": "female",
        "birthDate": "1960-12-19"
      }
    },
    {
      "fullUrl": "urn:uuid:734db753-2f2d-4d56-828b-1f50b533a0c3",
      "resource": {
        "resourceType": "ServiceRequest",
        "id": "734db753-2f2d-4d56-828b-1f50b533a0c3",
        "meta": {
          "profile": [
            "http://hl7.eu/fhir/laboratory/StructureDefinition/ServiceRequest-eu-lab"
          ]
        },
        "identifier": [
          {
            "system": "http://example.org",
            "value": "d0e1f364-e1b0-43c8-85df-93ea79d61b0c"
          }
        ],
        "specimen": [
          {
            "reference": "urn:uuid:d545c87a-3825-4d45-bfa3-6b13feebd79b"
          },
          {
            "reference": "urn:uuid:4eb57e4c-aaac-41d1-9f45-50cf632a4821"
          },
          {
            "reference": "urn:uuid:b90bed60-64a7-45a4-8b39-138d11bb0fb9"
          }
        ],
        "reasonCode": [
          {
            "coding": [
              {
                "code": "55822004",
                "system": "http://snomed.info/sct",
                "display": "Hyperlipidemia"
              }
            ]
          },
          {
            "coding": [
              {
                "code": "433144002",
                "system": "http://snomed.info/sct",
                "display": "Chronic kidney disease stage 3"
              }
            ]
          },
          {
            "coding": [
              {
                "code": "157141000119108",
                "system": "http://snomed.info/sct",
                "display": "Proteinuria due to type 2 diabetes mellitus"
              }
            ]
          },
          {
            "coding": [
              {
                "code": "431856006",
                "system": "http://snomed.info/sct",
                "display": "Chronic kidney disease stage 2"
              }
            ]
          },
          {
            "coding": [
              {
                "code": "90781000119102",
                "system": "http://snomed.info/sct",
                "display": "Microalbuminuria due to type 2 diabetes mellitus"
              }
            ]
          },
          {
            "coding": [
              {
                "code": "127013003",
                "system": "http://snomed.info/sct",
                "display": "Disorder of kidney due to diabetes mellitus"
              }
            ]
          },
          {
            "coding": [
              {
                "code": "431855005",
                "system": "http://snomed.info/sct",
                "display": "Chronic kidney disease stage 1"
              }
            ]
          },
          {
            "coding": [
              {
                "code": "237602007",
                "system": "http://snomed.info/sct",
                "display": "Metabolic syndrome X"
              }
            ]
          },
          {
            "coding": [
              {
                "code": "271737000",
                "system": "http://snomed.info/sct",
                "display": "Anemia"
              }
            ]
          },
          {
            "coding": [
              {
                "code": "15777000",
                "system": "http://snomed.info/sct",
                "display": "Prediabetes"
              }
            ]
          },
          {
            "coding": [
              {
                "code": "59621000",
                "system": "http://snomed.info/sct",
                "display": "Essential hypertension"
              }
            ]
          }
        ],
        "status": "active",
        "intent": "order",
        "code": {
          "coding": [
            {
              "code": "108252007",
              "system": "http://snomed.info/sct",
              "display": "Laboratory procedure"
            }
          ]
        },
        "subject": {
          "reference": "urn:uuid:925c8b69-00b3-433a-887f-59c932ae7a1f",
          "display": "Meaghan Neary"
        },
        "requester": {
          "reference": "urn:uuid:573f4998-48e4-47c0-be04-8a694590b04f"
        }
      }
    },
    {
      "fullUrl": "urn:uuid:573f4998-48e4-47c0-be04-8a694590b04f",
      "resource": {
        "resourceType": "PractitionerRole",
        "id": "573f4998-48e4-47c0-be04-8a694590b04f",
        "meta": {
          "profile": [
            "http://hl7.eu/fhir/base/StructureDefinition/practitionerRole-eu"
          ]
        },
        "text": {
          "status": "generated",
          "div": "<div xmlns=\"http://www.w3.org/1999/xhtml\">Provider Role Id: 573f4998-48e4-47c0-be04-8a694590b04f</div>"
        },
        "organization": {
          "reference": "urn:uuid:60e019b4-dbcf-4b51-9954-c47323fa91eb"
        }
      }
    },
    {
      "fullUrl": "urn:uuid:60e019b4-dbcf-4b51-9954-c47323fa91eb",
      "resource": {
        "resourceType": "Organization",
        "id": "60e019b4-dbcf-4b51-9954-c47323fa91eb",
        "meta": {
          "profile": [
            "http://hl7.eu/fhir/base/StructureDefinition/organization-eu"
          ]
        },
        "identifier": [
          {
            "assigner": {
              "display": "HL7 Europe"
            },
            "system": "urn:oid:2.16.840.1.113883.2.51.999",
            "value": "f3d26e82-e303-4a46-905f-ff8334d4a8ec"
          }
        ],
        "address": [
          {
            "line": [
              "Parnell Square West nan"
            ],
            "city": "Dublin",
            "postalCode": "D01",
            "country": "Ireland"
          }
        ],
        "text": {
          "status": "generated",
          "div": "<div xmlns=\"http://www.w3.org/1999/xhtml\">Provider Organization: Rotunda Hospital</div>"
        },
        "name": "Rotunda Hospital"
      }
    },
    {
      "fullUrl": "urn:uuid:d545c87a-3825-4d45-bfa3-6b13feebd79b",
      "resource": {
        "resourceType": "Specimen",
        "id": "d545c87a-3825-4d45-bfa3-6b13feebd79b",
        "meta": {
          "profile": [
            "http://hl7.eu/fhir/laboratory/StructureDefinition/Specimen-eu-lab"
          ]
        },
        "collection": {
          "collectedDateTime": "2025-03-17"
        },
        "text": {
          "status": "generated",
          "div": "<div xmlns=\"http://www.w3.org/1999/xhtml\"><table class=\"hl7__eu__lab__report\"><tr><th>Specimen</th><th>Collection Date</th></tr><tr><td>Acellular blood (serum or plasma) specimen</td><td><span class=\"nb\">17-Mar-2025</span></td></tr></table></div>"
        },
        "type": {
          "coding": [
            {
              "code": "122592007",
              "system": "http://snomed.info/sct",
              "display": "Acellular blood (serum or plasma) specimen"
            }
          ]
        }
      }
    },
    {
      "fullUrl": "urn:uuid:4eb57e4c-aaac-41d1-9f45-50cf632a4821",
      "resource": {
        "resourceType": "Specimen",
        "id": "4eb57e4c-aaac-41d1-9f45-50cf632a4821",
        "meta": {
          "profile": [
            "http://hl7.eu/fhir/laboratory/StructureDefinition/Specimen-eu-lab"
          ]
        },
        "collection": {
          "collectedDateTime": "2025-03-17"
        },
        "text": {
          "status": "generated",
          "div": "<div xmlns=\"http://www.w3.org/1999/xhtml\"><table class=\"hl7__eu__lab__report\"><tr><th>Specimen</th><th>Collection Date</th></tr><tr><td>Urine specimen</td><td><span class=\"nb\">17-Mar-2025</span></td></tr></table></div>"
        },
        "type": {
          "coding": [
            {
              "code": "122575003",
              "system": "http://snomed.info/sct",
              "display": "Urine specimen"
            }
          ]
        }
      }
    },
    {
      "fullUrl": "urn:uuid:b90bed60-64a7-45a4-8b39-138d11bb0fb9",
      "resource": {
        "resourceType": "Specimen",
        "id": "b90bed60-64a7-45a4-8b39-138d11bb0fb9",
        "meta": {
          "profile": [
            "http://hl7.eu/fhir/laboratory/StructureDefinition/Specimen-eu-lab"
          ]
        },
        "collection": {
          "collectedDateTime": "2025-03-17"
        },
        "text": {
          "status": "generated",
          "div": "<div xmlns=\"http://www.w3.org/1999/xhtml\"><table class=\"hl7__eu__lab__report\"><tr><th>Specimen</th><th>Collection Date</th></tr><tr><td>Whole blood specimen (specimen)</td><td><span class=\"nb\">17-Mar-2025</span></td></tr></table></div>"
        },
        "type": {
          "coding": [
            {
              "code": "258580003",
              "system": "http://snomed.info/sct",
              "display": "Whole blood specimen (specimen)"
            }
          ]
        }
      }
    },
    {
      "fullUrl": "urn:uuid:4db90bb1-70be-46f4-aa49-beb41f2699ac",
      "resource": {
        "resourceType": "Observation",
        "id": "4db90bb1-70be-46f4-aa49-beb41f2699ac",
        "meta": {
          "profile": [
            "http://hl7.eu/fhir/laboratory/StructureDefinition/Observation-resultslab-eu-lab"
          ]
        },
        "performer": [
          {
            "display": "The Central European Lab"
          }
        ],
        "category": [
          {
            "coding": [
              {
                "system": "http://terminology.hl7.org/CodeSystem/observation-category",
                "code": "laboratory"
              }
            ]
          }
        ],
        "code": {
          "coding": [
            {
              "code": "2345-7",
              "system": "http://loinc.org",
              "display": "Glucose [Mass/volume] in Serum or Plasma"
            }
          ],
          "text": "Glucose [Mass/volume] in Serum or Plasma"
        },
        "valueQuantity": {
          "system": "http://unitsofmeasure.org",
          "value": 68.1,
          "unit": "mg/dL",
          "code": "mg/dL"
        },
        "referenceRange": [
          {
            "low": {
              "value": 70,
              "code": "mg/dL",
              "system": "http://unitsofmeasure.org"
            }
          },
          {
            "high": {
              "value": 99,
              "code": "mg/dL",
              "system": "http://unitsofmeasure.org"
            }
          }
        ],
        "interpretation": [
          {
            "coding": [
              {
                "code": "L",
                "system": "http://terminology.hl7.org/CodeSystem/v3-ObservationInterpretation",
                "display": "Low"
              }
            ]
          }
        ],
        "text": {
          "status": "generated",
          "div": "<div xmlns=\"http://www.w3.org/1999/xhtml\"><table class=\"hl7__eu__lab__report\"><tr><th>Test</th><th>17-Mar-2025</th><th>Reference&#xA0;Range</th><th>Unit</th></tr><tr><td>Glucose [Mass/volume] in Serum or Plasma</td><td>68.1</td><td>70 - 99</td><td>L</td><td>mg/dL</td></tr></table></div>"
        },
        "status": "final",
        "subject": {
          "reference": "urn:uuid:925c8b69-00b3-433a-887f-59c932ae7a1f",
          "display": "Meaghan Neary"
        },
        "effectiveDateTime": "2025-03-17T22:11:04Z",
        "specimen": {
          "reference": "urn:uuid:d545c87a-3825-4d45-bfa3-6b13feebd79b"
        }
      }
    },
    {
      "fullUrl": "urn:uuid:cb74d3e2-4e4b-4177-8ca4-8301e92945e3",
      "resource": {
        "resourceType": "Observation",
        "id": "cb74d3e2-4e4b-4177-8ca4-8301e92945e3",
        "meta": {
          "profile": [
            "http://hl7.eu/fhir/laboratory/StructureDefinition/Observation-resultslab-eu-lab"
          ]
        },
        "performer": [
          {
            "display": "The Central European Lab"
          }
        ],
        "category": [
          {
            "coding": [
              {
                "system": "http://terminology.hl7.org/CodeSystem/observation-category",
                "code": "laboratory"
              }
            ]
          }
        ],
        "code": {
          "coding": [
            {
              "code": "3094-0",
              "system": "http://loinc.org",
              "display": "Urea nitrogen [Mass/volume] in Serum or Plasma"
            }
          ],
          "text": "Urea nitrogen [Mass/volume] in Serum or Plasma"
        },
        "valueQuantity": {
          "system": "http://unitsofmeasure.org",
          "value": 15.6,
          "unit": "mg/dL",
          "code": "mg/dL"
        },
        "referenceRange": [
          {
            "low": {
              "value": 7,
              "code": "mg/dL",
              "system": "http://unitsofmeasure.org"
            }
          },
          {
            "high": {
              "value": 50,
              "code": "mg/dL",
              "system": "http://unitsofmeasure.org"
            }
          }
        ],
        "text": {
          "status": "generated",
          "div": "<div xmlns=\"http://www.w3.org/1999/xhtml\"><table class=\"hl7__eu__lab__report\"><tr><th>Test</th><th>17-Mar-2025</th><th>Reference&#xA0;Range</th><th>Unit</th></tr><tr><td>Urea nitrogen [Mass/volume] in Serum or Plasma</td><td>15.6</td><td>7 - 50</td><td></td><td>mg/dL</td></tr></table></div>"
        },
        "status": "final",
        "subject": {
          "reference": "urn:uuid:925c8b69-00b3-433a-887f-59c932ae7a1f",
          "display": "Meaghan Neary"
        },
        "effectiveDateTime": "2025-03-17T22:11:04Z",
        "specimen": {
          "reference": "urn:uuid:d545c87a-3825-4d45-bfa3-6b13feebd79b"
        }
      }
    },
    {
      "fullUrl": "urn:uuid:5bd00be8-23d0-47ec-b335-3e2cab890234",
      "resource": {
        "resourceType": "Observation",
        "id": "5bd00be8-23d0-47ec-b335-3e2cab890234",
        "meta": {
          "profile": [
            "http://hl7.eu/fhir/laboratory/StructureDefinition/Observation-resultslab-eu-lab"
          ]
        },
        "performer": [
          {
            "display": "The Central European Lab"
          }
        ],
        "category": [
          {
            "coding": [
              {
                "system": "http://terminology.hl7.org/CodeSystem/observation-category",
                "code": "laboratory"
              }
            ]
          }
        ],
        "code": {
          "coding": [
            {
              "code": "2160-0",
              "system": "http://loinc.org",
              "display": "Creatinine [Mass/volume] in Serum or Plasma"
            }
          ],
          "text": "Creatinine [Mass/volume] in Serum or Plasma"
        },
        "valueQuantity": {
          "system": "http://unitsofmeasure.org",
          "value": 2,
          "unit": "mg/dL",
          "code": "mg/dL"
        },
        "referenceRange": [
          {
            "low": {
              "value": 0.6,
              "code": "mg/dL",
              "system": "http://unitsofmeasure.org"
            }
          },
          {
            "high": {
              "value": 1.1,
              "code": "mg/dL",
              "system": "http://unitsofmeasure.org"
            }
          }
        ],
        "interpretation": [
          {
            "coding": [
              {
                "code": "H",
                "system": "http://terminology.hl7.org/CodeSystem/v3-ObservationInterpretation",
                "display": "High"
              }
            ]
          }
        ],
        "text": {
          "status": "generated",
          "div": "<div xmlns=\"http://www.w3.org/1999/xhtml\"><table class=\"hl7__eu__lab__report\"><tr><th>Test</th><th>17-Mar-2025</th><th>Reference&#xA0;Range</th><th>Unit</th></tr><tr><td>Creatinine [Mass/volume] in Serum or Plasma</td><td>2.0</td><td>0.6 - 1.1</td><td>H</td><td>mg/dL</td></tr></table></div>"
        },
        "status": "final",
        "subject": {
          "reference": "urn:uuid:925c8b69-00b3-433a-887f-59c932ae7a1f",
          "display": "Meaghan Neary"
        },
        "effectiveDateTime": "2025-03-17T22:11:04Z",
        "specimen": {
          "reference": "urn:uuid:d545c87a-3825-4d45-bfa3-6b13feebd79b"
        }
      }
    },
    {
      "fullUrl": "urn:uuid:edd407be-6088-4e9c-a574-6af58f02c48b",
      "resource": {
        "resourceType": "Observation",
        "id": "edd407be-6088-4e9c-a574-6af58f02c48b",
        "meta": {
          "profile": [
            "http://hl7.eu/fhir/laboratory/StructureDefinition/Observation-resultslab-eu-lab"
          ]
        },
        "performer": [
          {
            "display": "The Central European Lab"
          }
        ],
        "category": [
          {
            "coding": [
              {
                "system": "http://terminology.hl7.org/CodeSystem/observation-category",
                "code": "laboratory"
              }
            ]
          }
        ],
        "code": {
          "coding": [
            {
              "code": "17861-6",
              "system": "http://loinc.org",
              "display": "Calcium [Mass/volume] in Serum or Plasma"
            }
          ],
          "text": "Calcium [Mass/volume] in Serum or Plasma"
        },
        "valueQuantity": {
          "system": "http://unitsofmeasure.org",
          "value": 8.8,
          "unit": "mg/dL",
          "code": "mg/dL"
        },
        "referenceRange": [
          {
            "low": {
              "value": 8.6,
              "code": "mg/dL",
              "system": "http://unitsofmeasure.org"
            }
          },
          {
            "high": {
              "value": 10.4,
              "code": "mg/dL",
              "system": "http://unitsofmeasure.org"
            }
          }
        ],
        "text": {
          "status": "generated",
          "div": "<div xmlns=\"http://www.w3.org/1999/xhtml\"><table class=\"hl7__eu__lab__report\"><tr><th>Test</th><th>17-Mar-2025</th><th>Reference&#xA0;Range</th><th>Unit</th></tr><tr><td>Calcium [Mass/volume] in Serum or Plasma</td><td>8.8</td><td>8.6 - 10.4</td><td></td><td>mg/dL</td></tr></table></div>"
        },
        "status": "final",
        "subject": {
          "reference": "urn:uuid:925c8b69-00b3-433a-887f-59c932ae7a1f",
          "display": "Meaghan Neary"
        },
        "effectiveDateTime": "2025-03-17T22:11:04Z",
        "specimen": {
          "reference": "urn:uuid:d545c87a-3825-4d45-bfa3-6b13feebd79b"
        }
      }
    },
    {
      "fullUrl": "urn:uuid:5a9659d6-1e56-4f96-a5ae-7ad9229b6d20",
      "resource": {
        "resourceType": "Observation",
        "id": "5a9659d6-1e56-4f96-a5ae-7ad9229b6d20",
        "meta": {
          "profile": [
            "http://hl7.eu/fhir/laboratory/StructureDefinition/Observation-resultslab-eu-lab"
          ]
        },
        "performer": [
          {
            "display": "The Central European Lab"
          }
        ],
        "category": [
          {
            "coding": [
              {
                "system": "http://terminology.hl7.org/CodeSystem/observation-category",
                "code": "laboratory"
              }
            ]
          }
        ],
        "code": {
          "coding": [
            {
              "code": "2951-2",
              "system": "http://loinc.org",
              "display": "Sodium [Moles/volume] in Serum or Plasma"
            }
          ],
          "text": "Sodium [Moles/volume] in Serum or Plasma"
        },
        "valueQuantity": {
          "system": "http://unitsofmeasure.org",
          "value": 142,
          "unit": "mmol/L",
          "code": "mmol/L"
        },
        "referenceRange": [
          {
            "low": {
              "value": 135,
              "code": "mmol/L",
              "system": "http://unitsofmeasure.org"
            }
          },
          {
            "high": {
              "value": 145,
              "code": "mmol/L",
              "system": "http://unitsofmeasure.org"
            }
          }
        ],
        "text": {
          "status": "generated",
          "div": "<div xmlns=\"http://www.w3.org/1999/xhtml\"><table class=\"hl7__eu__lab__report\"><tr><th>Test</th><th>17-Mar-2025</th><th>Reference&#xA0;Range</th><th>Unit</th></tr><tr><td>Sodium [Moles/volume] in Serum or Plasma</td><td>142.0</td><td>135 - 145</td><td></td><td>mmol/L</td></tr></table></div>"
        },
        "status": "final",
        "subject": {
          "reference": "urn:uuid:925c8b69-00b3-433a-887f-59c932ae7a1f",
          "display": "Meaghan Neary"
        },
        "effectiveDateTime": "2025-03-17T22:11:04Z",
        "specimen": {
          "reference": "urn:uuid:d545c87a-3825-4d45-bfa3-6b13feebd79b"
        }
      }
    },
    {
      "fullUrl": "urn:uuid:11b68806-2133-4561-bc7d-0ee0121bd0ae",
      "resource": {
        "resourceType": "Observation",
        "id": "11b68806-2133-4561-bc7d-0ee0121bd0ae",
        "meta": {
          "profile": [
            "http://hl7.eu/fhir/laboratory/StructureDefinition/Observation-resultslab-eu-lab"
          ]
        },
        "performer": [
          {
            "display": "The Central European Lab"
          }
        ],
        "category": [
          {
            "coding": [
              {
                "system": "http://terminology.hl7.org/CodeSystem/observation-category",
                "code": "laboratory"
              }
            ]
          }
        ],
        "code": {
          "coding": [
            {
              "code": "2823-3",
              "system": "http://loinc.org",
              "display": "Potassium [Moles/volume] in Serum or Plasma"
            }
          ],
          "text": "Potassium [Moles/volume] in Serum or Plasma"
        },
        "valueQuantity": {
          "system": "http://unitsofmeasure.org",
          "value": 3.8,
          "unit": "mmol/L",
          "code": "mmol/L"
        },
        "referenceRange": [
          {
            "low": {
              "value": 3.5,
              "code": "mmol/L",
              "system": "http://unitsofmeasure.org"
            }
          },
          {
            "high": {
              "value": 5.1,
              "code": "mmol/L",
              "system": "http://unitsofmeasure.org"
            }
          }
        ],
        "text": {
          "status": "generated",
          "div": "<div xmlns=\"http://www.w3.org/1999/xhtml\"><table class=\"hl7__eu__lab__report\"><tr><th>Test</th><th>17-Mar-2025</th><th>Reference&#xA0;Range</th><th>Unit</th></tr><tr><td>Potassium [Moles/volume] in Serum or Plasma</td><td>3.8</td><td>3.5 - 5.1</td><td></td><td>mmol/L</td></tr></table></div>"
        },
        "status": "final",
        "subject": {
          "reference": "urn:uuid:925c8b69-00b3-433a-887f-59c932ae7a1f",
          "display": "Meaghan Neary"
        },
        "effectiveDateTime": "2025-03-17T22:11:04Z",
        "specimen": {
          "reference": "urn:uuid:d545c87a-3825-4d45-bfa3-6b13feebd79b"
        }
      }
    },
    {
      "fullUrl": "urn:uuid:75784387-09f8-419d-9f3f-db3a2e352bcb",
      "resource": {
        "resourceType": "Observation",
        "id": "75784387-09f8-419d-9f3f-db3a2e352bcb",
        "meta": {
          "profile": [
            "http://hl7.eu/fhir/laboratory/StructureDefinition/Observation-resultslab-eu-lab"
          ]
        },
        "performer": [
          {
            "display": "The Central European Lab"
          }
        ],
        "category": [
          {
            "coding": [
              {
                "system": "http://terminology.hl7.org/CodeSystem/observation-category",
                "code": "laboratory"
              }
            ]
          }
        ],
        "code": {
          "coding": [
            {
              "code": "2075-0",
              "system": "http://loinc.org",
              "display": "Chloride [Moles/volume] in Serum or Plasma"
            }
          ],
          "text": "Chloride [Moles/volume] in Serum or Plasma"
        },
        "valueQuantity": {
          "system": "http://unitsofmeasure.org",
          "value": 102.7,
          "unit": "mmol/L",
          "code": "mmol/L"
        },
        "referenceRange": [
          {
            "low": {
              "value": 98,
              "code": "mmol/L",
              "system": "http://unitsofmeasure.org"
            }
          },
          {
            "high": {
              "value": 108,
              "code": "mmol/L",
              "system": "http://unitsofmeasure.org"
            }
          }
        ],
        "text": {
          "status": "generated",
          "div": "<div xmlns=\"http://www.w3.org/1999/xhtml\"><table class=\"hl7__eu__lab__report\"><tr><th>Test</th><th>17-Mar-2025</th><th>Reference&#xA0;Range</th><th>Unit</th></tr><tr><td>Chloride [Moles/volume] in Serum or Plasma</td><td>102.7</td><td>98 - 108</td><td></td><td>mmol/L</td></tr></table></div>"
        },
        "status": "final",
        "subject": {
          "reference": "urn:uuid:925c8b69-00b3-433a-887f-59c932ae7a1f",
          "display": "Meaghan Neary"
        },
        "effectiveDateTime": "2025-03-17T22:11:04Z",
        "specimen": {
          "reference": "urn:uuid:d545c87a-3825-4d45-bfa3-6b13feebd79b"
        }
      }
    },
    {
      "fullUrl": "urn:uuid:77333ea3-ea8f-43c1-a25a-c3cab64213ce",
      "resource": {
        "resourceType": "Observation",
        "id": "77333ea3-ea8f-43c1-a25a-c3cab64213ce",
        "meta": {
          "profile": [
            "http://hl7.eu/fhir/laboratory/StructureDefinition/Observation-resultslab-eu-lab"
          ]
        },
        "performer": [
          {
            "display": "The Central European Lab"
          }
        ],
        "category": [
          {
            "coding": [
              {
                "system": "http://terminology.hl7.org/CodeSystem/observation-category",
                "code": "laboratory"
              }
            ]
          }
        ],
        "code": {
          "coding": [
            {
              "code": "2028-9",
              "system": "http://loinc.org",
              "display": "Carbon dioxide, total [Moles/volume] in Serum or Plasma"
            }
          ],
          "text": "Carbon dioxide, total [Moles/volume] in Serum or Plasma"
        },
        "valueQuantity": {
          "system": "http://unitsofmeasure.org",
          "value": 23.3,
          "unit": "mmol/L",
          "code": "mmol/L"
        },
        "referenceRange": [
          {
            "low": {
              "value": 22,
              "code": "mmol/L",
              "system": "http://unitsofmeasure.org"
            }
          },
          {
            "high": {
              "value": 32,
              "code": "mmol/L",
              "system": "http://unitsofmeasure.org"
            }
          }
        ],
        "text": {
          "status": "generated",
          "div": "<div xmlns=\"http://www.w3.org/1999/xhtml\"><table class=\"hl7__eu__lab__report\"><tr><th>Test</th><th>17-Mar-2025</th><th>Reference&#xA0;Range</th><th>Unit</th></tr><tr><td>Carbon dioxide, total [Moles/volume] in Serum or Plasma</td><td>23.3</td><td>22 - 32</td><td></td><td>mmol/L</td></tr></table></div>"
        },
        "status": "final",
        "subject": {
          "reference": "urn:uuid:925c8b69-00b3-433a-887f-59c932ae7a1f",
          "display": "Meaghan Neary"
        },
        "effectiveDateTime": "2025-03-17T22:11:04Z",
        "specimen": {
          "reference": "urn:uuid:d545c87a-3825-4d45-bfa3-6b13feebd79b"
        }
      }
    },
    {
      "fullUrl": "urn:uuid:cf326712-83fd-4190-9ba2-f7c0e4acd937",
      "resource": {
        "resourceType": "Observation",
        "id": "cf326712-83fd-4190-9ba2-f7c0e4acd937",
        "meta": {
          "profile": [
            "http://hl7.eu/fhir/laboratory/StructureDefinition/Observation-resultslab-eu-lab"
          ]
        },
        "performer": [
          {
            "display": "The Central European Lab"
          }
        ],
        "category": [
          {
            "coding": [
              {
                "system": "http://terminology.hl7.org/CodeSystem/observation-category",
                "code": "laboratory"
              }
            ]
          }
        ],
        "code": {
          "coding": [
            {
              "code": "5767-9",
              "system": "http://loinc.org",
              "display": "Appearance of Urine"
            }
          ],
          "text": "Appearance of Urine"
        },
        "text": {
          "status": "generated",
          "div": "<div xmlns=\"http://www.w3.org/1999/xhtml\"><table class=\"hl7__eu__lab__report\"><tr><th>Test</th><th>17-Mar-2025</th><th>Reference&#xA0;Range</th><th>Unit</th></tr><tr><td>Appearance of Urine</td></tr></table></div>"
        },
        "status": "final",
        "subject": {
          "reference": "urn:uuid:925c8b69-00b3-433a-887f-59c932ae7a1f",
          "display": "Meaghan Neary"
        },
        "effectiveDateTime": "2025-03-17T22:11:04Z",
        "specimen": {
          "reference": "urn:uuid:4eb57e4c-aaac-41d1-9f45-50cf632a4821"
        }
      }
    },
    {
      "fullUrl": "urn:uuid:9f4e11e4-3e55-40f2-ab65-d0b887070bc8",
      "resource": {
        "resourceType": "Observation",
        "id": "9f4e11e4-3e55-40f2-ab65-d0b887070bc8",
        "meta": {
          "profile": [
            "http://hl7.eu/fhir/laboratory/StructureDefinition/Observation-resultslab-eu-lab"
          ]
        },
        "performer": [
          {
            "display": "The Central European Lab"
          }
        ],
        "category": [
          {
            "coding": [
              {
                "system": "http://terminology.hl7.org/CodeSystem/observation-category",
                "code": "laboratory"
              }
            ]
          }
        ],
        "code": {
          "coding": [
            {
              "code": "34533-0",
              "system": "http://loinc.org",
              "display": "Odor of Urine"
            }
          ],
          "text": "Odor of Urine"
        },
        "text": {
          "status": "generated",
          "div": "<div xmlns=\"http://www.w3.org/1999/xhtml\"><table class=\"hl7__eu__lab__report\"><tr><th>Test</th><th>17-Mar-2025</th><th>Reference&#xA0;Range</th><th>Unit</th></tr><tr><td>Odor of Urine</td></tr></table></div>"
        },
        "status": "final",
        "subject": {
          "reference": "urn:uuid:925c8b69-00b3-433a-887f-59c932ae7a1f",
          "display": "Meaghan Neary"
        },
        "effectiveDateTime": "2025-03-17T22:11:04Z",
        "specimen": {
          "reference": "urn:uuid:4eb57e4c-aaac-41d1-9f45-50cf632a4821"
        }
      }
    },
    {
      "fullUrl": "urn:uuid:549289d1-90b9-45f0-bef9-4671a64228cd",
      "resource": {
        "resourceType": "Observation",
        "id": "549289d1-90b9-45f0-bef9-4671a64228cd",
        "meta": {
          "profile": [
            "http://hl7.eu/fhir/laboratory/StructureDefinition/Observation-resultslab-eu-lab"
          ]
        },
        "performer": [
          {
            "display": "The Central European Lab"
          }
        ],
        "category": [
          {
            "coding": [
              {
                "system": "http://terminology.hl7.org/CodeSystem/observation-category",
                "code": "laboratory"
              }
            ]
          }
        ],
        "code": {
          "coding": [
            {
              "code": "32167-9",
              "system": "http://loinc.org",
              "display": "Clarity of Urine"
            }
          ],
          "text": "Clarity of Urine"
        },
        "text": {
          "status": "generated",
          "div": "<div xmlns=\"http://www.w3.org/1999/xhtml\"><table class=\"hl7__eu__lab__report\"><tr><th>Test</th><th>17-Mar-2025</th><th>Reference&#xA0;Range</th><th>Unit</th></tr><tr><td>Clarity of Urine</td></tr></table></div>"
        },
        "status": "final",
        "subject": {
          "reference": "urn:uuid:925c8b69-00b3-433a-887f-59c932ae7a1f",
          "display": "Meaghan Neary"
        },
        "effectiveDateTime": "2025-03-17T22:11:04Z",
        "specimen": {
          "reference": "urn:uuid:4eb57e4c-aaac-41d1-9f45-50cf632a4821"
        }
      }
    },
    {
      "fullUrl": "urn:uuid:75fdfa5b-33a3-4551-a9ba-ffda837e8d85",
      "resource": {
        "resourceType": "Observation",
        "id": "75fdfa5b-33a3-4551-a9ba-ffda837e8d85",
        "meta": {
          "profile": [
            "http://hl7.eu/fhir/laboratory/StructureDefinition/Observation-resultslab-eu-lab"
          ]
        },
        "performer": [
          {
            "display": "The Central European Lab"
          }
        ],
        "category": [
          {
            "coding": [
              {
                "system": "http://terminology.hl7.org/CodeSystem/observation-category",
                "code": "laboratory"
              }
            ]
          }
        ],
        "code": {
          "coding": [
            {
              "code": "5778-6",
              "system": "http://loinc.org",
              "display": "Color of Urine"
            }
          ],
          "text": "Color of Urine"
        },
        "text": {
          "status": "generated",
          "div": "<div xmlns=\"http://www.w3.org/1999/xhtml\"><table class=\"hl7__eu__lab__report\"><tr><th>Test</th><th>17-Mar-2025</th><th>Reference&#xA0;Range</th><th>Unit</th></tr><tr><td>Color of Urine</td></tr></table></div>"
        },
        "status": "final",
        "subject": {
          "reference": "urn:uuid:925c8b69-00b3-433a-887f-59c932ae7a1f",
          "display": "Meaghan Neary"
        },
        "effectiveDateTime": "2025-03-17T22:11:04Z",
        "specimen": {
          "reference": "urn:uuid:4eb57e4c-aaac-41d1-9f45-50cf632a4821"
        }
      }
    },
    {
      "fullUrl": "urn:uuid:8b0e21c1-62f1-41a4-b8bb-fbc235b22674",
      "resource": {
        "resourceType": "Observation",
        "id": "8b0e21c1-62f1-41a4-b8bb-fbc235b22674",
        "meta": {
          "profile": [
            "http://hl7.eu/fhir/laboratory/StructureDefinition/Observation-resultslab-eu-lab"
          ]
        },
        "performer": [
          {
            "display": "The Central European Lab"
          }
        ],
        "category": [
          {
            "coding": [
              {
                "system": "http://terminology.hl7.org/CodeSystem/observation-category",
                "code": "laboratory"
              }
            ]
          }
        ],
        "code": {
          "coding": [
            {
              "code": "5792-7",
              "system": "http://loinc.org",
              "display": "Glucose [Mass/volume] in Urine by Test strip"
            }
          ],
          "text": "Glucose [Mass/volume] in Urine by Test strip"
        },
        "valueQuantity": {
          "system": "http://unitsofmeasure.org",
          "value": 2.2,
          "unit": "mg/dL",
          "code": "mg/dL"
        },
        "referenceRange": [
          {
            "low": {
              "value": 0.8,
              "code": "mg/dL",
              "system": "http://unitsofmeasure.org"
            }
          },
          {
            "high": {
              "value": 0,
              "code": "mg/dL",
              "system": "http://unitsofmeasure.org"
            }
          }
        ],
        "interpretation": [
          {
            "coding": [
              {
                "code": "H",
                "system": "http://terminology.hl7.org/CodeSystem/v3-ObservationInterpretation",
                "display": "High"
              }
            ]
          }
        ],
        "text": {
          "status": "generated",
          "div": "<div xmlns=\"http://www.w3.org/1999/xhtml\"><table class=\"hl7__eu__lab__report\"><tr><th>Test</th><th>17-Mar-2025</th><th>Reference&#xA0;Range</th><th>Unit</th></tr><tr><td>Glucose [Mass/volume] in Urine by Test strip</td><td>2.2</td><td>0.8 - 0</td><td>H</td><td>mg/dL</td></tr></table></div>"
        },
        "status": "final",
        "subject": {
          "reference": "urn:uuid:925c8b69-00b3-433a-887f-59c932ae7a1f",
          "display": "Meaghan Neary"
        },
        "effectiveDateTime": "2025-03-17T22:11:04Z",
        "specimen": {
          "reference": "urn:uuid:4eb57e4c-aaac-41d1-9f45-50cf632a4821"
        }
      }
    },
    {
      "fullUrl": "urn:uuid:e8dd8cd2-f3b1-4665-bc77-828a99b63acb",
      "resource": {
        "resourceType": "Observation",
        "id": "e8dd8cd2-f3b1-4665-bc77-828a99b63acb",
        "meta": {
          "profile": [
            "http://hl7.eu/fhir/laboratory/StructureDefinition/Observation-resultslab-eu-lab"
          ]
        },
        "performer": [
          {
            "display": "The Central European Lab"
          }
        ],
        "category": [
          {
            "coding": [
              {
                "system": "http://terminology.hl7.org/CodeSystem/observation-category",
                "code": "laboratory"
              }
            ]
          }
        ],
        "code": {
          "coding": [
            {
              "code": "25428-4",
              "system": "http://loinc.org",
              "display": "Glucose [Presence] in Urine by Test strip"
            }
          ],
          "text": "Glucose [Presence] in Urine by Test strip"
        },
        "text": {
          "status": "generated",
          "div": "<div xmlns=\"http://www.w3.org/1999/xhtml\"><table class=\"hl7__eu__lab__report\"><tr><th>Test</th><th>17-Mar-2025</th><th>Reference&#xA0;Range</th><th>Unit</th></tr><tr><td>Glucose [Presence] in Urine by Test strip</td></tr></table></div>"
        },
        "status": "final",
        "subject": {
          "reference": "urn:uuid:925c8b69-00b3-433a-887f-59c932ae7a1f",
          "display": "Meaghan Neary"
        },
        "effectiveDateTime": "2025-03-17T22:11:04Z",
        "specimen": {
          "reference": "urn:uuid:4eb57e4c-aaac-41d1-9f45-50cf632a4821"
        }
      }
    },
    {
      "fullUrl": "urn:uuid:e9acd533-5b9e-43fc-a6a7-e88758debe64",
      "resource": {
        "resourceType": "Observation",
        "id": "e9acd533-5b9e-43fc-a6a7-e88758debe64",
        "meta": {
          "profile": [
            "http://hl7.eu/fhir/laboratory/StructureDefinition/Observation-resultslab-eu-lab"
          ]
        },
        "performer": [
          {
            "display": "The Central European Lab"
          }
        ],
        "category": [
          {
            "coding": [
              {
                "system": "http://terminology.hl7.org/CodeSystem/observation-category",
                "code": "laboratory"
              }
            ]
          }
        ],
        "code": {
          "coding": [
            {
              "code": "20505-4",
              "system": "http://loinc.org",
              "display": "Bilirubin.total [Mass/volume] in Urine by Test strip"
            }
          ],
          "text": "Bilirubin.total [Mass/volume] in Urine by Test strip"
        },
        "valueQuantity": {
          "system": "http://unitsofmeasure.org",
          "value": 1,
          "unit": "mg/dL",
          "code": "mg/dL"
        },
        "referenceRange": [
          {
            "low": {
              "value": 0,
              "code": "mg/dL",
              "system": "http://unitsofmeasure.org"
            }
          },
          {
            "high": {
              "value": 1,
              "code": "mg/dL",
              "system": "http://unitsofmeasure.org"
            }
          }
        ],
        "text": {
          "status": "generated",
          "div": "<div xmlns=\"http://www.w3.org/1999/xhtml\"><table class=\"hl7__eu__lab__report\"><tr><th>Test</th><th>17-Mar-2025</th><th>Reference&#xA0;Range</th><th>Unit</th></tr><tr><td>Bilirubin.total [Mass/volume] in Urine by Test strip</td><td>1.0</td><td>0 - 1</td><td></td><td>mg/dL</td></tr></table></div>"
        },
        "status": "final",
        "subject": {
          "reference": "urn:uuid:925c8b69-00b3-433a-887f-59c932ae7a1f",
          "display": "Meaghan Neary"
        },
        "effectiveDateTime": "2025-03-17T22:11:04Z",
        "specimen": {
          "reference": "urn:uuid:4eb57e4c-aaac-41d1-9f45-50cf632a4821"
        }
      }
    },
    {
      "fullUrl": "urn:uuid:f8844287-9974-43d9-b96e-feebde1f4017",
      "resource": {
        "resourceType": "Observation",
        "id": "f8844287-9974-43d9-b96e-feebde1f4017",
        "meta": {
          "profile": [
            "http://hl7.eu/fhir/laboratory/StructureDefinition/Observation-resultslab-eu-lab"
          ]
        },
        "performer": [
          {
            "display": "The Central European Lab"
          }
        ],
        "category": [
          {
            "coding": [
              {
                "system": "http://terminology.hl7.org/CodeSystem/observation-category",
                "code": "laboratory"
              }
            ]
          }
        ],
        "code": {
          "coding": [
            {
              "code": "5770-3",
              "system": "http://loinc.org",
              "display": "Bilirubin.total [Presence] in Urine by Test strip"
            }
          ],
          "text": "Bilirubin.total [Presence] in Urine by Test strip"
        },
        "text": {
          "status": "generated",
          "div": "<div xmlns=\"http://www.w3.org/1999/xhtml\"><table class=\"hl7__eu__lab__report\"><tr><th>Test</th><th>17-Mar-2025</th><th>Reference&#xA0;Range</th><th>Unit</th></tr><tr><td>Bilirubin.total [Presence] in Urine by Test strip</td></tr></table></div>"
        },
        "status": "final",
        "subject": {
          "reference": "urn:uuid:925c8b69-00b3-433a-887f-59c932ae7a1f",
          "display": "Meaghan Neary"
        },
        "effectiveDateTime": "2025-03-17T22:11:04Z",
        "specimen": {
          "reference": "urn:uuid:4eb57e4c-aaac-41d1-9f45-50cf632a4821"
        }
      }
    },
    {
      "fullUrl": "urn:uuid:fd0d5219-18f6-431d-a31c-0b6d2fd93a98",
      "resource": {
        "resourceType": "Observation",
        "id": "fd0d5219-18f6-431d-a31c-0b6d2fd93a98",
        "meta": {
          "profile": [
            "http://hl7.eu/fhir/laboratory/StructureDefinition/Observation-resultslab-eu-lab"
          ]
        },
        "performer": [
          {
            "display": "The Central European Lab"
          }
        ],
        "category": [
          {
            "coding": [
              {
                "system": "http://terminology.hl7.org/CodeSystem/observation-category",
                "code": "laboratory"
              }
            ]
          }
        ],
        "code": {
          "coding": [
            {
              "code": "5797-6",
              "system": "http://loinc.org",
              "display": "Ketones [Mass/volume] in Urine by Test strip"
            }
          ],
          "text": "Ketones [Mass/volume] in Urine by Test strip"
        },
        "valueQuantity": {
          "system": "http://unitsofmeasure.org",
          "value": 4.2,
          "unit": "mg/dL",
          "code": "mg/dL"
        },
        "referenceRange": [
          {
            "low": {
              "value": 0,
              "code": "mg/dL",
              "system": "http://unitsofmeasure.org"
            }
          },
          {
            "high": {
              "value": 4,
              "code": "mg/dL",
              "system": "http://unitsofmeasure.org"
            }
          }
        ],
        "interpretation": [
          {
            "coding": [
              {
                "code": "H",
                "system": "http://terminology.hl7.org/CodeSystem/v3-ObservationInterpretation",
                "display": "High"
              }
            ]
          }
        ],
        "text": {
          "status": "generated",
          "div": "<div xmlns=\"http://www.w3.org/1999/xhtml\"><table class=\"hl7__eu__lab__report\"><tr><th>Test</th><th>17-Mar-2025</th><th>Reference&#xA0;Range</th><th>Unit</th></tr><tr><td>Ketones [Mass/volume] in Urine by Test strip</td><td>4.2</td><td>0 - 4</td><td>H</td><td>mg/dL</td></tr></table></div>"
        },
        "status": "final",
        "subject": {
          "reference": "urn:uuid:925c8b69-00b3-433a-887f-59c932ae7a1f",
          "display": "Meaghan Neary"
        },
        "effectiveDateTime": "2025-03-17T22:11:04Z",
        "specimen": {
          "reference": "urn:uuid:4eb57e4c-aaac-41d1-9f45-50cf632a4821"
        }
      }
    },
    {
      "fullUrl": "urn:uuid:0d6c2d7b-0334-46cc-8399-fd1c972e8dc4",
      "resource": {
        "resourceType": "Observation",
        "id": "0d6c2d7b-0334-46cc-8399-fd1c972e8dc4",
        "meta": {
          "profile": [
            "http://hl7.eu/fhir/laboratory/StructureDefinition/Observation-resultslab-eu-lab"
          ]
        },
        "performer": [
          {
            "display": "The Central European Lab"
          }
        ],
        "category": [
          {
            "coding": [
              {
                "system": "http://terminology.hl7.org/CodeSystem/observation-category",
                "code": "laboratory"
              }
            ]
          }
        ],
        "code": {
          "coding": [
            {
              "code": "2514-8",
              "system": "http://loinc.org",
              "display": "Ketones [Presence] in Urine by Test strip"
            }
          ],
          "text": "Ketones [Presence] in Urine by Test strip"
        },
        "text": {
          "status": "generated",
          "div": "<div xmlns=\"http://www.w3.org/1999/xhtml\"><table class=\"hl7__eu__lab__report\"><tr><th>Test</th><th>17-Mar-2025</th><th>Reference&#xA0;Range</th><th>Unit</th></tr><tr><td>Ketones [Presence] in Urine by Test strip</td></tr></table></div>"
        },
        "status": "final",
        "subject": {
          "reference": "urn:uuid:925c8b69-00b3-433a-887f-59c932ae7a1f",
          "display": "Meaghan Neary"
        },
        "effectiveDateTime": "2025-03-17T22:11:04Z",
        "specimen": {
          "reference": "urn:uuid:4eb57e4c-aaac-41d1-9f45-50cf632a4821"
        }
      }
    },
    {
      "fullUrl": "urn:uuid:fd4ce420-b8f9-4eaa-8752-748a6af52d2c",
      "resource": {
        "resourceType": "Observation",
        "id": "fd4ce420-b8f9-4eaa-8752-748a6af52d2c",
        "meta": {
          "profile": [
            "http://hl7.eu/fhir/laboratory/StructureDefinition/Observation-resultslab-eu-lab"
          ]
        },
        "performer": [
          {
            "display": "The Central European Lab"
          }
        ],
        "category": [
          {
            "coding": [
              {
                "system": "http://terminology.hl7.org/CodeSystem/observation-category",
                "code": "laboratory"
              }
            ]
          }
        ],
        "code": {
          "coding": [
            {
              "code": "5811-5",
              "system": "http://loinc.org",
              "display": "Specific gravity of Urine by Test strip"
            }
          ],
          "text": "Specific gravity of Urine by Test strip"
        },
        "valueQuantity": {
          "system": "http://unitsofmeasure.org",
          "value": 1,
          "unit": "{nominal}",
          "code": "{nominal}"
        },
        "referenceRange": [
          {
            "low": {
              "value": 1.005,
              "code": "g/mL",
              "system": "http://unitsofmeasure.org"
            }
          },
          {
            "high": {
              "value": 1.03,
              "code": "g/mL",
              "system": "http://unitsofmeasure.org"
            }
          }
        ],
        "interpretation": [
          {
            "coding": [
              {
                "code": "L",
                "system": "http://terminology.hl7.org/CodeSystem/v3-ObservationInterpretation",
                "display": "Low"
              }
            ]
          }
        ],
        "text": {
          "status": "generated",
          "div": "<div xmlns=\"http://www.w3.org/1999/xhtml\"><table class=\"hl7__eu__lab__report\"><tr><th>Test</th><th>17-Mar-2025</th><th>Reference&#xA0;Range</th><th>Unit</th></tr><tr><td>Specific gravity of Urine by Test strip</td><td>1.0</td><td>1.005 - 1.03</td><td>L</td><td>{nominal}</td></tr></table></div>"
        },
        "status": "final",
        "subject": {
          "reference": "urn:uuid:925c8b69-00b3-433a-887f-59c932ae7a1f",
          "display": "Meaghan Neary"
        },
        "effectiveDateTime": "2025-03-17T22:11:04Z",
        "specimen": {
          "reference": "urn:uuid:4eb57e4c-aaac-41d1-9f45-50cf632a4821"
        }
      }
    },
    {
      "fullUrl": "urn:uuid:5f219edf-2db5-46a0-8dac-7c35d0e11f94",
      "resource": {
        "resourceType": "Observation",
        "id": "5f219edf-2db5-46a0-8dac-7c35d0e11f94",
        "meta": {
          "profile": [
            "http://hl7.eu/fhir/laboratory/StructureDefinition/Observation-resultslab-eu-lab"
          ]
        },
        "performer": [
          {
            "display": "The Central European Lab"
          }
        ],
        "category": [
          {
            "coding": [
              {
                "system": "http://terminology.hl7.org/CodeSystem/observation-category",
                "code": "laboratory"
              }
            ]
          }
        ],
        "code": {
          "coding": [
            {
              "code": "5803-2",
              "system": "http://loinc.org",
              "display": "pH of Urine by Test strip"
            }
          ],
          "text": "pH of Urine by Test strip"
        },
        "valueQuantity": {
          "system": "http://unitsofmeasure.org",
          "value": 6.4,
          "unit": "pH",
          "code": "pH"
        },
        "referenceRange": [
          {
            "low": {
              "value": 4.6,
              "code": "pH",
              "system": "http://unitsofmeasure.org"
            }
          },
          {
            "high": {
              "value": 7,
              "code": "pH",
              "system": "http://unitsofmeasure.org"
            }
          }
        ],
        "text": {
          "status": "generated",
          "div": "<div xmlns=\"http://www.w3.org/1999/xhtml\"><table class=\"hl7__eu__lab__report\"><tr><th>Test</th><th>17-Mar-2025</th><th>Reference&#xA0;Range</th><th>Unit</th></tr><tr><td>pH of Urine by Test strip</td><td>6.4</td><td>4.6 - 7</td><td></td><td>pH</td></tr></table></div>"
        },
        "status": "final",
        "subject": {
          "reference": "urn:uuid:925c8b69-00b3-433a-887f-59c932ae7a1f",
          "display": "Meaghan Neary"
        },
        "effectiveDateTime": "2025-03-17T22:11:04Z",
        "specimen": {
          "reference": "urn:uuid:4eb57e4c-aaac-41d1-9f45-50cf632a4821"
        }
      }
    },
    {
      "fullUrl": "urn:uuid:e38c3903-66a2-4219-86fd-ea049a343f5d",
      "resource": {
        "resourceType": "Observation",
        "id": "e38c3903-66a2-4219-86fd-ea049a343f5d",
        "meta": {
          "profile": [
            "http://hl7.eu/fhir/laboratory/StructureDefinition/Observation-resultslab-eu-lab"
          ]
        },
        "performer": [
          {
            "display": "The Central European Lab"
          }
        ],
        "category": [
          {
            "coding": [
              {
                "system": "http://terminology.hl7.org/CodeSystem/observation-category",
                "code": "laboratory"
              }
            ]
          }
        ],
        "code": {
          "coding": [
            {
              "code": "5804-0",
              "system": "http://loinc.org",
              "display": "Protein [Mass/volume] in Urine by Test strip"
            }
          ],
          "text": "Protein [Mass/volume] in Urine by Test strip"
        },
        "valueQuantity": {
          "system": "http://unitsofmeasure.org",
          "value": 344,
          "unit": "mg/dL",
          "code": "mg/dL"
        },
        "referenceRange": [
          {
            "low": {
              "value": 0,
              "code": "mg/dL",
              "system": "http://unitsofmeasure.org"
            }
          },
          {
            "high": {
              "value": 14,
              "code": "mg/dL",
              "system": "http://unitsofmeasure.org"
            }
          }
        ],
        "interpretation": [
          {
            "coding": [
              {
                "code": "H",
                "system": "http://terminology.hl7.org/CodeSystem/v3-ObservationInterpretation",
                "display": "High"
              }
            ]
          }
        ],
        "text": {
          "status": "generated",
          "div": "<div xmlns=\"http://www.w3.org/1999/xhtml\"><table class=\"hl7__eu__lab__report\"><tr><th>Test</th><th>17-Mar-2025</th><th>Reference&#xA0;Range</th><th>Unit</th></tr><tr><td>Protein [Mass/volume] in Urine by Test strip</td><td>344.0</td><td>0 - 14</td><td>H</td><td>mg/dL</td></tr></table></div>"
        },
        "status": "final",
        "subject": {
          "reference": "urn:uuid:925c8b69-00b3-433a-887f-59c932ae7a1f",
          "display": "Meaghan Neary"
        },
        "effectiveDateTime": "2025-03-17T22:11:04Z",
        "specimen": {
          "reference": "urn:uuid:4eb57e4c-aaac-41d1-9f45-50cf632a4821"
        }
      }
    },
    {
      "fullUrl": "urn:uuid:718ef9e9-df38-4375-91f0-21c3a083b258",
      "resource": {
        "resourceType": "Observation",
        "id": "718ef9e9-df38-4375-91f0-21c3a083b258",
        "meta": {
          "profile": [
            "http://hl7.eu/fhir/laboratory/StructureDefinition/Observation-resultslab-eu-lab"
          ]
        },
        "performer": [
          {
            "display": "The Central European Lab"
          }
        ],
        "category": [
          {
            "coding": [
              {
                "system": "http://terminology.hl7.org/CodeSystem/observation-category",
                "code": "laboratory"
              }
            ]
          }
        ],
        "code": {
          "coding": [
            {
              "code": "20454-5",
              "system": "http://loinc.org",
              "display": "Protein [Presence] in Urine by Test strip"
            }
          ],
          "text": "Protein [Presence] in Urine by Test strip"
        },
        "text": {
          "status": "generated",
          "div": "<div xmlns=\"http://www.w3.org/1999/xhtml\"><table class=\"hl7__eu__lab__report\"><tr><th>Test</th><th>17-Mar-2025</th><th>Reference&#xA0;Range</th><th>Unit</th></tr><tr><td>Protein [Presence] in Urine by Test strip</td></tr></table></div>"
        },
        "status": "final",
        "subject": {
          "reference": "urn:uuid:925c8b69-00b3-433a-887f-59c932ae7a1f",
          "display": "Meaghan Neary"
        },
        "effectiveDateTime": "2025-03-17T22:11:04Z",
        "specimen": {
          "reference": "urn:uuid:4eb57e4c-aaac-41d1-9f45-50cf632a4821"
        }
      }
    },
    {
      "fullUrl": "urn:uuid:06fca931-0cd0-47a5-a064-24689dbdcabb",
      "resource": {
        "resourceType": "Observation",
        "id": "06fca931-0cd0-47a5-a064-24689dbdcabb",
        "meta": {
          "profile": [
            "http://hl7.eu/fhir/laboratory/StructureDefinition/Observation-resultslab-eu-lab"
          ]
        },
        "performer": [
          {
            "display": "The Central European Lab"
          }
        ],
        "category": [
          {
            "coding": [
              {
                "system": "http://terminology.hl7.org/CodeSystem/observation-category",
                "code": "laboratory"
              }
            ]
          }
        ],
        "code": {
          "coding": [
            {
              "code": "5802-4",
              "system": "http://loinc.org",
              "display": "Nitrite [Presence] in Urine by Test strip"
            }
          ],
          "text": "Nitrite [Presence] in Urine by Test strip"
        },
        "text": {
          "status": "generated",
          "div": "<div xmlns=\"http://www.w3.org/1999/xhtml\"><table class=\"hl7__eu__lab__report\"><tr><th>Test</th><th>17-Mar-2025</th><th>Reference&#xA0;Range</th><th>Unit</th></tr><tr><td>Nitrite [Presence] in Urine by Test strip</td></tr></table></div>"
        },
        "status": "final",
        "subject": {
          "reference": "urn:uuid:925c8b69-00b3-433a-887f-59c932ae7a1f",
          "display": "Meaghan Neary"
        },
        "effectiveDateTime": "2025-03-17T22:11:04Z",
        "specimen": {
          "reference": "urn:uuid:4eb57e4c-aaac-41d1-9f45-50cf632a4821"
        }
      }
    },
    {
      "fullUrl": "urn:uuid:17c1cae1-7322-4aea-b97e-428aa64d05ba",
      "resource": {
        "resourceType": "Observation",
        "id": "17c1cae1-7322-4aea-b97e-428aa64d05ba",
        "meta": {
          "profile": [
            "http://hl7.eu/fhir/laboratory/StructureDefinition/Observation-resultslab-eu-lab"
          ]
        },
        "performer": [
          {
            "display": "The Central European Lab"
          }
        ],
        "category": [
          {
            "coding": [
              {
                "system": "http://terminology.hl7.org/CodeSystem/observation-category",
                "code": "laboratory"
              }
            ]
          }
        ],
        "code": {
          "coding": [
            {
              "code": "5794-3",
              "system": "http://loinc.org",
              "display": "Hemoglobin [Presence] in Urine by Test strip"
            }
          ],
          "text": "Hemoglobin [Presence] in Urine by Test strip"
        },
        "text": {
          "status": "generated",
          "div": "<div xmlns=\"http://www.w3.org/1999/xhtml\"><table class=\"hl7__eu__lab__report\"><tr><th>Test</th><th>17-Mar-2025</th><th>Reference&#xA0;Range</th><th>Unit</th></tr><tr><td>Hemoglobin [Presence] in Urine by Test strip</td></tr></table></div>"
        },
        "status": "final",
        "subject": {
          "reference": "urn:uuid:925c8b69-00b3-433a-887f-59c932ae7a1f",
          "display": "Meaghan Neary"
        },
        "effectiveDateTime": "2025-03-17T22:11:04Z",
        "specimen": {
          "reference": "urn:uuid:4eb57e4c-aaac-41d1-9f45-50cf632a4821"
        }
      }
    },
    {
      "fullUrl": "urn:uuid:2bfb6cd9-5e84-4150-b157-c75fe55ce660",
      "resource": {
        "resourceType": "Observation",
        "id": "2bfb6cd9-5e84-4150-b157-c75fe55ce660",
        "meta": {
          "profile": [
            "http://hl7.eu/fhir/laboratory/StructureDefinition/Observation-resultslab-eu-lab"
          ]
        },
        "performer": [
          {
            "display": "The Central European Lab"
          }
        ],
        "category": [
          {
            "coding": [
              {
                "system": "http://terminology.hl7.org/CodeSystem/observation-category",
                "code": "laboratory"
              }
            ]
          }
        ],
        "code": {
          "coding": [
            {
              "code": "5799-2",
              "system": "http://loinc.org",
              "display": "Leukocyte esterase [Presence] in Urine by Test strip"
            }
          ],
          "text": "Leukocyte esterase [Presence] in Urine by Test strip"
        },
        "text": {
          "status": "generated",
          "div": "<div xmlns=\"http://www.w3.org/1999/xhtml\"><table class=\"hl7__eu__lab__report\"><tr><th>Test</th><th>17-Mar-2025</th><th>Reference&#xA0;Range</th><th>Unit</th></tr><tr><td>Leukocyte esterase [Presence] in Urine by Test strip</td></tr></table></div>"
        },
        "status": "final",
        "subject": {
          "reference": "urn:uuid:925c8b69-00b3-433a-887f-59c932ae7a1f",
          "display": "Meaghan Neary"
        },
        "effectiveDateTime": "2025-03-17T22:11:04Z",
        "specimen": {
          "reference": "urn:uuid:4eb57e4c-aaac-41d1-9f45-50cf632a4821"
        }
      }
    },
    {
      "fullUrl": "urn:uuid:cd0f1ce6-2ecd-4357-af5c-72cd848b66f5",
      "resource": {
        "resourceType": "Observation",
        "id": "cd0f1ce6-2ecd-4357-af5c-72cd848b66f5",
        "meta": {
          "profile": [
            "http://hl7.eu/fhir/laboratory/StructureDefinition/Observation-resultslab-eu-lab"
          ]
        },
        "performer": [
          {
            "display": "The Central European Lab"
          }
        ],
        "category": [
          {
            "coding": [
              {
                "system": "http://terminology.hl7.org/CodeSystem/observation-category",
                "code": "laboratory"
              }
            ]
          }
        ],
        "code": {
          "coding": [
            {
              "code": "4548-4",
              "system": "http://loinc.org",
              "display": "Hemoglobin A1c/Hemoglobin.total in Blood"
            }
          ],
          "text": "Hemoglobin A1c/Hemoglobin.total in Blood"
        },
        "valueQuantity": {
          "system": "http://unitsofmeasure.org",
          "value": 4,
          "unit": "%",
          "code": "%"
        },
        "referenceRange": [
          {
            "low": {
              "value": 4,
              "code": "%",
              "system": "http://unitsofmeasure.org"
            }
          },
          {
            "high": {
              "value": 6.4,
              "code": "%",
              "system": "http://unitsofmeasure.org"
            }
          }
        ],
        "text": {
          "status": "generated",
          "div": "<div xmlns=\"http://www.w3.org/1999/xhtml\"><table class=\"hl7__eu__lab__report\"><tr><th>Test</th><th>17-Mar-2025</th><th>Reference&#xA0;Range</th><th>Unit</th></tr><tr><td>Hemoglobin A1c/Hemoglobin.total in Blood</td><td>4.0</td><td>4 - 6.4</td><td></td><td>%</td></tr></table></div>"
        },
        "status": "final",
        "subject": {
          "reference": "urn:uuid:925c8b69-00b3-433a-887f-59c932ae7a1f",
          "display": "Meaghan Neary"
        },
        "effectiveDateTime": "2025-03-17T22:11:04Z",
        "specimen": {
          "reference": "urn:uuid:b90bed60-64a7-45a4-8b39-138d11bb0fb9"
        }
      }
    },
    {
      "fullUrl": "urn:uuid:8a75188e-1559-4311-aa21-0289b859de01",
      "resource": {
        "resourceType": "Observation",
        "id": "8a75188e-1559-4311-aa21-0289b859de01",
        "meta": {
          "profile": [
            "http://hl7.eu/fhir/laboratory/StructureDefinition/Observation-resultslab-eu-lab"
          ]
        },
        "performer": [
          {
            "display": "The Central European Lab"
          }
        ],
        "category": [
          {
            "coding": [
              {
                "system": "http://terminology.hl7.org/CodeSystem/observation-category",
                "code": "laboratory"
              }
            ]
          }
        ],
        "code": {
          "coding": [
            {
              "code": "2339-0",
              "system": "http://loinc.org",
              "display": "Glucose [Mass/volume] in Blood"
            }
          ],
          "text": "Glucose [Mass/volume] in Blood"
        },
        "valueQuantity": {
          "system": "http://unitsofmeasure.org",
          "value": 68.1,
          "unit": "mg/dL",
          "code": "mg/dL"
        },
        "referenceRange": [
          {
            "low": {
              "value": 70,
              "code": "mg/dL",
              "system": "http://unitsofmeasure.org"
            }
          },
          {
            "high": {
              "value": 100,
              "code": "mg/dL",
              "system": "http://unitsofmeasure.org"
            }
          }
        ],
        "interpretation": [
          {
            "coding": [
              {
                "code": "L",
                "system": "http://terminology.hl7.org/CodeSystem/v3-ObservationInterpretation",
                "display": "Low"
              }
            ]
          }
        ],
        "text": {
          "status": "generated",
          "div": "<div xmlns=\"http://www.w3.org/1999/xhtml\"><table class=\"hl7__eu__lab__report\"><tr><th>Test</th><th>17-Mar-2025</th><th>Reference&#xA0;Range</th><th>Unit</th></tr><tr><td>Glucose [Mass/volume] in Blood</td><td>68.1</td><td>70 - 100</td><td>L</td><td>mg/dL</td></tr></table></div>"
        },
        "status": "final",
        "subject": {
          "reference": "urn:uuid:925c8b69-00b3-433a-887f-59c932ae7a1f",
          "display": "Meaghan Neary"
        },
        "effectiveDateTime": "2025-03-17T22:11:04Z",
        "specimen": {
          "reference": "urn:uuid:b90bed60-64a7-45a4-8b39-138d11bb0fb9"
        }
      }
    },
    {
      "fullUrl": "urn:uuid:ebc99376-cdd8-4cbf-b5df-5ac6604aab1e",
      "resource": {
        "resourceType": "Observation",
        "id": "ebc99376-cdd8-4cbf-b5df-5ac6604aab1e",
        "meta": {
          "profile": [
            "http://hl7.eu/fhir/laboratory/StructureDefinition/Observation-resultslab-eu-lab"
          ]
        },
        "performer": [
          {
            "display": "The Central European Lab"
          }
        ],
        "category": [
          {
            "coding": [
              {
                "system": "http://terminology.hl7.org/CodeSystem/observation-category",
                "code": "laboratory"
              }
            ]
          }
        ],
        "code": {
          "coding": [
            {
              "code": "6299-2",
              "system": "http://loinc.org",
              "display": "Urea nitrogen [Mass/volume] in Blood"
            }
          ],
          "text": "Urea nitrogen [Mass/volume] in Blood"
        },
        "valueQuantity": {
          "system": "http://unitsofmeasure.org",
          "value": 15.6,
          "unit": "mg/dL",
          "code": "mg/dL"
        },
        "referenceRange": [
          {
            "low": {
              "value": 7,
              "code": "mg/dL",
              "system": "http://unitsofmeasure.org"
            }
          },
          {
            "high": {
              "value": 43,
              "code": "mg/dL",
              "system": "http://unitsofmeasure.org"
            }
          }
        ],
        "text": {
          "status": "generated",
          "div": "<div xmlns=\"http://www.w3.org/1999/xhtml\"><table class=\"hl7__eu__lab__report\"><tr><th>Test</th><th>17-Mar-2025</th><th>Reference&#xA0;Range</th><th>Unit</th></tr><tr><td>Urea nitrogen [Mass/volume] in Blood</td><td>15.6</td><td>7 - 43</td><td></td><td>mg/dL</td></tr></table></div>"
        },
        "status": "final",
        "subject": {
          "reference": "urn:uuid:925c8b69-00b3-433a-887f-59c932ae7a1f",
          "display": "Meaghan Neary"
        },
        "effectiveDateTime": "2025-03-17T22:11:04Z",
        "specimen": {
          "reference": "urn:uuid:b90bed60-64a7-45a4-8b39-138d11bb0fb9"
        }
      }
    },
    {
      "fullUrl": "urn:uuid:12fc0d79-9464-417e-b0da-acf8a1ee03fb",
      "resource": {
        "resourceType": "Observation",
        "id": "12fc0d79-9464-417e-b0da-acf8a1ee03fb",
        "meta": {
          "profile": [
            "http://hl7.eu/fhir/laboratory/StructureDefinition/Observation-resultslab-eu-lab"
          ]
        },
        "performer": [
          {
            "display": "The Central European Lab"
          }
        ],
        "category": [
          {
            "coding": [
              {
                "system": "http://terminology.hl7.org/CodeSystem/observation-category",
                "code": "laboratory"
              }
            ]
          }
        ],
        "code": {
          "coding": [
            {
              "code": "38483-4",
              "system": "http://loinc.org",
              "display": "Creatinine [Mass/volume] in Blood"
            }
          ],
          "text": "Creatinine [Mass/volume] in Blood"
        },
        "valueQuantity": {
          "system": "http://unitsofmeasure.org",
          "value": 2.7,
          "unit": "mg/dL",
          "code": "mg/dL"
        },
        "referenceRange": [
          {
            "low": {
              "value": 0.6,
              "code": "mg/dL",
              "system": "http://unitsofmeasure.org"
            }
          },
          {
            "high": {
              "value": 1.1,
              "code": "mg/dL",
              "system": "http://unitsofmeasure.org"
            }
          }
        ],
        "interpretation": [
          {
            "coding": [
              {
                "code": "H",
                "system": "http://terminology.hl7.org/CodeSystem/v3-ObservationInterpretation",
                "display": "High"
              }
            ]
          }
        ],
        "text": {
          "status": "generated",
          "div": "<div xmlns=\"http://www.w3.org/1999/xhtml\"><table class=\"hl7__eu__lab__report\"><tr><th>Test</th><th>17-Mar-2025</th><th>Reference&#xA0;Range</th><th>Unit</th></tr><tr><td>Creatinine [Mass/volume] in Blood</td><td>2.7</td><td>0.6 - 1.1</td><td>H</td><td>mg/dL</td></tr></table></div>"
        },
        "status": "final",
        "subject": {
          "reference": "urn:uuid:925c8b69-00b3-433a-887f-59c932ae7a1f",
          "display": "Meaghan Neary"
        },
        "effectiveDateTime": "2025-03-17T22:11:04Z",
        "specimen": {
          "reference": "urn:uuid:b90bed60-64a7-45a4-8b39-138d11bb0fb9"
        }
      }
    },
    {
      "fullUrl": "urn:uuid:23c811e0-b3ea-43e5-bd10-7a5f2056a737",
      "resource": {
        "resourceType": "Observation",
        "id": "23c811e0-b3ea-43e5-bd10-7a5f2056a737",
        "meta": {
          "profile": [
            "http://hl7.eu/fhir/laboratory/StructureDefinition/Observation-resultslab-eu-lab"
          ]
        },
        "performer": [
          {
            "display": "The Central European Lab"
          }
        ],
        "category": [
          {
            "coding": [
              {
                "system": "http://terminology.hl7.org/CodeSystem/observation-category",
                "code": "laboratory"
              }
            ]
          }
        ],
        "code": {
          "coding": [
            {
              "code": "49765-1",
              "system": "http://loinc.org",
              "display": "Calcium [Mass/volume] in Blood"
            }
          ],
          "text": "Calcium [Mass/volume] in Blood"
        },
        "valueQuantity": {
          "system": "http://unitsofmeasure.org",
          "value": 8.8,
          "unit": "mg/dL",
          "code": "mg/dL"
        },
        "referenceRange": [
          {
            "low": {
              "value": 8.5,
              "code": "mg/dL",
              "system": "http://unitsofmeasure.org"
            }
          },
          {
            "high": {
              "value": 10.5,
              "code": "mg/dL",
              "system": "http://unitsofmeasure.org"
            }
          }
        ],
        "text": {
          "status": "generated",
          "div": "<div xmlns=\"http://www.w3.org/1999/xhtml\"><table class=\"hl7__eu__lab__report\"><tr><th>Test</th><th>17-Mar-2025</th><th>Reference&#xA0;Range</th><th>Unit</th></tr><tr><td>Calcium [Mass/volume] in Blood</td><td>8.8</td><td>8.5 - 10.5</td><td></td><td>mg/dL</td></tr></table></div>"
        },
        "status": "final",
        "subject": {
          "reference": "urn:uuid:925c8b69-00b3-433a-887f-59c932ae7a1f",
          "display": "Meaghan Neary"
        },
        "effectiveDateTime": "2025-03-17T22:11:04Z",
        "specimen": {
          "reference": "urn:uuid:b90bed60-64a7-45a4-8b39-138d11bb0fb9"
        }
      }
    },
    {
      "fullUrl": "urn:uuid:9d33d0cb-5c3e-482a-ab01-5a8e32a86b4a",
      "resource": {
        "resourceType": "Observation",
        "id": "9d33d0cb-5c3e-482a-ab01-5a8e32a86b4a",
        "meta": {
          "profile": [
            "http://hl7.eu/fhir/laboratory/StructureDefinition/Observation-resultslab-eu-lab"
          ]
        },
        "performer": [
          {
            "display": "The Central European Lab"
          }
        ],
        "category": [
          {
            "coding": [
              {
                "system": "http://terminology.hl7.org/CodeSystem/observation-category",
                "code": "laboratory"
              }
            ]
          }
        ],
        "code": {
          "coding": [
            {
              "code": "2947-0",
              "system": "http://loinc.org",
              "display": "Sodium [Moles/volume] in Blood"
            }
          ],
          "text": "Sodium [Moles/volume] in Blood"
        },
        "valueQuantity": {
          "system": "http://unitsofmeasure.org",
          "value": 142,
          "unit": "mmol/L",
          "code": "mmol/L"
        },
        "referenceRange": [
          {
            "low": {
              "value": 135,
              "code": "mmol/L",
              "system": "http://unitsofmeasure.org"
            }
          },
          {
            "high": {
              "value": 145,
              "code": "mmol/L",
              "system": "http://unitsofmeasure.org"
            }
          }
        ],
        "text": {
          "status": "generated",
          "div": "<div xmlns=\"http://www.w3.org/1999/xhtml\"><table class=\"hl7__eu__lab__report\"><tr><th>Test</th><th>17-Mar-2025</th><th>Reference&#xA0;Range</th><th>Unit</th></tr><tr><td>Sodium [Moles/volume] in Blood</td><td>142.0</td><td>135 - 145</td><td></td><td>mmol/L</td></tr></table></div>"
        },
        "status": "final",
        "subject": {
          "reference": "urn:uuid:925c8b69-00b3-433a-887f-59c932ae7a1f",
          "display": "Meaghan Neary"
        },
        "effectiveDateTime": "2025-03-17T22:11:04Z",
        "specimen": {
          "reference": "urn:uuid:b90bed60-64a7-45a4-8b39-138d11bb0fb9"
        }
      }
    },
    {
      "fullUrl": "urn:uuid:fc4566ca-0843-41dd-9278-600ca3b2e78c",
      "resource": {
        "resourceType": "Observation",
        "id": "fc4566ca-0843-41dd-9278-600ca3b2e78c",
        "meta": {
          "profile": [
            "http://hl7.eu/fhir/laboratory/StructureDefinition/Observation-resultslab-eu-lab"
          ]
        },
        "performer": [
          {
            "display": "The Central European Lab"
          }
        ],
        "category": [
          {
            "coding": [
              {
                "system": "http://terminology.hl7.org/CodeSystem/observation-category",
                "code": "laboratory"
              }
            ]
          }
        ],
        "code": {
          "coding": [
            {
              "code": "6298-4",
              "system": "http://loinc.org",
              "display": "Potassium [Moles/volume] in Blood"
            }
          ],
          "text": "Potassium [Moles/volume] in Blood"
        },
        "valueQuantity": {
          "system": "http://unitsofmeasure.org",
          "value": 3.8,
          "unit": "mmol/L",
          "code": "mmol/L"
        },
        "referenceRange": [
          {
            "low": {
              "value": 3.5,
              "code": "mmol/L",
              "system": "http://unitsofmeasure.org"
            }
          },
          {
            "high": {
              "value": 5.1,
              "code": "mmol/L",
              "system": "http://unitsofmeasure.org"
            }
          }
        ],
        "text": {
          "status": "generated",
          "div": "<div xmlns=\"http://www.w3.org/1999/xhtml\"><table class=\"hl7__eu__lab__report\"><tr><th>Test</th><th>17-Mar-2025</th><th>Reference&#xA0;Range</th><th>Unit</th></tr><tr><td>Potassium [Moles/volume] in Blood</td><td>3.8</td><td>3.5 - 5.1</td><td></td><td>mmol/L</td></tr></table></div>"
        },
        "status": "final",
        "subject": {
          "reference": "urn:uuid:925c8b69-00b3-433a-887f-59c932ae7a1f",
          "display": "Meaghan Neary"
        },
        "effectiveDateTime": "2025-03-17T22:11:04Z",
        "specimen": {
          "reference": "urn:uuid:b90bed60-64a7-45a4-8b39-138d11bb0fb9"
        }
      }
    },
    {
      "fullUrl": "urn:uuid:6049e5b3-21b5-4b79-b9cf-b5f0c252b51c",
      "resource": {
        "resourceType": "Observation",
        "id": "6049e5b3-21b5-4b79-b9cf-b5f0c252b51c",
        "meta": {
          "profile": [
            "http://hl7.eu/fhir/laboratory/StructureDefinition/Observation-resultslab-eu-lab"
          ]
        },
        "performer": [
          {
            "display": "The Central European Lab"
          }
        ],
        "category": [
          {
            "coding": [
              {
                "system": "http://terminology.hl7.org/CodeSystem/observation-category",
                "code": "laboratory"
              }
            ]
          }
        ],
        "code": {
          "coding": [
            {
              "code": "2069-3",
              "system": "http://loinc.org",
              "display": "Chloride [Moles/volume] in Blood"
            }
          ],
          "text": "Chloride [Moles/volume] in Blood"
        },
        "valueQuantity": {
          "system": "http://unitsofmeasure.org",
          "value": 102.7,
          "unit": "mmol/L",
          "code": "mmol/L"
        },
        "referenceRange": [
          {
            "low": {
              "value": 98,
              "code": "mmol/L",
              "system": "http://unitsofmeasure.org"
            }
          },
          {
            "high": {
              "value": 108,
              "code": "mmol/L",
              "system": "http://unitsofmeasure.org"
            }
          }
        ],
        "text": {
          "status": "generated",
          "div": "<div xmlns=\"http://www.w3.org/1999/xhtml\"><table class=\"hl7__eu__lab__report\"><tr><th>Test</th><th>17-Mar-2025</th><th>Reference&#xA0;Range</th><th>Unit</th></tr><tr><td>Chloride [Moles/volume] in Blood</td><td>102.7</td><td>98 - 108</td><td></td><td>mmol/L</td></tr></table></div>"
        },
        "status": "final",
        "subject": {
          "reference": "urn:uuid:925c8b69-00b3-433a-887f-59c932ae7a1f",
          "display": "Meaghan Neary"
        },
        "effectiveDateTime": "2025-03-17T22:11:04Z",
        "specimen": {
          "reference": "urn:uuid:b90bed60-64a7-45a4-8b39-138d11bb0fb9"
        }
      }
    },
    {
      "fullUrl": "urn:uuid:6ec02a28-6629-4e0c-be4f-e24a5367ee60",
      "resource": {
        "resourceType": "Observation",
        "id": "6ec02a28-6629-4e0c-be4f-e24a5367ee60",
        "meta": {
          "profile": [
            "http://hl7.eu/fhir/laboratory/StructureDefinition/Observation-resultslab-eu-lab"
          ]
        },
        "performer": [
          {
            "display": "The Central European Lab"
          }
        ],
        "category": [
          {
            "coding": [
              {
                "system": "http://terminology.hl7.org/CodeSystem/observation-category",
                "code": "laboratory"
              }
            ]
          }
        ],
        "code": {
          "coding": [
            {
              "code": "20565-8",
              "system": "http://loinc.org",
              "display": "Carbon dioxide, total [Moles/volume] in Blood"
            }
          ],
          "text": "Carbon dioxide, total [Moles/volume] in Blood"
        },
        "valueQuantity": {
          "system": "http://unitsofmeasure.org",
          "value": 23.3,
          "unit": "mmol/L",
          "code": "mmol/L"
        },
        "referenceRange": [
          {
            "low": {
              "value": 22,
              "code": "mmol/L",
              "system": "http://unitsofmeasure.org"
            }
          },
          {
            "high": {
              "value": 29,
              "code": "mmol/L",
              "system": "http://unitsofmeasure.org"
            }
          }
        ],
        "text": {
          "status": "generated",
          "div": "<div xmlns=\"http://www.w3.org/1999/xhtml\"><table class=\"hl7__eu__lab__report\"><tr><th>Test</th><th>17-Mar-2025</th><th>Reference&#xA0;Range</th><th>Unit</th></tr><tr><td>Carbon dioxide, total [Moles/volume] in Blood</td><td>23.3</td><td>22 - 29</td><td></td><td>mmol/L</td></tr></table></div>"
        },
        "status": "final",
        "subject": {
          "reference": "urn:uuid:925c8b69-00b3-433a-887f-59c932ae7a1f",
          "display": "Meaghan Neary"
        },
        "effectiveDateTime": "2025-03-17T22:11:04Z",
        "specimen": {
          "reference": "urn:uuid:b90bed60-64a7-45a4-8b39-138d11bb0fb9"
        }
      }
    },
    {
      "fullUrl": "urn:uuid:81df17c2-aa6b-4b8f-8f1a-987e88dad325",
      "resource": {
        "resourceType": "Device",
        "id": "81df17c2-aa6b-4b8f-8f1a-987e88dad325",
        "deviceName": [
          {
            "name": "SYNDERAI Synthetic Generator",
            "type": "manufacturer-name"
          }
        ],
        "version": [
          {
            "value": "5.0"
          }
        ],
        "text": {
          "status": "generated",
          "div": "<div xmlns=\"http://www.w3.org/1999/xhtml\">SYNDERAI Synthetic Generator v5.0</div>"
        },
        "status": "active\"",
        "distinctIdentifier": "synderai-generator-50",
        "manufacturer": "SYNDERAI Project"
      }
    },
    {
      "fullUrl": "urn:uuid:d14517de-b901-461a-a01d-ebcf43ff5586",
      "resource": {
        "resourceType": "Provenance",
        "id": "d14517de-b901-461a-a01d-ebcf43ff5586",
        "target": [
          {
            "reference": "Patient/925c8b69-00b3-433a-887f-59c932ae7a1f"
          },
          {
            "reference": "Bundle/b0184096-0fcb-4846-b94b-1f287fbec8c2"
          },
          {
            "reference": "Composition/47158dd7-72b9-4481-aedd-09dea0ac67f5"
          },
          {
            "reference": "PractitionerRole/4944c15a-0de5-4a6d-bc5f-64797b35f737"
          },
          {
            "reference": "Practitioner/955c01b4-261d-4018-ad0d-66eccfde9089"
          },
          {
            "reference": "PractitionerRole/573f4998-48e4-47c0-be04-8a694590b04f"
          },
          {
            "reference": "Organization/60e019b4-dbcf-4b51-9954-c47323fa91eb"
          }
        ],
        "activity": {
          "text": "Synthetic Example Data Generation"
        },
        "policy": [
          "https://synderai.net/synderai-synthetic-data-policy"
        ],
        "agent": [
          {
            "type": {
              "text": "author"
            },
            "who": {
              "reference": "Device/81df17c2-aa6b-4b8f-8f1a-987e88dad325"
            }
          }
        ],
        "reason": [
          {
            "text": "Interoperability Testing and Training (non-clinical use)"
          }
        ],
        "text": {
          "status": "generated",
          "div": "<div xmlns=\"http://www.w3.org/1999/xhtml\">Provenance for SYNDERAI Synthetic Example Data Resource</div>"
        },
        "recorded": "2025-03-17T23:11:04Z"
      }
    },
    {
      "fullUrl": "urn:uuid:4944c15a-0de5-4a6d-bc5f-64797b35f737",
      "resource": {
        "resourceType": "PractitionerRole",
        "id": "4944c15a-0de5-4a6d-bc5f-64797b35f737",
        "meta": {
          "profile": [
            "http://hl7.eu/fhir/base/StructureDefinition/practitionerRole-eu"
          ]
        },
        "text": {
          "status": "generated",
          "div": "<div xmlns=\"http://www.w3.org/1999/xhtml\">Laboratory Role Id: 4944c15a-0de5-4a6d-bc5f-64797b35f737</div>"
        },
        "practitioner": {
          "reference": "urn:uuid:955c01b4-261d-4018-ad0d-66eccfde9089"
        }
      }
    },
    {
      "fullUrl": "urn:uuid:955c01b4-261d-4018-ad0d-66eccfde9089",
      "resource": {
        "resourceType": "Practitioner",
        "id": "955c01b4-261d-4018-ad0d-66eccfde9089",
        "meta": {
          "profile": [
            "http://hl7.eu/fhir/base/StructureDefinition/practitioner-eu"
          ]
        },
        "identifier": [
          {
            "assigner": {
              "display": "HL7 Europe"
            },
            "system": "urn:oid:2.16.840.1.113883.2.51.999",
            "value": "929a3d3b-55b8-4e07-a176-df9bc2791404"
          }
        ],
        "name": [
          {
            "prefix": [
              "dr"
            ],
            "given": [
              "Ex"
            ],
            "family": "Ample"
          }
        ],
        "address": [
          {
            "line": [
              "Laboratoire Central Européenne",
              "Boulevard du Jardin Botanique 32"
            ],
            "postalCode": "1000",
            "city": "Brussels",
            "country": "Belgium"
          }
        ],
        "text": {
          "status": "generated",
          "div": "<div xmlns=\"http://www.w3.org/1999/xhtml\">Laboratory: Laboratoire Central Européenne, 1000 Brussels, Belgium</div>"
        }
      }
    }
  ],
  "type": "document",
  "timestamp": "2025-03-17T23:11:04Z"
}
