{
  "resourceType": "Bundle",
  "id": "964e2643-48de-4478-90e9-c7739639079f",
  "meta": {
    "profile": [
      "http://hl7.eu/fhir/laboratory/StructureDefinition/Bundle-eu-lab"
    ]
  },
  "identifier": {
    "assigner": {
      "display": "HL7 Europe"
    },
    "system": "urn:oid:2.16.840.1.113883.2.51.999",
    "value": "ffe90fb4-443f-40a0-b652-74d6095be9a8"
  },
  "entry": [
    {
      "fullUrl": "urn:uuid:9f9fdd79-0024-474a-bac0-eb27e198783a",
      "resource": {
        "resourceType": "Composition",
        "id": "9f9fdd79-0024-474a-bac0-eb27e198783a",
        "meta": {
          "profile": [
            "http://hl7.eu/fhir/laboratory/StructureDefinition/Composition-eu-lab"
          ]
        },
        "identifier": {
          "assigner": {
            "display": "HL7 Europe"
          },
          "system": "urn:oid:2.16.840.1.113883.2.51.999",
          "value": "9335c506-1fde-450e-85b6-8f7fc433b7fc"
        },
        "author": [
          {
            "reference": "urn:uuid:8ee5c3aa-bba3-4f3b-a806-e5d0c4e7e7fa"
          }
        ],
        "category": [
          {
            "coding": [
              {
                "code": "26436-6",
                "system": "http://loinc.org",
                "display": "Laboratory studies (set)"
              }
            ]
          }
        ],
        "type": {
          "coding": [
            {
              "code": "11502-2",
              "system": "http://loinc.org",
              "display": "Laboratory report"
            }
          ],
          "text": "Laboratory Report"
        },
        "section": [
          {
            "code": {
              "coding": [
                {
                  "code": "26436-6",
                  "system": "http://loinc.org",
                  "display": "Laboratory studies (set)"
                }
              ],
              "text": "Laboratory studies"
            },
            "section": [
              {
                "code": {
                  "coding": [
                    {
                      "code": "$18719-5",
                      "system": "http://loinc.org",
                      "display": "Chemistry studies (set)"
                    }
                  ],
                  "text": "Chemistry"
                },
                "entry": [
                  {
                    "reference": "urn:uuid:5d488165-267b-4a62-8cfa-7e2343032bd3"
                  },
                  {
                    "reference": "urn:uuid:7c435f93-93a3-48ea-907d-03fdd5350f74"
                  },
                  {
                    "reference": "urn:uuid:677874c4-43ae-45c7-83d1-669b33bb7a68"
                  },
                  {
                    "reference": "urn:uuid:bdb2610b-841a-4c58-a4b2-66f0729fc9a8"
                  },
                  {
                    "reference": "urn:uuid:0b552b3d-445d-47cd-8e7a-633f6d579ecd"
                  },
                  {
                    "reference": "urn:uuid:3345cb1e-684b-41c9-bb1c-42274014445b"
                  },
                  {
                    "reference": "urn:uuid:218c5800-2adf-424f-9923-313d1477ace6"
                  },
                  {
                    "reference": "urn:uuid:b63049dd-062e-433a-a281-faab3e5d1cef"
                  },
                  {
                    "reference": "urn:uuid:1f81a320-34e6-453e-aa37-86bb45a2b8d0"
                  },
                  {
                    "reference": "urn:uuid:6127709e-9d7c-4350-9a56-c6dc04834833"
                  },
                  {
                    "reference": "urn:uuid:62450d07-278d-4905-a50e-3d63a4a72403"
                  },
                  {
                    "reference": "urn:uuid:fa53a4dd-819e-404f-87ff-33e27cbb1d8a"
                  },
                  {
                    "reference": "urn:uuid:6edd7667-bca1-443e-9772-94cc57a0ff1a"
                  }
                ],
                "text": {
                  "status": "generated",
                  "div": "<div xmlns=\"http://www.w3.org/1999/xhtml\"><h3>Chemistry</h3><table class=\"hl7__eu__lab__report\"><thead><tr><th>Test</th><th>03-SEP-2019</th><th>Reference&#xA0;Range</th><th>Unit</th></tr></thead><tbody><tr><td>Hemoglobin A1c/Hemoglobin.total in Blood</td><td>6.3</td><td>4.5 - 6.4</td><td>%</td></tr><tr><td>Glucose [Mass/volume] in Blood</td><td>86.6</td><td>70 - 99</td><td>mg/dL</td></tr><tr><td>Urea nitrogen [Mass/volume] in Blood</td><td>9.9</td><td>7 - 20</td><td>mg/dL</td></tr><tr><td>Creatinine [Mass/volume] in Blood</td><td>0.9</td><td>0.9 - 1.3</td><td>mg/dL</td></tr><tr><td>Calcium [Mass/volume] in Blood</td><td>9.6</td><td>8.6 - 10.2</td><td>mg/dL</td></tr><tr><td>Sodium [Moles/volume] in Blood</td><td>140.2</td><td>135 - 145</td><td>mmol/L</td></tr><tr><td>Potassium [Moles/volume] in Blood</td><td>4.6</td><td>3.5 - 5.1</td><td>mmol/L</td></tr><tr><td>Chloride [Moles/volume] in Blood</td><td>105.6</td><td>98 - 108</td><td>mmol/L</td></tr><tr><td>Carbon dioxide, total [Moles/volume] in Blood</td><td>25.0</td><td>22 - 29</td><td>mmol/L</td></tr><tr><td>Cholesterol [Mass/volume] in Serum or Plasma</td><td>156.2</td><td>0 - 200</td><td>mg/dL</td></tr><tr><td>Triglyceride [Mass/volume] in Serum or Plasma</td><td>124.3</td><td>40 - 150</td><td>mg/dL</td></tr><tr><td>Cholesterol in LDL [Mass/volume] in Serum or Plasma by Direct assay</td><td>101.4</td><td>0 - 130</td><td>mg/dL</td></tr><tr><td>Cholesterol in HDL [Mass/volume] in Serum or Plasma</td><td><strong>29.9 L</strong></td><td>40 - 100</td><td>mg/dL</td></tr></tbody></table></div>"
                },
                "title": "Chemistry"
              }
            ],
            "title": "Laboratory Report"
          },
          {
            "text": {
              "status": "generated",
              "div": "<div xmlns=\"http://www.w3.org/1999/xhtml\"><h3>Annotation</h3><table class=\"hl7__eu__lab__report\"><tr><th>Conclusion and Recommendations based on this report and previous findings known to us</th></tr><tr><td>All measured parameters are within normal limits except for a low HDL cholesterol (29.9 mg/dL), which is a cardiovascular risk factor. Glycemic control (HbA1c 6.3%) is at the upper end of normal, suggesting prediabetes. Renal and electrolyte parameters are normal. Recommend addressing low HDL through lifestyle modification and monitoring glycemic status.</td></tr></table></div>"
            },
            "code": {
              "coding": [
                {
                  "system": "http://loinc.org",
                  "code": "48767-8",
                  "display": "Annotation comment"
                }
              ]
            },
            "title": "Annotation comment"
          }
        ],
        "status": "final",
        "subject": {
          "reference": "urn:uuid:5e7193c0-3a90-47b2-821e-fc802b74c392",
          "display": "Khalid Nilsson"
        },
        "date": "2019-09-03T01:04:23Z",
        "title": "Laboratory Report",
        "confidentiality": "N"
      }
    },
    {
      "fullUrl": "urn:uuid:fbc9fe72-cbb5-4a76-b446-3181a15a1b9a",
      "resource": {
        "resourceType": "DiagnosticReport",
        "id": "fbc9fe72-cbb5-4a76-b446-3181a15a1b9a",
        "meta": {
          "profile": [
            "http://hl7.eu/fhir/laboratory/StructureDefinition/DiagnosticReport-eu-lab"
          ]
        },
        "identifier": [
          {
            "assigner": {
              "display": "HL7 Europe"
            },
            "system": "urn:oid:2.16.840.1.113883.2.51.999",
            "value": "1e2477e3-9496-4931-a268-1d167082c6fa"
          }
        ],
        "extension": [
          {
            "url": "http://hl7.org/fhir/5.0/StructureDefinition/extension-DiagnosticReport.composition",
            "valueReference": {
              "reference": "urn:uuid:9335c506-1fde-450e-85b6-8f7fc433b7fc"
            }
          }
        ],
        "category": [
          {
            "coding": [
              {
                "code": "26436-6",
                "system": "http://loinc.org",
                "display": "Laboratory studies (set)"
              }
            ]
          }
        ],
        "specimen": [
          {
            "reference": "urn:uuid:a38e6669-e7dd-4014-a6af-62e6e4b637a5"
          },
          {
            "reference": "urn:uuid:151762ed-82a6-4e49-b8e9-81dae073b97a"
          }
        ],
        "result": [
          {
            "reference": "urn:uuid:5d488165-267b-4a62-8cfa-7e2343032bd3"
          },
          {
            "reference": "urn:uuid:7c435f93-93a3-48ea-907d-03fdd5350f74"
          },
          {
            "reference": "urn:uuid:677874c4-43ae-45c7-83d1-669b33bb7a68"
          },
          {
            "reference": "urn:uuid:bdb2610b-841a-4c58-a4b2-66f0729fc9a8"
          },
          {
            "reference": "urn:uuid:0b552b3d-445d-47cd-8e7a-633f6d579ecd"
          },
          {
            "reference": "urn:uuid:3345cb1e-684b-41c9-bb1c-42274014445b"
          },
          {
            "reference": "urn:uuid:218c5800-2adf-424f-9923-313d1477ace6"
          },
          {
            "reference": "urn:uuid:b63049dd-062e-433a-a281-faab3e5d1cef"
          },
          {
            "reference": "urn:uuid:1f81a320-34e6-453e-aa37-86bb45a2b8d0"
          },
          {
            "reference": "urn:uuid:6127709e-9d7c-4350-9a56-c6dc04834833"
          },
          {
            "reference": "urn:uuid:62450d07-278d-4905-a50e-3d63a4a72403"
          },
          {
            "reference": "urn:uuid:fa53a4dd-819e-404f-87ff-33e27cbb1d8a"
          },
          {
            "reference": "urn:uuid:6edd7667-bca1-443e-9772-94cc57a0ff1a"
          }
        ],
        "status": "registered",
        "code": {
          "coding": [
            {
              "code": "11502-2",
              "system": "http://loinc.org",
              "display": "Laboratory report"
            }
          ]
        },
        "subject": {
          "reference": "urn:uuid:5e7193c0-3a90-47b2-821e-fc802b74c392",
          "display": "Khalid Nilsson"
        }
      }
    },
    {
      "fullUrl": "urn:uuid:5e7193c0-3a90-47b2-821e-fc802b74c392",
      "resource": {
        "resourceType": "Patient",
        "id": "5e7193c0-3a90-47b2-821e-fc802b74c392",
        "meta": {
          "security": [
            {
              "system": "http://terminology.hl7.org/CodeSystem/v3-ActReason",
              "code": "HTEST"
            },
            {
              "system": "http://terminology.hl7.org/CodeSystem/v3-ActReason",
              "code": "TRAIN"
            }
          ],
          "tag": [
            {
              "system": "https://synderai.net/fhir/CodeSystem/tags",
              "code": "synthetic",
              "display": "SYNDERAI Synthetic data"
            }
          ],
          "profile": [
            "http://hl7.eu/fhir/base/StructureDefinition/patient-eu-core"
          ]
        },
        "identifier": [
          {
            "type": {
              "coding": [
                {
                  "code": "PT",
                  "system": "http://terminology.hl7.org/CodeSystem/v2-0203"
                }
              ]
            },
            "system": "http://ec.europa.eu/identifier/eci",
            "value": "8339-594203-6"
          },
          {
            "type": {
              "coding": [
                {
                  "code": "MR",
                  "system": "http://terminology.hl7.org/CodeSystem/v2-0203"
                }
              ]
            },
            "system": "http://local.setting.eu/identifier",
            "value": "db9680f4-3d2c-0551-cb1c-61573f88f405"
          }
        ],
        "name": [
          {
            "family": "Nilsson"
          },
          {
            "given": [
              "Khalid"
            ]
          },
          {
            "text": "Khalid Nilsson"
          }
        ],
        "address": [
          {
            "line": [
              "Gengränd 482"
            ],
            "use": "home",
            "type": "physical",
            "postalCode": "691 31",
            "city": "Karlskoga",
            "country": "Sweden"
          }
        ],
        "telecom": [
          {
            "system": "phone",
            "value": "+46 (0)8 888 657 95"
          }
        ],
        "extension": [
          {
            "url": "http://hl7.org/fhir/StructureDefinition/patient-nationality",
            "valueCodeableConcept": {
              "coding": [
                {
                  "code": "SE",
                  "system": "http://hl7.org/fhir/ValueSet/country"
                }
              ]
            }
          }
        ],
        "text": {
          "status": "generated",
          "div": "<div xmlns=\"http://www.w3.org/1999/xhtml\"><table class=\"hl7__ips\"><tr><td>Khalid Nilsson</td><td>male</td><td>10-Apr-1952</td></tr></table></div>"
        },
        "gender": "male",
        "birthDate": "1952-04-10"
      }
    },
    {
      "fullUrl": "urn:uuid:9f980502-3458-43e3-a93b-2c7df50b9428",
      "resource": {
        "resourceType": "ServiceRequest",
        "id": "9f980502-3458-43e3-a93b-2c7df50b9428",
        "meta": {
          "profile": [
            "http://hl7.eu/fhir/laboratory/StructureDefinition/ServiceRequest-eu-lab"
          ]
        },
        "identifier": [
          {
            "system": "http://example.org",
            "value": "b664f179-b8c6-4aca-86a2-a94a5b5f8983"
          }
        ],
        "specimen": [
          {
            "reference": "urn:uuid:a38e6669-e7dd-4014-a6af-62e6e4b637a5"
          },
          {
            "reference": "urn:uuid:151762ed-82a6-4e49-b8e9-81dae073b97a"
          }
        ],
        "reasonCode": [
          {
            "coding": [
              {
                "code": "64859006",
                "system": "http://snomed.info/sct",
                "display": "Osteoporosis"
              }
            ]
          },
          {
            "coding": [
              {
                "code": "196416002",
                "system": "http://snomed.info/sct",
                "display": "Impacted molars"
              }
            ]
          },
          {
            "coding": [
              {
                "code": "414545008",
                "system": "http://snomed.info/sct",
                "display": "Ischemic heart disease"
              }
            ]
          },
          {
            "coding": [
              {
                "code": "40055000",
                "system": "http://snomed.info/sct",
                "display": "Chronic sinusitis"
              }
            ]
          },
          {
            "coding": [
              {
                "code": "197927001",
                "system": "http://snomed.info/sct",
                "display": "Recurrent urinary tract infection"
              }
            ]
          },
          {
            "coding": [
              {
                "code": "15777000",
                "system": "http://snomed.info/sct",
                "display": "Prediabetes"
              }
            ]
          },
          {
            "coding": [
              {
                "code": "271737000",
                "system": "http://snomed.info/sct",
                "display": "Anemia"
              }
            ]
          }
        ],
        "status": "active",
        "intent": "order",
        "code": {
          "coding": [
            {
              "code": "108252007",
              "system": "http://snomed.info/sct",
              "display": "Laboratory procedure"
            }
          ]
        },
        "subject": {
          "reference": "urn:uuid:5e7193c0-3a90-47b2-821e-fc802b74c392",
          "display": "Khalid Nilsson"
        },
        "requester": {
          "reference": "urn:uuid:5b5b424b-e558-4ca0-8a4d-21ee3409b763"
        }
      }
    },
    {
      "fullUrl": "urn:uuid:5b5b424b-e558-4ca0-8a4d-21ee3409b763",
      "resource": {
        "resourceType": "PractitionerRole",
        "id": "5b5b424b-e558-4ca0-8a4d-21ee3409b763",
        "meta": {
          "profile": [
            "http://hl7.eu/fhir/base/StructureDefinition/practitionerRole-eu"
          ]
        },
        "text": {
          "status": "generated",
          "div": "<div xmlns=\"http://www.w3.org/1999/xhtml\">Provider Role Id: 5b5b424b-e558-4ca0-8a4d-21ee3409b763</div>"
        },
        "organization": {
          "reference": "urn:uuid:b107f02d-f277-4298-8b3e-b23908998d9b"
        }
      }
    },
    {
      "fullUrl": "urn:uuid:b107f02d-f277-4298-8b3e-b23908998d9b",
      "resource": {
        "resourceType": "Organization",
        "id": "b107f02d-f277-4298-8b3e-b23908998d9b",
        "meta": {
          "profile": [
            "http://hl7.eu/fhir/base/StructureDefinition/organization-eu"
          ]
        },
        "identifier": [
          {
            "assigner": {
              "display": "HL7 Europe"
            },
            "system": "urn:oid:2.16.840.1.113883.2.51.999",
            "value": "d8ff4e0c-7dd0-4d38-aa6a-1aafcc1012d7"
          }
        ],
        "address": [
          {
            "city": "Karlskoga",
            "postalCode": "691 31",
            "country": "Sweden"
          }
        ],
        "text": {
          "status": "generated",
          "div": "<div xmlns=\"http://www.w3.org/1999/xhtml\">Provider Organization: Karlskoga Lasarett</div>"
        },
        "name": "Karlskoga Lasarett"
      }
    },
    {
      "fullUrl": "urn:uuid:a38e6669-e7dd-4014-a6af-62e6e4b637a5",
      "resource": {
        "resourceType": "Specimen",
        "id": "a38e6669-e7dd-4014-a6af-62e6e4b637a5",
        "meta": {
          "profile": [
            "http://hl7.eu/fhir/laboratory/StructureDefinition/Specimen-eu-lab"
          ]
        },
        "collection": {
          "collectedDateTime": "2019-09-02"
        },
        "text": {
          "status": "generated",
          "div": "<div xmlns=\"http://www.w3.org/1999/xhtml\"><table class=\"hl7__eu__lab__report\"><tr><th>Specimen</th><th>Collection Date</th></tr><tr><td>Whole blood specimen (specimen)</td><td><span class=\"nb\">02-Sep-2019</span></td></tr></table></div>"
        },
        "type": {
          "coding": [
            {
              "code": "258580003",
              "system": "http://snomed.info/sct",
              "display": "Whole blood specimen (specimen)"
            }
          ]
        }
      }
    },
    {
      "fullUrl": "urn:uuid:151762ed-82a6-4e49-b8e9-81dae073b97a",
      "resource": {
        "resourceType": "Specimen",
        "id": "151762ed-82a6-4e49-b8e9-81dae073b97a",
        "meta": {
          "profile": [
            "http://hl7.eu/fhir/laboratory/StructureDefinition/Specimen-eu-lab"
          ]
        },
        "collection": {
          "collectedDateTime": "2019-09-02"
        },
        "text": {
          "status": "generated",
          "div": "<div xmlns=\"http://www.w3.org/1999/xhtml\"><table class=\"hl7__eu__lab__report\"><tr><th>Specimen</th><th>Collection Date</th></tr><tr><td>Acellular blood (serum or plasma) specimen</td><td><span class=\"nb\">02-Sep-2019</span></td></tr></table></div>"
        },
        "type": {
          "coding": [
            {
              "code": "122592007",
              "system": "http://snomed.info/sct",
              "display": "Acellular blood (serum or plasma) specimen"
            }
          ]
        }
      }
    },
    {
      "fullUrl": "urn:uuid:5d488165-267b-4a62-8cfa-7e2343032bd3",
      "resource": {
        "resourceType": "Observation",
        "id": "5d488165-267b-4a62-8cfa-7e2343032bd3",
        "meta": {
          "profile": [
            "http://hl7.eu/fhir/laboratory/StructureDefinition/Observation-resultslab-eu-lab"
          ]
        },
        "performer": [
          {
            "display": "The Central European Lab"
          }
        ],
        "category": [
          {
            "coding": [
              {
                "system": "http://terminology.hl7.org/CodeSystem/observation-category",
                "code": "laboratory"
              }
            ]
          }
        ],
        "code": {
          "coding": [
            {
              "code": "4548-4",
              "system": "http://loinc.org",
              "display": "Hemoglobin A1c/Hemoglobin.total in Blood"
            }
          ],
          "text": "Hemoglobin A1c/Hemoglobin.total in Blood"
        },
        "valueQuantity": {
          "system": "http://unitsofmeasure.org",
          "value": 6.3,
          "unit": "%",
          "code": "%"
        },
        "referenceRange": [
          {
            "low": {
              "value": 4.5,
              "code": "%",
              "system": "http://unitsofmeasure.org"
            }
          },
          {
            "high": {
              "value": 6.4,
              "code": "%",
              "system": "http://unitsofmeasure.org"
            }
          }
        ],
        "text": {
          "status": "generated",
          "div": "<div xmlns=\"http://www.w3.org/1999/xhtml\"><table class=\"hl7__eu__lab__report\"><tr><th>Test</th><th>03-Sep-2019</th><th>Reference&#xA0;Range</th><th>Unit</th></tr><tr><td>Hemoglobin A1c/Hemoglobin.total in Blood</td><td>6.3</td><td>4.5 - 6.4</td><td></td><td>%</td></tr></table></div>"
        },
        "status": "final",
        "subject": {
          "reference": "urn:uuid:5e7193c0-3a90-47b2-821e-fc802b74c392",
          "display": "Khalid Nilsson"
        },
        "effectiveDateTime": "2019-09-02T23:04:23Z",
        "specimen": {
          "reference": "urn:uuid:a38e6669-e7dd-4014-a6af-62e6e4b637a5"
        }
      }
    },
    {
      "fullUrl": "urn:uuid:7c435f93-93a3-48ea-907d-03fdd5350f74",
      "resource": {
        "resourceType": "Observation",
        "id": "7c435f93-93a3-48ea-907d-03fdd5350f74",
        "meta": {
          "profile": [
            "http://hl7.eu/fhir/laboratory/StructureDefinition/Observation-resultslab-eu-lab"
          ]
        },
        "performer": [
          {
            "display": "The Central European Lab"
          }
        ],
        "category": [
          {
            "coding": [
              {
                "system": "http://terminology.hl7.org/CodeSystem/observation-category",
                "code": "laboratory"
              }
            ]
          }
        ],
        "code": {
          "coding": [
            {
              "code": "2339-0",
              "system": "http://loinc.org",
              "display": "Glucose [Mass/volume] in Blood"
            }
          ],
          "text": "Glucose [Mass/volume] in Blood"
        },
        "valueQuantity": {
          "system": "http://unitsofmeasure.org",
          "value": 86.6,
          "unit": "mg/dL",
          "code": "mg/dL"
        },
        "referenceRange": [
          {
            "low": {
              "value": 70,
              "code": "mg/dL",
              "system": "http://unitsofmeasure.org"
            }
          },
          {
            "high": {
              "value": 99,
              "code": "mg/dL",
              "system": "http://unitsofmeasure.org"
            }
          }
        ],
        "text": {
          "status": "generated",
          "div": "<div xmlns=\"http://www.w3.org/1999/xhtml\"><table class=\"hl7__eu__lab__report\"><tr><th>Test</th><th>03-Sep-2019</th><th>Reference&#xA0;Range</th><th>Unit</th></tr><tr><td>Glucose [Mass/volume] in Blood</td><td>86.6</td><td>70 - 99</td><td></td><td>mg/dL</td></tr></table></div>"
        },
        "status": "final",
        "subject": {
          "reference": "urn:uuid:5e7193c0-3a90-47b2-821e-fc802b74c392",
          "display": "Khalid Nilsson"
        },
        "effectiveDateTime": "2019-09-02T23:04:23Z",
        "specimen": {
          "reference": "urn:uuid:a38e6669-e7dd-4014-a6af-62e6e4b637a5"
        }
      }
    },
    {
      "fullUrl": "urn:uuid:677874c4-43ae-45c7-83d1-669b33bb7a68",
      "resource": {
        "resourceType": "Observation",
        "id": "677874c4-43ae-45c7-83d1-669b33bb7a68",
        "meta": {
          "profile": [
            "http://hl7.eu/fhir/laboratory/StructureDefinition/Observation-resultslab-eu-lab"
          ]
        },
        "performer": [
          {
            "display": "The Central European Lab"
          }
        ],
        "category": [
          {
            "coding": [
              {
                "system": "http://terminology.hl7.org/CodeSystem/observation-category",
                "code": "laboratory"
              }
            ]
          }
        ],
        "code": {
          "coding": [
            {
              "code": "6299-2",
              "system": "http://loinc.org",
              "display": "Urea nitrogen [Mass/volume] in Blood"
            }
          ],
          "text": "Urea nitrogen [Mass/volume] in Blood"
        },
        "valueQuantity": {
          "system": "http://unitsofmeasure.org",
          "value": 9.9,
          "unit": "mg/dL",
          "code": "mg/dL"
        },
        "referenceRange": [
          {
            "low": {
              "value": 7,
              "code": "mg/dL",
              "system": "http://unitsofmeasure.org"
            }
          },
          {
            "high": {
              "value": 20,
              "code": "mg/dL",
              "system": "http://unitsofmeasure.org"
            }
          }
        ],
        "text": {
          "status": "generated",
          "div": "<div xmlns=\"http://www.w3.org/1999/xhtml\"><table class=\"hl7__eu__lab__report\"><tr><th>Test</th><th>03-Sep-2019</th><th>Reference&#xA0;Range</th><th>Unit</th></tr><tr><td>Urea nitrogen [Mass/volume] in Blood</td><td>9.9</td><td>7 - 20</td><td></td><td>mg/dL</td></tr></table></div>"
        },
        "status": "final",
        "subject": {
          "reference": "urn:uuid:5e7193c0-3a90-47b2-821e-fc802b74c392",
          "display": "Khalid Nilsson"
        },
        "effectiveDateTime": "2019-09-02T23:04:23Z",
        "specimen": {
          "reference": "urn:uuid:a38e6669-e7dd-4014-a6af-62e6e4b637a5"
        }
      }
    },
    {
      "fullUrl": "urn:uuid:bdb2610b-841a-4c58-a4b2-66f0729fc9a8",
      "resource": {
        "resourceType": "Observation",
        "id": "bdb2610b-841a-4c58-a4b2-66f0729fc9a8",
        "meta": {
          "profile": [
            "http://hl7.eu/fhir/laboratory/StructureDefinition/Observation-resultslab-eu-lab"
          ]
        },
        "performer": [
          {
            "display": "The Central European Lab"
          }
        ],
        "category": [
          {
            "coding": [
              {
                "system": "http://terminology.hl7.org/CodeSystem/observation-category",
                "code": "laboratory"
              }
            ]
          }
        ],
        "code": {
          "coding": [
            {
              "code": "38483-4",
              "system": "http://loinc.org",
              "display": "Creatinine [Mass/volume] in Blood"
            }
          ],
          "text": "Creatinine [Mass/volume] in Blood"
        },
        "valueQuantity": {
          "system": "http://unitsofmeasure.org",
          "value": 0.9,
          "unit": "mg/dL",
          "code": "mg/dL"
        },
        "referenceRange": [
          {
            "low": {
              "value": 0.9,
              "code": "mg/dL",
              "system": "http://unitsofmeasure.org"
            }
          },
          {
            "high": {
              "value": 1.3,
              "code": "mg/dL",
              "system": "http://unitsofmeasure.org"
            }
          }
        ],
        "text": {
          "status": "generated",
          "div": "<div xmlns=\"http://www.w3.org/1999/xhtml\"><table class=\"hl7__eu__lab__report\"><tr><th>Test</th><th>03-Sep-2019</th><th>Reference&#xA0;Range</th><th>Unit</th></tr><tr><td>Creatinine [Mass/volume] in Blood</td><td>0.9</td><td>0.9 - 1.3</td><td></td><td>mg/dL</td></tr></table></div>"
        },
        "status": "final",
        "subject": {
          "reference": "urn:uuid:5e7193c0-3a90-47b2-821e-fc802b74c392",
          "display": "Khalid Nilsson"
        },
        "effectiveDateTime": "2019-09-02T23:04:23Z",
        "specimen": {
          "reference": "urn:uuid:a38e6669-e7dd-4014-a6af-62e6e4b637a5"
        }
      }
    },
    {
      "fullUrl": "urn:uuid:0b552b3d-445d-47cd-8e7a-633f6d579ecd",
      "resource": {
        "resourceType": "Observation",
        "id": "0b552b3d-445d-47cd-8e7a-633f6d579ecd",
        "meta": {
          "profile": [
            "http://hl7.eu/fhir/laboratory/StructureDefinition/Observation-resultslab-eu-lab"
          ]
        },
        "performer": [
          {
            "display": "The Central European Lab"
          }
        ],
        "category": [
          {
            "coding": [
              {
                "system": "http://terminology.hl7.org/CodeSystem/observation-category",
                "code": "laboratory"
              }
            ]
          }
        ],
        "code": {
          "coding": [
            {
              "code": "49765-1",
              "system": "http://loinc.org",
              "display": "Calcium [Mass/volume] in Blood"
            }
          ],
          "text": "Calcium [Mass/volume] in Blood"
        },
        "valueQuantity": {
          "system": "http://unitsofmeasure.org",
          "value": 9.6,
          "unit": "mg/dL",
          "code": "mg/dL"
        },
        "referenceRange": [
          {
            "low": {
              "value": 8.6,
              "code": "mg/dL",
              "system": "http://unitsofmeasure.org"
            }
          },
          {
            "high": {
              "value": 10.2,
              "code": "mg/dL",
              "system": "http://unitsofmeasure.org"
            }
          }
        ],
        "text": {
          "status": "generated",
          "div": "<div xmlns=\"http://www.w3.org/1999/xhtml\"><table class=\"hl7__eu__lab__report\"><tr><th>Test</th><th>03-Sep-2019</th><th>Reference&#xA0;Range</th><th>Unit</th></tr><tr><td>Calcium [Mass/volume] in Blood</td><td>9.6</td><td>8.6 - 10.2</td><td></td><td>mg/dL</td></tr></table></div>"
        },
        "status": "final",
        "subject": {
          "reference": "urn:uuid:5e7193c0-3a90-47b2-821e-fc802b74c392",
          "display": "Khalid Nilsson"
        },
        "effectiveDateTime": "2019-09-02T23:04:23Z",
        "specimen": {
          "reference": "urn:uuid:a38e6669-e7dd-4014-a6af-62e6e4b637a5"
        }
      }
    },
    {
      "fullUrl": "urn:uuid:3345cb1e-684b-41c9-bb1c-42274014445b",
      "resource": {
        "resourceType": "Observation",
        "id": "3345cb1e-684b-41c9-bb1c-42274014445b",
        "meta": {
          "profile": [
            "http://hl7.eu/fhir/laboratory/StructureDefinition/Observation-resultslab-eu-lab"
          ]
        },
        "performer": [
          {
            "display": "The Central European Lab"
          }
        ],
        "category": [
          {
            "coding": [
              {
                "system": "http://terminology.hl7.org/CodeSystem/observation-category",
                "code": "laboratory"
              }
            ]
          }
        ],
        "code": {
          "coding": [
            {
              "code": "2947-0",
              "system": "http://loinc.org",
              "display": "Sodium [Moles/volume] in Blood"
            }
          ],
          "text": "Sodium [Moles/volume] in Blood"
        },
        "valueQuantity": {
          "system": "http://unitsofmeasure.org",
          "value": 140.2,
          "unit": "mmol/L",
          "code": "mmol/L"
        },
        "referenceRange": [
          {
            "low": {
              "value": 135,
              "code": "mmol/L",
              "system": "http://unitsofmeasure.org"
            }
          },
          {
            "high": {
              "value": 145,
              "code": "mmol/L",
              "system": "http://unitsofmeasure.org"
            }
          }
        ],
        "text": {
          "status": "generated",
          "div": "<div xmlns=\"http://www.w3.org/1999/xhtml\"><table class=\"hl7__eu__lab__report\"><tr><th>Test</th><th>03-Sep-2019</th><th>Reference&#xA0;Range</th><th>Unit</th></tr><tr><td>Sodium [Moles/volume] in Blood</td><td>140.2</td><td>135 - 145</td><td></td><td>mmol/L</td></tr></table></div>"
        },
        "status": "final",
        "subject": {
          "reference": "urn:uuid:5e7193c0-3a90-47b2-821e-fc802b74c392",
          "display": "Khalid Nilsson"
        },
        "effectiveDateTime": "2019-09-02T23:04:23Z",
        "specimen": {
          "reference": "urn:uuid:a38e6669-e7dd-4014-a6af-62e6e4b637a5"
        }
      }
    },
    {
      "fullUrl": "urn:uuid:218c5800-2adf-424f-9923-313d1477ace6",
      "resource": {
        "resourceType": "Observation",
        "id": "218c5800-2adf-424f-9923-313d1477ace6",
        "meta": {
          "profile": [
            "http://hl7.eu/fhir/laboratory/StructureDefinition/Observation-resultslab-eu-lab"
          ]
        },
        "performer": [
          {
            "display": "The Central European Lab"
          }
        ],
        "category": [
          {
            "coding": [
              {
                "system": "http://terminology.hl7.org/CodeSystem/observation-category",
                "code": "laboratory"
              }
            ]
          }
        ],
        "code": {
          "coding": [
            {
              "code": "6298-4",
              "system": "http://loinc.org",
              "display": "Potassium [Moles/volume] in Blood"
            }
          ],
          "text": "Potassium [Moles/volume] in Blood"
        },
        "valueQuantity": {
          "system": "http://unitsofmeasure.org",
          "value": 4.6,
          "unit": "mmol/L",
          "code": "mmol/L"
        },
        "referenceRange": [
          {
            "low": {
              "value": 3.5,
              "code": "mmol/L",
              "system": "http://unitsofmeasure.org"
            }
          },
          {
            "high": {
              "value": 5.1,
              "code": "mmol/L",
              "system": "http://unitsofmeasure.org"
            }
          }
        ],
        "text": {
          "status": "generated",
          "div": "<div xmlns=\"http://www.w3.org/1999/xhtml\"><table class=\"hl7__eu__lab__report\"><tr><th>Test</th><th>03-Sep-2019</th><th>Reference&#xA0;Range</th><th>Unit</th></tr><tr><td>Potassium [Moles/volume] in Blood</td><td>4.6</td><td>3.5 - 5.1</td><td></td><td>mmol/L</td></tr></table></div>"
        },
        "status": "final",
        "subject": {
          "reference": "urn:uuid:5e7193c0-3a90-47b2-821e-fc802b74c392",
          "display": "Khalid Nilsson"
        },
        "effectiveDateTime": "2019-09-02T23:04:23Z",
        "specimen": {
          "reference": "urn:uuid:a38e6669-e7dd-4014-a6af-62e6e4b637a5"
        }
      }
    },
    {
      "fullUrl": "urn:uuid:b63049dd-062e-433a-a281-faab3e5d1cef",
      "resource": {
        "resourceType": "Observation",
        "id": "b63049dd-062e-433a-a281-faab3e5d1cef",
        "meta": {
          "profile": [
            "http://hl7.eu/fhir/laboratory/StructureDefinition/Observation-resultslab-eu-lab"
          ]
        },
        "performer": [
          {
            "display": "The Central European Lab"
          }
        ],
        "category": [
          {
            "coding": [
              {
                "system": "http://terminology.hl7.org/CodeSystem/observation-category",
                "code": "laboratory"
              }
            ]
          }
        ],
        "code": {
          "coding": [
            {
              "code": "2069-3",
              "system": "http://loinc.org",
              "display": "Chloride [Moles/volume] in Blood"
            }
          ],
          "text": "Chloride [Moles/volume] in Blood"
        },
        "valueQuantity": {
          "system": "http://unitsofmeasure.org",
          "value": 105.6,
          "unit": "mmol/L",
          "code": "mmol/L"
        },
        "referenceRange": [
          {
            "low": {
              "value": 98,
              "code": "mmol/L",
              "system": "http://unitsofmeasure.org"
            }
          },
          {
            "high": {
              "value": 108,
              "code": "mmol/L",
              "system": "http://unitsofmeasure.org"
            }
          }
        ],
        "text": {
          "status": "generated",
          "div": "<div xmlns=\"http://www.w3.org/1999/xhtml\"><table class=\"hl7__eu__lab__report\"><tr><th>Test</th><th>03-Sep-2019</th><th>Reference&#xA0;Range</th><th>Unit</th></tr><tr><td>Chloride [Moles/volume] in Blood</td><td>105.6</td><td>98 - 108</td><td></td><td>mmol/L</td></tr></table></div>"
        },
        "status": "final",
        "subject": {
          "reference": "urn:uuid:5e7193c0-3a90-47b2-821e-fc802b74c392",
          "display": "Khalid Nilsson"
        },
        "effectiveDateTime": "2019-09-02T23:04:23Z",
        "specimen": {
          "reference": "urn:uuid:a38e6669-e7dd-4014-a6af-62e6e4b637a5"
        }
      }
    },
    {
      "fullUrl": "urn:uuid:1f81a320-34e6-453e-aa37-86bb45a2b8d0",
      "resource": {
        "resourceType": "Observation",
        "id": "1f81a320-34e6-453e-aa37-86bb45a2b8d0",
        "meta": {
          "profile": [
            "http://hl7.eu/fhir/laboratory/StructureDefinition/Observation-resultslab-eu-lab"
          ]
        },
        "performer": [
          {
            "display": "The Central European Lab"
          }
        ],
        "category": [
          {
            "coding": [
              {
                "system": "http://terminology.hl7.org/CodeSystem/observation-category",
                "code": "laboratory"
              }
            ]
          }
        ],
        "code": {
          "coding": [
            {
              "code": "20565-8",
              "system": "http://loinc.org",
              "display": "Carbon dioxide, total [Moles/volume] in Blood"
            }
          ],
          "text": "Carbon dioxide, total [Moles/volume] in Blood"
        },
        "valueQuantity": {
          "system": "http://unitsofmeasure.org",
          "value": 25,
          "unit": "mmol/L",
          "code": "mmol/L"
        },
        "referenceRange": [
          {
            "low": {
              "value": 22,
              "code": "mmol/L",
              "system": "http://unitsofmeasure.org"
            }
          },
          {
            "high": {
              "value": 29,
              "code": "mmol/L",
              "system": "http://unitsofmeasure.org"
            }
          }
        ],
        "text": {
          "status": "generated",
          "div": "<div xmlns=\"http://www.w3.org/1999/xhtml\"><table class=\"hl7__eu__lab__report\"><tr><th>Test</th><th>03-Sep-2019</th><th>Reference&#xA0;Range</th><th>Unit</th></tr><tr><td>Carbon dioxide, total [Moles/volume] in Blood</td><td>25.0</td><td>22 - 29</td><td></td><td>mmol/L</td></tr></table></div>"
        },
        "status": "final",
        "subject": {
          "reference": "urn:uuid:5e7193c0-3a90-47b2-821e-fc802b74c392",
          "display": "Khalid Nilsson"
        },
        "effectiveDateTime": "2019-09-02T23:04:23Z",
        "specimen": {
          "reference": "urn:uuid:a38e6669-e7dd-4014-a6af-62e6e4b637a5"
        }
      }
    },
    {
      "fullUrl": "urn:uuid:6127709e-9d7c-4350-9a56-c6dc04834833",
      "resource": {
        "resourceType": "Observation",
        "id": "6127709e-9d7c-4350-9a56-c6dc04834833",
        "meta": {
          "profile": [
            "http://hl7.eu/fhir/laboratory/StructureDefinition/Observation-resultslab-eu-lab"
          ]
        },
        "performer": [
          {
            "display": "The Central European Lab"
          }
        ],
        "category": [
          {
            "coding": [
              {
                "system": "http://terminology.hl7.org/CodeSystem/observation-category",
                "code": "laboratory"
              }
            ]
          }
        ],
        "code": {
          "coding": [
            {
              "code": "2093-3",
              "system": "http://loinc.org",
              "display": "Cholesterol [Mass/volume] in Serum or Plasma"
            }
          ],
          "text": "Cholesterol [Mass/volume] in Serum or Plasma"
        },
        "valueQuantity": {
          "system": "http://unitsofmeasure.org",
          "value": 156.2,
          "unit": "mg/dL",
          "code": "mg/dL"
        },
        "referenceRange": [
          {
            "low": {
              "value": 0,
              "code": "mg/dL",
              "system": "http://unitsofmeasure.org"
            }
          },
          {
            "high": {
              "value": 200,
              "code": "mg/dL",
              "system": "http://unitsofmeasure.org"
            }
          }
        ],
        "text": {
          "status": "generated",
          "div": "<div xmlns=\"http://www.w3.org/1999/xhtml\"><table class=\"hl7__eu__lab__report\"><tr><th>Test</th><th>03-Sep-2019</th><th>Reference&#xA0;Range</th><th>Unit</th></tr><tr><td>Cholesterol [Mass/volume] in Serum or Plasma</td><td>156.2</td><td>0 - 200</td><td></td><td>mg/dL</td></tr></table></div>"
        },
        "status": "final",
        "subject": {
          "reference": "urn:uuid:5e7193c0-3a90-47b2-821e-fc802b74c392",
          "display": "Khalid Nilsson"
        },
        "effectiveDateTime": "2019-09-02T23:04:23Z",
        "specimen": {
          "reference": "urn:uuid:151762ed-82a6-4e49-b8e9-81dae073b97a"
        }
      }
    },
    {
      "fullUrl": "urn:uuid:62450d07-278d-4905-a50e-3d63a4a72403",
      "resource": {
        "resourceType": "Observation",
        "id": "62450d07-278d-4905-a50e-3d63a4a72403",
        "meta": {
          "profile": [
            "http://hl7.eu/fhir/laboratory/StructureDefinition/Observation-resultslab-eu-lab"
          ]
        },
        "performer": [
          {
            "display": "The Central European Lab"
          }
        ],
        "category": [
          {
            "coding": [
              {
                "system": "http://terminology.hl7.org/CodeSystem/observation-category",
                "code": "laboratory"
              }
            ]
          }
        ],
        "code": {
          "coding": [
            {
              "code": "2571-8",
              "system": "http://loinc.org",
              "display": "Triglyceride [Mass/volume] in Serum or Plasma"
            }
          ],
          "text": "Triglyceride [Mass/volume] in Serum or Plasma"
        },
        "valueQuantity": {
          "system": "http://unitsofmeasure.org",
          "value": 124.3,
          "unit": "mg/dL",
          "code": "mg/dL"
        },
        "referenceRange": [
          {
            "low": {
              "value": 40,
              "code": "mg/dL",
              "system": "http://unitsofmeasure.org"
            }
          },
          {
            "high": {
              "value": 150,
              "code": "mg/dL",
              "system": "http://unitsofmeasure.org"
            }
          }
        ],
        "text": {
          "status": "generated",
          "div": "<div xmlns=\"http://www.w3.org/1999/xhtml\"><table class=\"hl7__eu__lab__report\"><tr><th>Test</th><th>03-Sep-2019</th><th>Reference&#xA0;Range</th><th>Unit</th></tr><tr><td>Triglyceride [Mass/volume] in Serum or Plasma</td><td>124.3</td><td>40 - 150</td><td></td><td>mg/dL</td></tr></table></div>"
        },
        "status": "final",
        "subject": {
          "reference": "urn:uuid:5e7193c0-3a90-47b2-821e-fc802b74c392",
          "display": "Khalid Nilsson"
        },
        "effectiveDateTime": "2019-09-02T23:04:23Z",
        "specimen": {
          "reference": "urn:uuid:151762ed-82a6-4e49-b8e9-81dae073b97a"
        }
      }
    },
    {
      "fullUrl": "urn:uuid:fa53a4dd-819e-404f-87ff-33e27cbb1d8a",
      "resource": {
        "resourceType": "Observation",
        "id": "fa53a4dd-819e-404f-87ff-33e27cbb1d8a",
        "meta": {
          "profile": [
            "http://hl7.eu/fhir/laboratory/StructureDefinition/Observation-resultslab-eu-lab"
          ]
        },
        "performer": [
          {
            "display": "The Central European Lab"
          }
        ],
        "category": [
          {
            "coding": [
              {
                "system": "http://terminology.hl7.org/CodeSystem/observation-category",
                "code": "laboratory"
              }
            ]
          }
        ],
        "code": {
          "coding": [
            {
              "code": "18262-6",
              "system": "http://loinc.org",
              "display": "Cholesterol in LDL [Mass/volume] in Serum or Plasma by Direct assay"
            }
          ],
          "text": "Cholesterol in LDL [Mass/volume] in Serum or Plasma by Direct assay"
        },
        "valueQuantity": {
          "system": "http://unitsofmeasure.org",
          "value": 101.4,
          "unit": "mg/dL",
          "code": "mg/dL"
        },
        "referenceRange": [
          {
            "low": {
              "value": 0,
              "code": "mg/dL",
              "system": "http://unitsofmeasure.org"
            }
          },
          {
            "high": {
              "value": 130,
              "code": "mg/dL",
              "system": "http://unitsofmeasure.org"
            }
          }
        ],
        "text": {
          "status": "generated",
          "div": "<div xmlns=\"http://www.w3.org/1999/xhtml\"><table class=\"hl7__eu__lab__report\"><tr><th>Test</th><th>03-Sep-2019</th><th>Reference&#xA0;Range</th><th>Unit</th></tr><tr><td>Cholesterol in LDL [Mass/volume] in Serum or Plasma by Direct assay</td><td>101.4</td><td>0 - 130</td><td></td><td>mg/dL</td></tr></table></div>"
        },
        "status": "final",
        "subject": {
          "reference": "urn:uuid:5e7193c0-3a90-47b2-821e-fc802b74c392",
          "display": "Khalid Nilsson"
        },
        "effectiveDateTime": "2019-09-02T23:04:23Z",
        "specimen": {
          "reference": "urn:uuid:151762ed-82a6-4e49-b8e9-81dae073b97a"
        }
      }
    },
    {
      "fullUrl": "urn:uuid:6edd7667-bca1-443e-9772-94cc57a0ff1a",
      "resource": {
        "resourceType": "Observation",
        "id": "6edd7667-bca1-443e-9772-94cc57a0ff1a",
        "meta": {
          "profile": [
            "http://hl7.eu/fhir/laboratory/StructureDefinition/Observation-resultslab-eu-lab"
          ]
        },
        "performer": [
          {
            "display": "The Central European Lab"
          }
        ],
        "category": [
          {
            "coding": [
              {
                "system": "http://terminology.hl7.org/CodeSystem/observation-category",
                "code": "laboratory"
              }
            ]
          }
        ],
        "code": {
          "coding": [
            {
              "code": "2085-9",
              "system": "http://loinc.org",
              "display": "Cholesterol in HDL [Mass/volume] in Serum or Plasma"
            }
          ],
          "text": "Cholesterol in HDL [Mass/volume] in Serum or Plasma"
        },
        "valueQuantity": {
          "system": "http://unitsofmeasure.org",
          "value": 29.9,
          "unit": "mg/dL",
          "code": "mg/dL"
        },
        "referenceRange": [
          {
            "low": {
              "value": 40,
              "code": "mg/dL",
              "system": "http://unitsofmeasure.org"
            }
          },
          {
            "high": {
              "value": 100,
              "code": "mg/dL",
              "system": "http://unitsofmeasure.org"
            }
          }
        ],
        "interpretation": [
          {
            "coding": [
              {
                "code": "L",
                "system": "http://terminology.hl7.org/CodeSystem/v3-ObservationInterpretation",
                "display": "Low"
              }
            ]
          }
        ],
        "text": {
          "status": "generated",
          "div": "<div xmlns=\"http://www.w3.org/1999/xhtml\"><table class=\"hl7__eu__lab__report\"><tr><th>Test</th><th>03-Sep-2019</th><th>Reference&#xA0;Range</th><th>Unit</th></tr><tr><td>Cholesterol in HDL [Mass/volume] in Serum or Plasma</td><td>29.9</td><td>40 - 100</td><td>L</td><td>mg/dL</td></tr></table></div>"
        },
        "status": "final",
        "subject": {
          "reference": "urn:uuid:5e7193c0-3a90-47b2-821e-fc802b74c392",
          "display": "Khalid Nilsson"
        },
        "effectiveDateTime": "2019-09-02T23:04:23Z",
        "specimen": {
          "reference": "urn:uuid:151762ed-82a6-4e49-b8e9-81dae073b97a"
        }
      }
    },
    {
      "fullUrl": "urn:uuid:7840a5bc-0fb3-4481-a799-783b48febf38",
      "resource": {
        "resourceType": "Device",
        "id": "7840a5bc-0fb3-4481-a799-783b48febf38",
        "deviceName": [
          {
            "name": "SYNDERAI Synthetic Generator",
            "type": "manufacturer-name"
          }
        ],
        "version": [
          {
            "value": "5.0"
          }
        ],
        "text": {
          "status": "generated",
          "div": "<div xmlns=\"http://www.w3.org/1999/xhtml\">SYNDERAI Synthetic Generator v5.0</div>"
        },
        "status": "active\"",
        "distinctIdentifier": "synderai-generator-50",
        "manufacturer": "SYNDERAI Project"
      }
    },
    {
      "fullUrl": "urn:uuid:edabb702-f6f7-4b68-8b33-118106bf313f",
      "resource": {
        "resourceType": "Provenance",
        "id": "edabb702-f6f7-4b68-8b33-118106bf313f",
        "target": [
          {
            "reference": "Patient/5e7193c0-3a90-47b2-821e-fc802b74c392"
          },
          {
            "reference": "Bundle/964e2643-48de-4478-90e9-c7739639079f"
          },
          {
            "reference": "Composition/9f9fdd79-0024-474a-bac0-eb27e198783a"
          },
          {
            "reference": "PractitionerRole/8ee5c3aa-bba3-4f3b-a806-e5d0c4e7e7fa"
          },
          {
            "reference": "Practitioner/638112ec-6c83-4583-8e60-3a898f8ada56"
          },
          {
            "reference": "PractitionerRole/5b5b424b-e558-4ca0-8a4d-21ee3409b763"
          },
          {
            "reference": "Organization/b107f02d-f277-4298-8b3e-b23908998d9b"
          }
        ],
        "activity": {
          "text": "Synthetic Example Data Generation"
        },
        "policy": [
          "https://synderai.net/synderai-synthetic-data-policy"
        ],
        "agent": [
          {
            "type": {
              "text": "author"
            },
            "who": {
              "reference": "Device/7840a5bc-0fb3-4481-a799-783b48febf38"
            }
          }
        ],
        "reason": [
          {
            "text": "Interoperability Testing and Training (non-clinical use)"
          }
        ],
        "text": {
          "status": "generated",
          "div": "<div xmlns=\"http://www.w3.org/1999/xhtml\">Provenance for SYNDERAI Synthetic Example Data Resource</div>"
        },
        "recorded": "2019-09-03T01:04:23Z"
      }
    },
    {
      "fullUrl": "urn:uuid:8ee5c3aa-bba3-4f3b-a806-e5d0c4e7e7fa",
      "resource": {
        "resourceType": "PractitionerRole",
        "id": "8ee5c3aa-bba3-4f3b-a806-e5d0c4e7e7fa",
        "meta": {
          "profile": [
            "http://hl7.eu/fhir/base/StructureDefinition/practitionerRole-eu"
          ]
        },
        "text": {
          "status": "generated",
          "div": "<div xmlns=\"http://www.w3.org/1999/xhtml\">Laboratory Role Id: 8ee5c3aa-bba3-4f3b-a806-e5d0c4e7e7fa</div>"
        },
        "practitioner": {
          "reference": "urn:uuid:638112ec-6c83-4583-8e60-3a898f8ada56"
        }
      }
    },
    {
      "fullUrl": "urn:uuid:638112ec-6c83-4583-8e60-3a898f8ada56",
      "resource": {
        "resourceType": "Practitioner",
        "id": "638112ec-6c83-4583-8e60-3a898f8ada56",
        "meta": {
          "profile": [
            "http://hl7.eu/fhir/base/StructureDefinition/practitioner-eu"
          ]
        },
        "identifier": [
          {
            "assigner": {
              "display": "HL7 Europe"
            },
            "system": "urn:oid:2.16.840.1.113883.2.51.999",
            "value": "06cbbbe4-96a1-4735-8280-07f68c8a8720"
          }
        ],
        "name": [
          {
            "prefix": [
              "dr"
            ],
            "given": [
              "Ex"
            ],
            "family": "Ample"
          }
        ],
        "address": [
          {
            "line": [
              "Laboratoire Central Européenne",
              "Boulevard du Jardin Botanique 32"
            ],
            "postalCode": "1000",
            "city": "Brussels",
            "country": "Belgium"
          }
        ],
        "text": {
          "status": "generated",
          "div": "<div xmlns=\"http://www.w3.org/1999/xhtml\">Laboratory: Laboratoire Central Européenne, 1000 Brussels, Belgium</div>"
        }
      }
    }
  ],
  "type": "document",
  "timestamp": "2019-09-03T01:04:23Z"
}
