<Bundle xmlns="http://hl7.org/fhir">
   <id value="3106c440-6b8c-4214-84fa-a386e614c40e"/>
   <meta>
      <profile value="http://hl7.eu/fhir/laboratory/StructureDefinition/Bundle-eu-lab"/>
   </meta>
   <identifier>
      <system value="urn:oid:2.16.840.1.113883.2.51.999"/>
      <value value="5ffd9bc5-9451-44e2-89b1-d40fa4935490"/>
      <assigner>
         <display value="HL7 Europe"/>
      </assigner>
   </identifier>
   <type value="document"/>
   <timestamp value="2017-06-22T07:58:05Z"/>
   <entry>
      <fullUrl value="urn:uuid:c57c5e97-6fc2-4f96-95f0-138bdc881b73"/>
      <resource>
         <Composition>
            <id value="c57c5e97-6fc2-4f96-95f0-138bdc881b73"/>
            <meta>
               <profile value="http://hl7.eu/fhir/laboratory/StructureDefinition/Composition-eu-lab"/>
            </meta>
            <identifier>
               <system value="urn:oid:2.16.840.1.113883.2.51.999"/>
               <value value="c7942e31-3a23-476f-a09f-cdd7e6a2ddb2"/>
               <assigner>
                  <display value="HL7 Europe"/>
               </assigner>
            </identifier>
            <status value="final"/>
            <type>
               <coding>
                  <system value="http://loinc.org"/>
                  <code value="11502-2"/>
                  <display value="Laboratory report"/>
               </coding>
               <text value="Laboratory Report"/>
            </type>
            <category>
               <coding>
                  <system value="http://loinc.org"/>
                  <code value="26436-6"/>
                  <display value="Laboratory studies (set)"/>
               </coding>
            </category>
            <subject>
               <reference value="urn:uuid:44d79e8f-8eea-4690-99d0-f6512300033f"/>
               <display value="Magdolna Balog"/>
            </subject>
            <date value="2017-06-22T07:58:05Z"/>
            <author>
               <reference value="urn:uuid:68b782bb-79e7-466e-aee0-d567d09f58bd"/>
            </author>
            <title value="Laboratory Report"/>
            <confidentiality value="N"/>
            <section>
               <title value="Laboratory Report"/>
               <code>
                  <coding>
                     <system value="http://loinc.org"/>
                     <code value="26436-6"/>
                     <display value="Laboratory studies (set)"/>
                  </coding>
                  <text value="Laboratory studies"/>
               </code>
               <section>
                  <title value="Hematology"/>
                  <code>
                     <coding>
                        <system value="http://loinc.org"/>
                        <code value="$18723-7"/>
                        <display value="Hematology studies (set)"/>
                     </coding>
                     <text value="Hematology"/>
                  </code>
                  <text>
                     <status value="generated"/>
                     <div xmlns="http://www.w3.org/1999/xhtml">
                        <h3>Hematology</h3>
                        <table class="hl7__eu__lab__report">
                           <thead>
                              <tr>
                                 <th>Test</th>
                                 <th>22-JUN-2017</th>
                                 <th>Reference Range</th>
                                 <th>Unit</th>
                              </tr>
                           </thead>
                           <tbody>
                              <tr>
                                 <td>Leukocytes [#/volume] in Blood by Automated count</td>
                                 <td>6.7</td>
                                 <td>4 - 11</td>
                                 <td>10*3/uL</td>
                              </tr>
                              <tr>
                                 <td>Erythrocytes [#/volume] in Blood by Automated count</td>
                                 <td>5.2</td>
                                 <td>4.2 - 5.8</td>
                                 <td>10*6/uL</td>
                              </tr>
                              <tr>
                                 <td>Hemoglobin [Mass/volume] in Blood</td>
                                 <td>
                                    <strong>17.0 H</strong>
                                 </td>
                                 <td>12 - 16</td>
                                 <td>g/dL</td>
                              </tr>
                              <tr>
                                 <td>Hematocrit [Volume Fraction] of Blood by Automated count</td>
                                 <td>45.5</td>
                                 <td>36 - 48</td>
                                 <td>%</td>
                              </tr>
                              <tr>
                                 <td>MCV [Entitic volume] by Automated count</td>
                                 <td>90.5</td>
                                 <td>78 - 98</td>
                                 <td>fL</td>
                              </tr>
                              <tr>
                                 <td>MCH [Entitic mass] by Automated count</td>
                                 <td>31.5</td>
                                 <td>27 - 34.5</td>
                                 <td>pg</td>
                              </tr>
                              <tr>
                                 <td>MCHC [Mass/volume] by Automated count</td>
                                 <td>35.1</td>
                                 <td>31.5 - 35.5</td>
                                 <td>g/dL</td>
                              </tr>
                              <tr>
                                 <td>Erythrocyte distribution width [Ratio] by Automated count</td>
                                 <td>12.4</td>
                                 <td>11.5 - 16</td>
                                 <td>%</td>
                              </tr>
                              <tr>
                                 <td>Platelets [#/volume] in Blood by Automated count</td>
                                 <td>
                                    <strong>359.2 H</strong>
                                 </td>
                                 <td>150 - 350</td>
                                 <td>10*3/uL</td>
                              </tr>
                           </tbody>
                        </table>
                     </div>
                  </text>
                  <entry>
                     <reference value="urn:uuid:a0cb32a2-e87d-493d-86f8-26f56beeac0b"/>
                  </entry>
                  <entry>
                     <reference value="urn:uuid:359f8da8-e661-419f-9baf-2e0091783c0a"/>
                  </entry>
                  <entry>
                     <reference value="urn:uuid:8c088c65-b9c4-445a-b204-329e9c3f30f2"/>
                  </entry>
                  <entry>
                     <reference value="urn:uuid:e8501651-8c30-40ad-ab08-a5d5d6f92414"/>
                  </entry>
                  <entry>
                     <reference value="urn:uuid:bb7679e1-913a-4fa7-9637-2bd7e4e3d606"/>
                  </entry>
                  <entry>
                     <reference value="urn:uuid:0b4311d1-36a5-4cb3-b008-c4cba67a0e70"/>
                  </entry>
                  <entry>
                     <reference value="urn:uuid:1696cf66-c122-4ab3-a7d7-2c30b23c44b0"/>
                  </entry>
                  <entry>
                     <reference value="urn:uuid:d071c85e-5523-478e-864b-01799e77b3fe"/>
                  </entry>
                  <entry>
                     <reference value="urn:uuid:de653022-30fd-47ba-bc5a-75bc90d9d8fa"/>
                  </entry>
               </section>
               <section>
                  <title value="Chemistry"/>
                  <code>
                     <coding>
                        <system value="http://loinc.org"/>
                        <code value="$18719-5"/>
                        <display value="Chemistry studies (set)"/>
                     </coding>
                     <text value="Chemistry"/>
                  </code>
                  <text>
                     <status value="generated"/>
                     <div xmlns="http://www.w3.org/1999/xhtml">
                        <h3>Chemistry</h3>
                        <table class="hl7__eu__lab__report">
                           <thead>
                              <tr>
                                 <th>Test</th>
                                 <th>22-JUN-2017</th>
                                 <th>Reference Range</th>
                                 <th>Unit</th>
                              </tr>
                           </thead>
                           <tbody>
                              <tr>
                                 <td>Glucose [Mass/volume] in Serum or Plasma</td>
                                 <td>98.3</td>
                                 <td>70 - 140</td>
                                 <td>mg/dL</td>
                              </tr>
                              <tr>
                                 <td>Urea nitrogen [Mass/volume] in Serum or Plasma</td>
                                 <td>18.7</td>
                                 <td>7 - 25</td>
                                 <td>mg/dL</td>
                              </tr>
                              <tr>
                                 <td>Creatinine [Mass/volume] in Serum or Plasma</td>
                                 <td>
                                    <strong>2.6 H</strong>
                                 </td>
                                 <td>0.6 - 1.1</td>
                                 <td>mg/dL</td>
                              </tr>
                              <tr>
                                 <td>Calcium [Mass/volume] in Serum or Plasma</td>
                                 <td>9.2</td>
                                 <td>8.5 - 10.4</td>
                                 <td>mg/dL</td>
                              </tr>
                              <tr>
                                 <td>Sodium [Moles/volume] in Serum or Plasma</td>
                                 <td>143.9</td>
                                 <td>135 - 145</td>
                                 <td>mmol/L</td>
                              </tr>
                              <tr>
                                 <td>Potassium [Moles/volume] in Serum or Plasma</td>
                                 <td>4.5</td>
                                 <td>3.5 - 5.3</td>
                                 <td>mmol/L</td>
                              </tr>
                              <tr>
                                 <td>Chloride [Moles/volume] in Serum or Plasma</td>
                                 <td>102.7</td>
                                 <td>98 - 108</td>
                                 <td>mmol/L</td>
                              </tr>
                              <tr>
                                 <td>Carbon dioxide, total [Moles/volume] in Serum or Plasma</td>
                                 <td>
                                    <strong>21.3 L</strong>
                                 </td>
                                 <td>22 - 29</td>
                                 <td>mmol/L</td>
                              </tr>
                              <tr>
                                 <td>Protein [Mass/volume] in Serum or Plasma</td>
                                 <td>7.8</td>
                                 <td>6 - 8.3</td>
                                 <td>g/dL</td>
                              </tr>
                              <tr>
                                 <td>Albumin [Mass/volume] in Serum or Plasma</td>
                                 <td>4.7</td>
                                 <td>3.5 - 5.5</td>
                                 <td>g/dL</td>
                              </tr>
                              <tr>
                                 <td>Bilirubin.total [Mass/volume] in Serum or Plasma</td>
                                 <td>
                                    <strong>14.1 H</strong>
                                 </td>
                                 <td>0.3 - 1.2</td>
                                 <td>mg/dL</td>
                              </tr>
                              <tr>
                                 <td>Alkaline phosphatase [Enzymatic activity/volume] in Serum or Plasma</td>
                                 <td>115.9</td>
                                 <td>35 - 270</td>
                                 <td>U/L</td>
                              </tr>
                              <tr>
                                 <td>Alanine aminotransferase [Enzymatic activity/volume] in Serum or Plasma</td>
                                 <td>
                                    <strong>2.0 L</strong>
                                 </td>
                                 <td>7 - 60</td>
                                 <td>U/L</td>
                              </tr>
                              <tr>
                                 <td>Aspartate aminotransferase [Enzymatic activity/volume] in Serum or Plasma</td>
                                 <td>27.7</td>
                                 <td>10 - 40</td>
                                 <td>U/L</td>
                              </tr>
                              <tr>
                                 <td>Magnesium [Mass/volume] in Serum or Plasma</td>
                                 <td>2.0</td>
                                 <td>1.6 - 2.3</td>
                                 <td>mg/dL</td>
                              </tr>
                              <tr>
                                 <td>Phosphate [Mass/volume] in Serum or Plasma</td>
                                 <td>4.0</td>
                                 <td>2.5 - 4.5</td>
                                 <td>mg/dL</td>
                              </tr>
                              <tr>
                                 <td>pH of Arterial blood</td>
                                 <td>
                                    <strong>6.9 L</strong>
                                 </td>
                                 <td>7.35 - 7.45</td>
                                 <td>[pH]</td>
                              </tr>
                              <tr>
                                 <td>Carbon dioxide [Partial pressure] in Arterial blood</td>
                                 <td>40.8</td>
                                 <td>38 - 48</td>
                                 <td>mm[Hg]</td>
                              </tr>
                              <tr>
                                 <td>Oxygen [Partial pressure] in Arterial blood</td>
                                 <td>89.5</td>
                                 <td>75 - 100</td>
                                 <td>mm[Hg]</td>
                              </tr>
                              <tr>
                                 <td>Bicarbonate [Moles/volume] in Arterial blood</td>
                                 <td>25.7</td>
                                 <td>22 - 31</td>
                                 <td>mmol/L</td>
                              </tr>
                              <tr>
                                 <td>Oxygen saturation in Arterial blood</td>
                                 <td>98.0</td>
                                 <td>95 - 100</td>
                                 <td>%</td>
                              </tr>
                              <tr>
                                 <td>Cholesterol [Mass/volume] in Serum or Plasma</td>
                                 <td>145.9</td>
                                 <td>125 - 200</td>
                                 <td>mg/dL</td>
                              </tr>
                              <tr>
                                 <td>Triglyceride [Mass/volume] in Serum or Plasma</td>
                                 <td>123.9</td>
                                 <td>0 - 150</td>
                                 <td>mg/dL</td>
                              </tr>
                              <tr>
                                 <td>Cholesterol in LDL [Mass/volume] in Serum or Plasma by Direct assay</td>
                                 <td>53.3</td>
                                 <td>0 - 130</td>
                                 <td>mg/dL</td>
                              </tr>
                              <tr>
                                 <td>Cholesterol in HDL [Mass/volume] in Serum or Plasma</td>
                                 <td>67.8</td>
                                 <td>50 - 100</td>
                                 <td>mg/dL</td>
                              </tr>
                           </tbody>
                        </table>
                     </div>
                  </text>
                  <entry>
                     <reference value="urn:uuid:2bc666e9-ecc8-435e-b34c-624d3b0727f2"/>
                  </entry>
                  <entry>
                     <reference value="urn:uuid:3234cedd-961e-4bc9-bdb8-41cb163717c0"/>
                  </entry>
                  <entry>
                     <reference value="urn:uuid:0584b376-de9f-4b3f-9bf1-21ea1cbb5c59"/>
                  </entry>
                  <entry>
                     <reference value="urn:uuid:d04e52b5-1f38-4b1b-9e76-6c1a1e136c69"/>
                  </entry>
                  <entry>
                     <reference value="urn:uuid:dc7f1f6d-200c-421a-8578-cf64f167c478"/>
                  </entry>
                  <entry>
                     <reference value="urn:uuid:9b495369-1ec4-45e5-ac09-06ba6334bc85"/>
                  </entry>
                  <entry>
                     <reference value="urn:uuid:a1e21ae9-7146-49ea-a58d-aa28ae14a2bc"/>
                  </entry>
                  <entry>
                     <reference value="urn:uuid:4c4e9e10-8202-41b6-9a73-4f919d67b187"/>
                  </entry>
                  <entry>
                     <reference value="urn:uuid:38155b9f-816d-4305-b6b9-5d4cacdcdde9"/>
                  </entry>
                  <entry>
                     <reference value="urn:uuid:5cb37239-e2e5-4589-af14-4f6c1517260f"/>
                  </entry>
                  <entry>
                     <reference value="urn:uuid:f84081a0-ed66-420c-abe8-4b4108792fa4"/>
                  </entry>
                  <entry>
                     <reference value="urn:uuid:03450d18-5105-4b38-98a6-20d19c0bd6af"/>
                  </entry>
                  <entry>
                     <reference value="urn:uuid:1a9d9869-0ac3-47f5-ba6b-f99ddc4eda83"/>
                  </entry>
                  <entry>
                     <reference value="urn:uuid:e4236620-08b2-41be-82d7-b1970531ffcf"/>
                  </entry>
                  <entry>
                     <reference value="urn:uuid:443b6baa-fc06-4eee-9f7d-ceb93e313430"/>
                  </entry>
                  <entry>
                     <reference value="urn:uuid:baff569d-93ef-4125-9fca-514997b13b3f"/>
                  </entry>
                  <entry>
                     <reference value="urn:uuid:85146528-7832-43f0-85ec-ca1b1f447558"/>
                  </entry>
                  <entry>
                     <reference value="urn:uuid:27cd5ac1-b0e7-4d52-af02-e76891edb700"/>
                  </entry>
                  <entry>
                     <reference value="urn:uuid:57894583-8dbd-45c8-acd8-a8d5d26caa0a"/>
                  </entry>
                  <entry>
                     <reference value="urn:uuid:27294675-122b-4f83-83f4-eae5c0af275e"/>
                  </entry>
                  <entry>
                     <reference value="urn:uuid:8b2bb691-9bdb-4845-9943-181e13e449c6"/>
                  </entry>
                  <entry>
                     <reference value="urn:uuid:65ebb278-083f-4b6b-841c-54a26cff70d3"/>
                  </entry>
                  <entry>
                     <reference value="urn:uuid:a54a12ec-b7a6-4667-8a6e-f8393c0e4092"/>
                  </entry>
                  <entry>
                     <reference value="urn:uuid:56b63260-2eee-46ea-9c1e-78f2b240369d"/>
                  </entry>
                  <entry>
                     <reference value="urn:uuid:5027fe5d-9554-47ab-81c4-6e13efb8ac85"/>
                  </entry>
               </section>
               <section>
                  <title value="Coagulation"/>
                  <code>
                     <coding>
                        <system value="http://loinc.org"/>
                        <code value="$18720-3"/>
                        <display value="Coagulation studies (set)"/>
                     </coding>
                     <text value="Coagulation"/>
                  </code>
                  <text>
                     <status value="generated"/>
                     <div xmlns="http://www.w3.org/1999/xhtml">
                        <h3>Coagulation</h3>
                        <table class="hl7__eu__lab__report">
                           <thead>
                              <tr>
                                 <th>Test</th>
                                 <th>22-JUN-2017</th>
                                 <th>Reference Range</th>
                                 <th>Unit</th>
                              </tr>
                           </thead>
                           <tbody>
                              <tr>
                                 <td>Prothrombin time (PT)</td>
                                 <td>11.3</td>
                                 <td>11 - 15</td>
                                 <td>s</td>
                              </tr>
                              <tr>
                                 <td>INR in Platelet poor plasma by Coagulation assay</td>
                                 <td>0.9</td>
                                 <td>0.9 - 3</td>
                                 <td>{INR}</td>
                              </tr>
                              <tr>
                                 <td>aPTT in Blood by Coagulation assay</td>
                                 <td>30.3</td>
                                 <td>25 - 40</td>
                                 <td>s</td>
                              </tr>
                           </tbody>
                        </table>
                     </div>
                  </text>
                  <entry>
                     <reference value="urn:uuid:b4f89d97-6586-4c34-9d89-5657303e8a30"/>
                  </entry>
                  <entry>
                     <reference value="urn:uuid:62168a31-ae47-425f-962b-34479c2a2a10"/>
                  </entry>
                  <entry>
                     <reference value="urn:uuid:0cf885af-dc6c-48a8-86db-bd96301a1b84"/>
                  </entry>
               </section>
            </section>
            <section>
               <title value="Annotation comment"/>
               <code>
                  <coding>
                     <system value="http://loinc.org"/>
                     <code value="48767-8"/>
                     <display value="Annotation comment"/>
                  </coding>
               </code>
               <text>
                  <status value="generated"/>
                  <div xmlns="http://www.w3.org/1999/xhtml">
                     <h3>Annotation</h3>
                     <table class="hl7__eu__lab__report">
                        <tr>
                           <th>Conclusion and Recommendations based on this report and previous findings known to us</th>
                        </tr>
                        <tr>
                           <td>The patient shows elevated hemoglobin, platelets, creatinine, and markedly high total bilirubin, with low ALT and total CO₂, and severe metabolic acidosis (arterial pH 6.9). Renal dysfunction is evident, and the hyperbilirubinemia suggests possible liver dysfunction or hemolysis. Immediate clinical evaluation is warranted due to life-threatening acidosis and renal impairment.</td>
                        </tr>
                     </table>
                  </div>
               </text>
            </section>
         </Composition>
      </resource>
   </entry>
   <entry>
      <fullUrl value="urn:uuid:b33e3bbc-6c63-4808-a540-74af65710b88"/>
      <resource>
         <DiagnosticReport>
            <id value="b33e3bbc-6c63-4808-a540-74af65710b88"/>
            <meta>
               <profile value="http://hl7.eu/fhir/laboratory/StructureDefinition/DiagnosticReport-eu-lab"/>
            </meta>
            <extension url="http://hl7.org/fhir/5.0/StructureDefinition/extension-DiagnosticReport.composition">
               <valueReference>
                  <reference value="urn:uuid:c7942e31-3a23-476f-a09f-cdd7e6a2ddb2"/>
               </valueReference>
            </extension>
            <identifier>
               <system value="urn:oid:2.16.840.1.113883.2.51.999"/>
               <value value="d6df41ef-b91e-4581-be81-a6f782d5f041"/>
               <assigner>
                  <display value="HL7 Europe"/>
               </assigner>
            </identifier>
            <status value="registered"/>
            <category>
               <coding>
                  <system value="http://loinc.org"/>
                  <code value="26436-6"/>
                  <display value="Laboratory studies (set)"/>
               </coding>
            </category>
            <code>
               <coding>
                  <system value="http://loinc.org"/>
                  <code value="11502-2"/>
                  <display value="Laboratory report"/>
               </coding>
            </code>
            <subject>
               <reference value="urn:uuid:44d79e8f-8eea-4690-99d0-f6512300033f"/>
               <display value="Magdolna Balog"/>
            </subject>
            <specimen>
               <reference value="urn:uuid:06aa68d4-10aa-4519-9513-c815de9422f1"/>
            </specimen>
            <specimen>
               <reference value="urn:uuid:06aa68d4-10aa-4519-9513-c815de9422f1"/>
            </specimen>
            <specimen>
               <reference value="urn:uuid:cc8eb198-a8e3-4342-8de3-941947692bea"/>
            </specimen>
            <specimen>
               <reference value="urn:uuid:81387b16-bf65-452d-8697-72aafd681d89"/>
            </specimen>
            <specimen>
               <reference value="urn:uuid:18993336-d94b-4016-b766-57d0d0e69399"/>
            </specimen>
            <result>
               <reference value="urn:uuid:a0cb32a2-e87d-493d-86f8-26f56beeac0b"/>
            </result>
            <result>
               <reference value="urn:uuid:359f8da8-e661-419f-9baf-2e0091783c0a"/>
            </result>
            <result>
               <reference value="urn:uuid:8c088c65-b9c4-445a-b204-329e9c3f30f2"/>
            </result>
            <result>
               <reference value="urn:uuid:e8501651-8c30-40ad-ab08-a5d5d6f92414"/>
            </result>
            <result>
               <reference value="urn:uuid:bb7679e1-913a-4fa7-9637-2bd7e4e3d606"/>
            </result>
            <result>
               <reference value="urn:uuid:0b4311d1-36a5-4cb3-b008-c4cba67a0e70"/>
            </result>
            <result>
               <reference value="urn:uuid:1696cf66-c122-4ab3-a7d7-2c30b23c44b0"/>
            </result>
            <result>
               <reference value="urn:uuid:d071c85e-5523-478e-864b-01799e77b3fe"/>
            </result>
            <result>
               <reference value="urn:uuid:de653022-30fd-47ba-bc5a-75bc90d9d8fa"/>
            </result>
            <result>
               <reference value="urn:uuid:2bc666e9-ecc8-435e-b34c-624d3b0727f2"/>
            </result>
            <result>
               <reference value="urn:uuid:3234cedd-961e-4bc9-bdb8-41cb163717c0"/>
            </result>
            <result>
               <reference value="urn:uuid:0584b376-de9f-4b3f-9bf1-21ea1cbb5c59"/>
            </result>
            <result>
               <reference value="urn:uuid:d04e52b5-1f38-4b1b-9e76-6c1a1e136c69"/>
            </result>
            <result>
               <reference value="urn:uuid:dc7f1f6d-200c-421a-8578-cf64f167c478"/>
            </result>
            <result>
               <reference value="urn:uuid:9b495369-1ec4-45e5-ac09-06ba6334bc85"/>
            </result>
            <result>
               <reference value="urn:uuid:a1e21ae9-7146-49ea-a58d-aa28ae14a2bc"/>
            </result>
            <result>
               <reference value="urn:uuid:4c4e9e10-8202-41b6-9a73-4f919d67b187"/>
            </result>
            <result>
               <reference value="urn:uuid:38155b9f-816d-4305-b6b9-5d4cacdcdde9"/>
            </result>
            <result>
               <reference value="urn:uuid:5cb37239-e2e5-4589-af14-4f6c1517260f"/>
            </result>
            <result>
               <reference value="urn:uuid:f84081a0-ed66-420c-abe8-4b4108792fa4"/>
            </result>
            <result>
               <reference value="urn:uuid:03450d18-5105-4b38-98a6-20d19c0bd6af"/>
            </result>
            <result>
               <reference value="urn:uuid:1a9d9869-0ac3-47f5-ba6b-f99ddc4eda83"/>
            </result>
            <result>
               <reference value="urn:uuid:e4236620-08b2-41be-82d7-b1970531ffcf"/>
            </result>
            <result>
               <reference value="urn:uuid:443b6baa-fc06-4eee-9f7d-ceb93e313430"/>
            </result>
            <result>
               <reference value="urn:uuid:baff569d-93ef-4125-9fca-514997b13b3f"/>
            </result>
            <result>
               <reference value="urn:uuid:b4f89d97-6586-4c34-9d89-5657303e8a30"/>
            </result>
            <result>
               <reference value="urn:uuid:62168a31-ae47-425f-962b-34479c2a2a10"/>
            </result>
            <result>
               <reference value="urn:uuid:0cf885af-dc6c-48a8-86db-bd96301a1b84"/>
            </result>
            <result>
               <reference value="urn:uuid:85146528-7832-43f0-85ec-ca1b1f447558"/>
            </result>
            <result>
               <reference value="urn:uuid:27cd5ac1-b0e7-4d52-af02-e76891edb700"/>
            </result>
            <result>
               <reference value="urn:uuid:57894583-8dbd-45c8-acd8-a8d5d26caa0a"/>
            </result>
            <result>
               <reference value="urn:uuid:27294675-122b-4f83-83f4-eae5c0af275e"/>
            </result>
            <result>
               <reference value="urn:uuid:8b2bb691-9bdb-4845-9943-181e13e449c6"/>
            </result>
            <result>
               <reference value="urn:uuid:65ebb278-083f-4b6b-841c-54a26cff70d3"/>
            </result>
            <result>
               <reference value="urn:uuid:a54a12ec-b7a6-4667-8a6e-f8393c0e4092"/>
            </result>
            <result>
               <reference value="urn:uuid:56b63260-2eee-46ea-9c1e-78f2b240369d"/>
            </result>
            <result>
               <reference value="urn:uuid:5027fe5d-9554-47ab-81c4-6e13efb8ac85"/>
            </result>
         </DiagnosticReport>
      </resource>
   </entry>
   <entry>
      <fullUrl value="urn:uuid:44d79e8f-8eea-4690-99d0-f6512300033f"/>
      <resource>
         <Patient>
            <id value="44d79e8f-8eea-4690-99d0-f6512300033f"/>
            <meta>
               <profile value="http://hl7.eu/fhir/base/StructureDefinition/patient-eu-core"/>
               <security>
                  <system value="http://terminology.hl7.org/CodeSystem/v3-ActReason"/>
                  <code value="HTEST"/>
               </security>
               <security>
                  <system value="http://terminology.hl7.org/CodeSystem/v3-ActReason"/>
                  <code value="TRAIN"/>
               </security>
               <tag>
                  <system value="https://synderai.net/fhir/CodeSystem/tags"/>
                  <code value="synthetic"/>
                  <display value="SYNDERAI Synthetic data"/>
               </tag>
            </meta>
            <text>
               <status value="generated"/>
               <div xmlns="http://www.w3.org/1999/xhtml">
                  <table class="hl7__ips">
                     <tr>
                        <td>Magdolna Balog</td>
                        <td>female</td>
                        <td>21-May-1946</td>
                     </tr>
                  </table>
               </div>
            </text>
            <extension url="http://hl7.org/fhir/StructureDefinition/patient-nationality">
               <valueCodeableConcept>
                  <coding>
                     <system value="http://hl7.org/fhir/ValueSet/country"/>
                     <code value="HU"/>
                  </coding>
               </valueCodeableConcept>
            </extension>
            <identifier>
               <type>
                  <coding>
                     <system value="http://terminology.hl7.org/CodeSystem/v2-0203"/>
                     <code value="PT"/>
                  </coding>
               </type>
               <system value="http://ec.europa.eu/identifier/eci"/>
               <value value="2437-386280-4"/>
            </identifier>
            <identifier>
               <type>
                  <coding>
                     <system value="http://terminology.hl7.org/CodeSystem/v2-0203"/>
                     <code value="MR"/>
                  </coding>
               </type>
               <system value="http://local.setting.eu/identifier"/>
               <value value="1d8dc8c5-3a85-b1b5-4101-cca776d0be28"/>
            </identifier>
            <name>
               <family value="Balog"/>
            </name>
            <name>
               <given value="Magdolna"/>
            </name>
            <name>
               <text value="Magdolna Balog"/>
            </name>
            <telecom>
               <system value="phone"/>
               <value value="+36 46 091-2914"/>
            </telecom>
            <gender value="female"/>
            <birthDate value="1946-05-21"/>
            <address>
               <use value="home"/>
               <type value="physical"/>
               <line value="Ady endre utca 160."/>
               <city value="Némethídfa"/>
               <postalCode value="3989"/>
               <country value="Hungary"/>
            </address>
         </Patient>
      </resource>
   </entry>
   <entry>
      <fullUrl value="urn:uuid:653a116a-7a8e-496e-92ff-07eec88335a0"/>
      <resource>
         <ServiceRequest>
            <id value="653a116a-7a8e-496e-92ff-07eec88335a0"/>
            <meta>
               <profile value="http://hl7.eu/fhir/laboratory/StructureDefinition/ServiceRequest-eu-lab"/>
            </meta>
            <identifier>
               <system value="http://example.org"/>
               <value value="6bd0d3f0-8443-4869-82ef-c2af9d86cf5a"/>
            </identifier>
            <status value="active"/>
            <intent value="order"/>
            <code>
               <coding>
                  <system value="http://snomed.info/sct"/>
                  <code value="108252007"/>
                  <display value="Laboratory procedure"/>
               </coding>
            </code>
            <subject>
               <reference value="urn:uuid:44d79e8f-8eea-4690-99d0-f6512300033f"/>
               <display value="Magdolna Balog"/>
            </subject>
            <requester>
               <reference value="urn:uuid:15d5e70a-ba19-4ced-9bb3-d418c6d03057"/>
            </requester>
            <reasonCode>
               <coding>
                  <system value="http://snomed.info/sct"/>
                  <code value="26929004"/>
                  <display value="Alzheimer&amp;#039;s disease"/>
               </coding>
            </reasonCode>
            <reasonCode>
               <coding>
                  <system value="http://snomed.info/sct"/>
                  <code value="414545008"/>
                  <display value="Ischemic heart disease"/>
               </coding>
            </reasonCode>
            <reasonCode>
               <coding>
                  <system value="http://snomed.info/sct"/>
                  <code value="49436004"/>
                  <display value="Atrial fibrillation"/>
               </coding>
            </reasonCode>
            <reasonCode>
               <coding>
                  <system value="http://snomed.info/sct"/>
                  <code value="64859006"/>
                  <display value="Osteoporosis"/>
               </coding>
            </reasonCode>
            <reasonCode>
               <coding>
                  <system value="http://snomed.info/sct"/>
                  <code value="15777000"/>
                  <display value="Prediabetes"/>
               </coding>
            </reasonCode>
            <reasonCode>
               <coding>
                  <system value="http://snomed.info/sct"/>
                  <code value="271737000"/>
                  <display value="Anemia"/>
               </coding>
            </reasonCode>
            <specimen>
               <reference value="urn:uuid:06aa68d4-10aa-4519-9513-c815de9422f1"/>
            </specimen>
            <specimen>
               <reference value="urn:uuid:cc8eb198-a8e3-4342-8de3-941947692bea"/>
            </specimen>
            <specimen>
               <reference value="urn:uuid:81387b16-bf65-452d-8697-72aafd681d89"/>
            </specimen>
            <specimen>
               <reference value="urn:uuid:18993336-d94b-4016-b766-57d0d0e69399"/>
            </specimen>
         </ServiceRequest>
      </resource>
   </entry>
   <entry>
      <fullUrl value="urn:uuid:15d5e70a-ba19-4ced-9bb3-d418c6d03057"/>
      <resource>
         <PractitionerRole>
            <id value="15d5e70a-ba19-4ced-9bb3-d418c6d03057"/>
            <meta>
               <profile value="http://hl7.eu/fhir/base/StructureDefinition/practitionerRole-eu"/>
            </meta>
            <text>
               <status value="generated"/>
               <div xmlns="http://www.w3.org/1999/xhtml">Provider Role Id: 15d5e70a-ba19-4ced-9bb3-d418c6d03057</div>
            </text>
            <organization>
               <reference value="urn:uuid:8126e18d-4637-4f7c-9d20-52f6b627851b"/>
            </organization>
         </PractitionerRole>
      </resource>
   </entry>
   <entry>
      <fullUrl value="urn:uuid:8126e18d-4637-4f7c-9d20-52f6b627851b"/>
      <resource>
         <Organization>
            <id value="8126e18d-4637-4f7c-9d20-52f6b627851b"/>
            <meta>
               <profile value="http://hl7.eu/fhir/base/StructureDefinition/organization-eu"/>
            </meta>
            <text>
               <status value="generated"/>
               <div xmlns="http://www.w3.org/1999/xhtml">Provider Organization: Semmelweis Ignác Egészségügyi Központ és Egyetemi Oktató Kórház</div>
            </text>
            <identifier>
               <system value="urn:oid:2.16.840.1.113883.2.51.999"/>
               <value value="1ae3713e-335e-4182-9bb2-e0932ba34099"/>
               <assigner>
                  <display value="HL7 Europe"/>
               </assigner>
            </identifier>
            <name value="Semmelweis Ignác Egészségügyi Központ és Egyetemi Oktató Kórház"/>
            <address>
               <line value="Csabai kapu 9-11"/>
               <city value="Miskolc"/>
               <postalCode value="3529"/>
               <country value="Hungary"/>
            </address>
         </Organization>
      </resource>
   </entry>
   <entry>
      <fullUrl value="urn:uuid:06aa68d4-10aa-4519-9513-c815de9422f1"/>
      <resource>
         <Specimen>
            <id value="06aa68d4-10aa-4519-9513-c815de9422f1"/>
            <meta>
               <profile value="http://hl7.eu/fhir/laboratory/StructureDefinition/Specimen-eu-lab"/>
            </meta>
            <text>
               <status value="generated"/>
               <div xmlns="http://www.w3.org/1999/xhtml">
                  <table class="hl7__eu__lab__report">
                     <tr>
                        <th>Specimen</th>
                        <th>Collection Date</th>
                     </tr>
                     <tr>
                        <td>Whole blood specimen (specimen)</td>
                        <td>
                           <span class="nb">22-Jun-2017</span>
                        </td>
                     </tr>
                  </table>
               </div>
            </text>
            <type>
               <coding>
                  <system value="http://snomed.info/sct"/>
                  <code value="258580003"/>
                  <display value="Whole blood specimen (specimen)"/>
               </coding>
            </type>
            <collection>
               <collectedDateTime value="2017-06-22"/>
            </collection>
         </Specimen>
      </resource>
   </entry>
   <entry>
      <fullUrl value="urn:uuid:06aa68d4-10aa-4519-9513-c815de9422f1"/>
      <resource>
         <Specimen>
            <id value="06aa68d4-10aa-4519-9513-c815de9422f1"/>
            <meta>
               <profile value="http://hl7.eu/fhir/laboratory/StructureDefinition/Specimen-eu-lab"/>
            </meta>
            <text>
               <status value="generated"/>
               <div xmlns="http://www.w3.org/1999/xhtml">
                  <table class="hl7__eu__lab__report">
                     <tr>
                        <th>Specimen</th>
                        <th>Collection Date</th>
                     </tr>
                     <tr>
                        <td>Whole blood specimen (specimen)</td>
                        <td>
                           <span class="nb">22-Jun-2017</span>
                        </td>
                     </tr>
                  </table>
               </div>
            </text>
            <type>
               <coding>
                  <system value="http://snomed.info/sct"/>
                  <code value="258580003"/>
                  <display value="Whole blood specimen (specimen)"/>
               </coding>
            </type>
            <collection>
               <collectedDateTime value="2017-06-22"/>
            </collection>
         </Specimen>
      </resource>
   </entry>
   <entry>
      <fullUrl value="urn:uuid:cc8eb198-a8e3-4342-8de3-941947692bea"/>
      <resource>
         <Specimen>
            <id value="cc8eb198-a8e3-4342-8de3-941947692bea"/>
            <meta>
               <profile value="http://hl7.eu/fhir/laboratory/StructureDefinition/Specimen-eu-lab"/>
            </meta>
            <text>
               <status value="generated"/>
               <div xmlns="http://www.w3.org/1999/xhtml">
                  <table class="hl7__eu__lab__report">
                     <tr>
                        <th>Specimen</th>
                        <th>Collection Date</th>
                     </tr>
                     <tr>
                        <td>Acellular blood (serum or plasma) specimen</td>
                        <td>
                           <span class="nb">22-Jun-2017</span>
                        </td>
                     </tr>
                  </table>
               </div>
            </text>
            <type>
               <coding>
                  <system value="http://snomed.info/sct"/>
                  <code value="122592007"/>
                  <display value="Acellular blood (serum or plasma) specimen"/>
               </coding>
            </type>
            <collection>
               <collectedDateTime value="2017-06-22"/>
            </collection>
         </Specimen>
      </resource>
   </entry>
   <entry>
      <fullUrl value="urn:uuid:81387b16-bf65-452d-8697-72aafd681d89"/>
      <resource>
         <Specimen>
            <id value="81387b16-bf65-452d-8697-72aafd681d89"/>
            <meta>
               <profile value="http://hl7.eu/fhir/laboratory/StructureDefinition/Specimen-eu-lab"/>
            </meta>
            <text>
               <status value="generated"/>
               <div xmlns="http://www.w3.org/1999/xhtml">
                  <table class="hl7__eu__lab__report">
                     <tr>
                        <th>Specimen</th>
                        <th>Collection Date</th>
                     </tr>
                     <tr>
                        <td>Platelet poor plasma specimen</td>
                        <td>
                           <span class="nb">22-Jun-2017</span>
                        </td>
                     </tr>
                  </table>
               </div>
            </text>
            <type>
               <coding>
                  <system value="http://snomed.info/sct"/>
                  <code value="119362004"/>
                  <display value="Platelet poor plasma specimen"/>
               </coding>
            </type>
            <collection>
               <collectedDateTime value="2017-06-22"/>
            </collection>
         </Specimen>
      </resource>
   </entry>
   <entry>
      <fullUrl value="urn:uuid:18993336-d94b-4016-b766-57d0d0e69399"/>
      <resource>
         <Specimen>
            <id value="18993336-d94b-4016-b766-57d0d0e69399"/>
            <meta>
               <profile value="http://hl7.eu/fhir/laboratory/StructureDefinition/Specimen-eu-lab"/>
            </meta>
            <text>
               <status value="generated"/>
               <div xmlns="http://www.w3.org/1999/xhtml">
                  <table class="hl7__eu__lab__report">
                     <tr>
                        <th>Specimen</th>
                        <th>Collection Date</th>
                     </tr>
                     <tr>
                        <td>Arterial blood specimen</td>
                        <td>
                           <span class="nb">22-Jun-2017</span>
                        </td>
                     </tr>
                  </table>
               </div>
            </text>
            <type>
               <coding>
                  <system value="http://snomed.info/sct"/>
                  <code value="122552005"/>
                  <display value="Arterial blood specimen"/>
               </coding>
            </type>
            <collection>
               <collectedDateTime value="2017-06-22"/>
            </collection>
         </Specimen>
      </resource>
   </entry>
   <entry>
      <fullUrl value="urn:uuid:a0cb32a2-e87d-493d-86f8-26f56beeac0b"/>
      <resource>
         <Observation>
            <id value="a0cb32a2-e87d-493d-86f8-26f56beeac0b"/>
            <meta>
               <profile value="http://hl7.eu/fhir/laboratory/StructureDefinition/Observation-resultslab-eu-lab"/>
            </meta>
            <text>
               <status value="generated"/>
               <div xmlns="http://www.w3.org/1999/xhtml">
                  <table class="hl7__eu__lab__report">
                     <tr>
                        <th>Test</th>
                        <th>22-Jun-2017</th>
                        <th>Reference Range</th>
                        <th>Unit</th>
                     </tr>
                     <tr>
                        <td>Leukocytes [#/volume] in Blood by Automated count</td>
                        <td>6.7</td>
                        <td>4 - 11</td>
                        <td/>
                        <td>10*3/uL</td>
                     </tr>
                  </table>
               </div>
            </text>
            <status value="final"/>
            <category>
               <coding>
                  <system value="http://terminology.hl7.org/CodeSystem/observation-category"/>
                  <code value="laboratory"/>
               </coding>
            </category>
            <code>
               <coding>
                  <system value="http://loinc.org"/>
                  <code value="6690-2"/>
                  <display value="Leukocytes [#/volume] in Blood by Automated count"/>
               </coding>
               <text value="Leukocytes [#/volume] in Blood by Automated count"/>
            </code>
            <subject>
               <reference value="urn:uuid:44d79e8f-8eea-4690-99d0-f6512300033f"/>
               <display value="Magdolna Balog"/>
            </subject>
            <effectiveDateTime value="2017-06-22T05:58:05Z"/>
            <performer>
               <display value="The Central European Lab"/>
            </performer>
            <valueQuantity>
               <value value="6.7"/>
               <unit value="10*3/uL"/>
               <system value="http://unitsofmeasure.org"/>
               <code value="10*3/uL"/>
            </valueQuantity>
            <specimen>
               <reference value="urn:uuid:06aa68d4-10aa-4519-9513-c815de9422f1"/>
            </specimen>
            <referenceRange>
               <low>
                  <value value="4"/>
                  <system value="http://unitsofmeasure.org"/>
                  <code value="10*3/uL"/>
               </low>
            </referenceRange>
            <referenceRange>
               <high>
                  <value value="11"/>
                  <system value="http://unitsofmeasure.org"/>
                  <code value="10*3/uL"/>
               </high>
            </referenceRange>
         </Observation>
      </resource>
   </entry>
   <entry>
      <fullUrl value="urn:uuid:359f8da8-e661-419f-9baf-2e0091783c0a"/>
      <resource>
         <Observation>
            <id value="359f8da8-e661-419f-9baf-2e0091783c0a"/>
            <meta>
               <profile value="http://hl7.eu/fhir/laboratory/StructureDefinition/Observation-resultslab-eu-lab"/>
            </meta>
            <text>
               <status value="generated"/>
               <div xmlns="http://www.w3.org/1999/xhtml">
                  <table class="hl7__eu__lab__report">
                     <tr>
                        <th>Test</th>
                        <th>22-Jun-2017</th>
                        <th>Reference Range</th>
                        <th>Unit</th>
                     </tr>
                     <tr>
                        <td>Erythrocytes [#/volume] in Blood by Automated count</td>
                        <td>5.2</td>
                        <td>4.2 - 5.8</td>
                        <td/>
                        <td>10*6/uL</td>
                     </tr>
                  </table>
               </div>
            </text>
            <status value="final"/>
            <category>
               <coding>
                  <system value="http://terminology.hl7.org/CodeSystem/observation-category"/>
                  <code value="laboratory"/>
               </coding>
            </category>
            <code>
               <coding>
                  <system value="http://loinc.org"/>
                  <code value="789-8"/>
                  <display value="Erythrocytes [#/volume] in Blood by Automated count"/>
               </coding>
               <text value="Erythrocytes [#/volume] in Blood by Automated count"/>
            </code>
            <subject>
               <reference value="urn:uuid:44d79e8f-8eea-4690-99d0-f6512300033f"/>
               <display value="Magdolna Balog"/>
            </subject>
            <effectiveDateTime value="2017-06-22T05:58:05Z"/>
            <performer>
               <display value="The Central European Lab"/>
            </performer>
            <valueQuantity>
               <value value="5.2"/>
               <unit value="10*6/uL"/>
               <system value="http://unitsofmeasure.org"/>
               <code value="10*6/uL"/>
            </valueQuantity>
            <specimen>
               <reference value="urn:uuid:06aa68d4-10aa-4519-9513-c815de9422f1"/>
            </specimen>
            <referenceRange>
               <low>
                  <value value="4.2"/>
                  <system value="http://unitsofmeasure.org"/>
                  <code value="10*6/uL"/>
               </low>
            </referenceRange>
            <referenceRange>
               <high>
                  <value value="5.8"/>
                  <system value="http://unitsofmeasure.org"/>
                  <code value="10*6/uL"/>
               </high>
            </referenceRange>
         </Observation>
      </resource>
   </entry>
   <entry>
      <fullUrl value="urn:uuid:8c088c65-b9c4-445a-b204-329e9c3f30f2"/>
      <resource>
         <Observation>
            <id value="8c088c65-b9c4-445a-b204-329e9c3f30f2"/>
            <meta>
               <profile value="http://hl7.eu/fhir/laboratory/StructureDefinition/Observation-resultslab-eu-lab"/>
            </meta>
            <text>
               <status value="generated"/>
               <div xmlns="http://www.w3.org/1999/xhtml">
                  <table class="hl7__eu__lab__report">
                     <tr>
                        <th>Test</th>
                        <th>22-Jun-2017</th>
                        <th>Reference Range</th>
                        <th>Unit</th>
                     </tr>
                     <tr>
                        <td>Hemoglobin [Mass/volume] in Blood</td>
                        <td>17.0</td>
                        <td>12 - 16</td>
                        <td>H</td>
                        <td>g/dL</td>
                     </tr>
                  </table>
               </div>
            </text>
            <status value="final"/>
            <category>
               <coding>
                  <system value="http://terminology.hl7.org/CodeSystem/observation-category"/>
                  <code value="laboratory"/>
               </coding>
            </category>
            <code>
               <coding>
                  <system value="http://loinc.org"/>
                  <code value="718-7"/>
                  <display value="Hemoglobin [Mass/volume] in Blood"/>
               </coding>
               <text value="Hemoglobin [Mass/volume] in Blood"/>
            </code>
            <subject>
               <reference value="urn:uuid:44d79e8f-8eea-4690-99d0-f6512300033f"/>
               <display value="Magdolna Balog"/>
            </subject>
            <effectiveDateTime value="2017-06-22T05:58:05Z"/>
            <performer>
               <display value="The Central European Lab"/>
            </performer>
            <valueQuantity>
               <value value="17"/>
               <unit value="g/dL"/>
               <system value="http://unitsofmeasure.org"/>
               <code value="g/dL"/>
            </valueQuantity>
            <interpretation>
               <coding>
                  <system value="http://terminology.hl7.org/CodeSystem/v3-ObservationInterpretation"/>
                  <code value="H"/>
                  <display value="High"/>
               </coding>
            </interpretation>
            <specimen>
               <reference value="urn:uuid:06aa68d4-10aa-4519-9513-c815de9422f1"/>
            </specimen>
            <referenceRange>
               <low>
                  <value value="12"/>
                  <system value="http://unitsofmeasure.org"/>
                  <code value="g/dL"/>
               </low>
            </referenceRange>
            <referenceRange>
               <high>
                  <value value="16"/>
                  <system value="http://unitsofmeasure.org"/>
                  <code value="g/dL"/>
               </high>
            </referenceRange>
         </Observation>
      </resource>
   </entry>
   <entry>
      <fullUrl value="urn:uuid:e8501651-8c30-40ad-ab08-a5d5d6f92414"/>
      <resource>
         <Observation>
            <id value="e8501651-8c30-40ad-ab08-a5d5d6f92414"/>
            <meta>
               <profile value="http://hl7.eu/fhir/laboratory/StructureDefinition/Observation-resultslab-eu-lab"/>
            </meta>
            <text>
               <status value="generated"/>
               <div xmlns="http://www.w3.org/1999/xhtml">
                  <table class="hl7__eu__lab__report">
                     <tr>
                        <th>Test</th>
                        <th>22-Jun-2017</th>
                        <th>Reference Range</th>
                        <th>Unit</th>
                     </tr>
                     <tr>
                        <td>Hematocrit [Volume Fraction] of Blood by Automated count</td>
                        <td>45.5</td>
                        <td>36 - 48</td>
                        <td/>
                        <td>%</td>
                     </tr>
                  </table>
               </div>
            </text>
            <status value="final"/>
            <category>
               <coding>
                  <system value="http://terminology.hl7.org/CodeSystem/observation-category"/>
                  <code value="laboratory"/>
               </coding>
            </category>
            <code>
               <coding>
                  <system value="http://loinc.org"/>
                  <code value="4544-3"/>
                  <display value="Hematocrit [Volume Fraction] of Blood by Automated count"/>
               </coding>
               <text value="Hematocrit [Volume Fraction] of Blood by Automated count"/>
            </code>
            <subject>
               <reference value="urn:uuid:44d79e8f-8eea-4690-99d0-f6512300033f"/>
               <display value="Magdolna Balog"/>
            </subject>
            <effectiveDateTime value="2017-06-22T05:58:05Z"/>
            <performer>
               <display value="The Central European Lab"/>
            </performer>
            <valueQuantity>
               <value value="45.5"/>
               <unit value="%"/>
               <system value="http://unitsofmeasure.org"/>
               <code value="%"/>
            </valueQuantity>
            <specimen>
               <reference value="urn:uuid:06aa68d4-10aa-4519-9513-c815de9422f1"/>
            </specimen>
            <referenceRange>
               <low>
                  <value value="36"/>
                  <system value="http://unitsofmeasure.org"/>
                  <code value="%"/>
               </low>
            </referenceRange>
            <referenceRange>
               <high>
                  <value value="48"/>
                  <system value="http://unitsofmeasure.org"/>
                  <code value="%"/>
               </high>
            </referenceRange>
         </Observation>
      </resource>
   </entry>
   <entry>
      <fullUrl value="urn:uuid:bb7679e1-913a-4fa7-9637-2bd7e4e3d606"/>
      <resource>
         <Observation>
            <id value="bb7679e1-913a-4fa7-9637-2bd7e4e3d606"/>
            <meta>
               <profile value="http://hl7.eu/fhir/laboratory/StructureDefinition/Observation-resultslab-eu-lab"/>
            </meta>
            <text>
               <status value="generated"/>
               <div xmlns="http://www.w3.org/1999/xhtml">
                  <table class="hl7__eu__lab__report">
                     <tr>
                        <th>Test</th>
                        <th>22-Jun-2017</th>
                        <th>Reference Range</th>
                        <th>Unit</th>
                     </tr>
                     <tr>
                        <td>MCV [Entitic volume] by Automated count</td>
                        <td>90.5</td>
                        <td>78 - 98</td>
                        <td/>
                        <td>fL</td>
                     </tr>
                  </table>
               </div>
            </text>
            <status value="final"/>
            <category>
               <coding>
                  <system value="http://terminology.hl7.org/CodeSystem/observation-category"/>
                  <code value="laboratory"/>
               </coding>
            </category>
            <code>
               <coding>
                  <system value="http://loinc.org"/>
                  <code value="787-2"/>
                  <display value="MCV [Entitic volume] by Automated count"/>
               </coding>
               <text value="MCV [Entitic volume] by Automated count"/>
            </code>
            <subject>
               <reference value="urn:uuid:44d79e8f-8eea-4690-99d0-f6512300033f"/>
               <display value="Magdolna Balog"/>
            </subject>
            <effectiveDateTime value="2017-06-22T05:58:05Z"/>
            <performer>
               <display value="The Central European Lab"/>
            </performer>
            <valueQuantity>
               <value value="90.5"/>
               <unit value="fL"/>
               <system value="http://unitsofmeasure.org"/>
               <code value="fL"/>
            </valueQuantity>
            <specimen>
               <reference value="urn:uuid:06aa68d4-10aa-4519-9513-c815de9422f1"/>
            </specimen>
            <referenceRange>
               <low>
                  <value value="78"/>
                  <system value="http://unitsofmeasure.org"/>
                  <code value="fL"/>
               </low>
            </referenceRange>
            <referenceRange>
               <high>
                  <value value="98"/>
                  <system value="http://unitsofmeasure.org"/>
                  <code value="fL"/>
               </high>
            </referenceRange>
         </Observation>
      </resource>
   </entry>
   <entry>
      <fullUrl value="urn:uuid:0b4311d1-36a5-4cb3-b008-c4cba67a0e70"/>
      <resource>
         <Observation>
            <id value="0b4311d1-36a5-4cb3-b008-c4cba67a0e70"/>
            <meta>
               <profile value="http://hl7.eu/fhir/laboratory/StructureDefinition/Observation-resultslab-eu-lab"/>
            </meta>
            <text>
               <status value="generated"/>
               <div xmlns="http://www.w3.org/1999/xhtml">
                  <table class="hl7__eu__lab__report">
                     <tr>
                        <th>Test</th>
                        <th>22-Jun-2017</th>
                        <th>Reference Range</th>
                        <th>Unit</th>
                     </tr>
                     <tr>
                        <td>MCH [Entitic mass] by Automated count</td>
                        <td>31.5</td>
                        <td>27 - 34.5</td>
                        <td/>
                        <td>pg</td>
                     </tr>
                  </table>
               </div>
            </text>
            <status value="final"/>
            <category>
               <coding>
                  <system value="http://terminology.hl7.org/CodeSystem/observation-category"/>
                  <code value="laboratory"/>
               </coding>
            </category>
            <code>
               <coding>
                  <system value="http://loinc.org"/>
                  <code value="785-6"/>
                  <display value="MCH [Entitic mass] by Automated count"/>
               </coding>
               <text value="MCH [Entitic mass] by Automated count"/>
            </code>
            <subject>
               <reference value="urn:uuid:44d79e8f-8eea-4690-99d0-f6512300033f"/>
               <display value="Magdolna Balog"/>
            </subject>
            <effectiveDateTime value="2017-06-22T05:58:05Z"/>
            <performer>
               <display value="The Central European Lab"/>
            </performer>
            <valueQuantity>
               <value value="31.5"/>
               <unit value="pg"/>
               <system value="http://unitsofmeasure.org"/>
               <code value="pg"/>
            </valueQuantity>
            <specimen>
               <reference value="urn:uuid:06aa68d4-10aa-4519-9513-c815de9422f1"/>
            </specimen>
            <referenceRange>
               <low>
                  <value value="27"/>
                  <system value="http://unitsofmeasure.org"/>
                  <code value="pg"/>
               </low>
            </referenceRange>
            <referenceRange>
               <high>
                  <value value="34.5"/>
                  <system value="http://unitsofmeasure.org"/>
                  <code value="pg"/>
               </high>
            </referenceRange>
         </Observation>
      </resource>
   </entry>
   <entry>
      <fullUrl value="urn:uuid:1696cf66-c122-4ab3-a7d7-2c30b23c44b0"/>
      <resource>
         <Observation>
            <id value="1696cf66-c122-4ab3-a7d7-2c30b23c44b0"/>
            <meta>
               <profile value="http://hl7.eu/fhir/laboratory/StructureDefinition/Observation-resultslab-eu-lab"/>
            </meta>
            <text>
               <status value="generated"/>
               <div xmlns="http://www.w3.org/1999/xhtml">
                  <table class="hl7__eu__lab__report">
                     <tr>
                        <th>Test</th>
                        <th>22-Jun-2017</th>
                        <th>Reference Range</th>
                        <th>Unit</th>
                     </tr>
                     <tr>
                        <td>MCHC [Mass/volume] by Automated count</td>
                        <td>35.1</td>
                        <td>31.5 - 35.5</td>
                        <td/>
                        <td>g/dL</td>
                     </tr>
                  </table>
               </div>
            </text>
            <status value="final"/>
            <category>
               <coding>
                  <system value="http://terminology.hl7.org/CodeSystem/observation-category"/>
                  <code value="laboratory"/>
               </coding>
            </category>
            <code>
               <coding>
                  <system value="http://loinc.org"/>
                  <code value="786-4"/>
                  <display value="MCHC [Mass/volume] by Automated count"/>
               </coding>
               <text value="MCHC [Mass/volume] by Automated count"/>
            </code>
            <subject>
               <reference value="urn:uuid:44d79e8f-8eea-4690-99d0-f6512300033f"/>
               <display value="Magdolna Balog"/>
            </subject>
            <effectiveDateTime value="2017-06-22T05:58:05Z"/>
            <performer>
               <display value="The Central European Lab"/>
            </performer>
            <valueQuantity>
               <value value="35.1"/>
               <unit value="g/dL"/>
               <system value="http://unitsofmeasure.org"/>
               <code value="g/dL"/>
            </valueQuantity>
            <specimen>
               <reference value="urn:uuid:06aa68d4-10aa-4519-9513-c815de9422f1"/>
            </specimen>
            <referenceRange>
               <low>
                  <value value="31.5"/>
                  <system value="http://unitsofmeasure.org"/>
                  <code value="g/dL"/>
               </low>
            </referenceRange>
            <referenceRange>
               <high>
                  <value value="35.5"/>
                  <system value="http://unitsofmeasure.org"/>
                  <code value="g/dL"/>
               </high>
            </referenceRange>
         </Observation>
      </resource>
   </entry>
   <entry>
      <fullUrl value="urn:uuid:d071c85e-5523-478e-864b-01799e77b3fe"/>
      <resource>
         <Observation>
            <id value="d071c85e-5523-478e-864b-01799e77b3fe"/>
            <meta>
               <profile value="http://hl7.eu/fhir/laboratory/StructureDefinition/Observation-resultslab-eu-lab"/>
            </meta>
            <text>
               <status value="generated"/>
               <div xmlns="http://www.w3.org/1999/xhtml">
                  <table class="hl7__eu__lab__report">
                     <tr>
                        <th>Test</th>
                        <th>22-Jun-2017</th>
                        <th>Reference Range</th>
                        <th>Unit</th>
                     </tr>
                     <tr>
                        <td>Erythrocyte distribution width [Ratio] by Automated count</td>
                        <td>12.4</td>
                        <td>11.5 - 16</td>
                        <td/>
                        <td>%</td>
                     </tr>
                  </table>
               </div>
            </text>
            <status value="final"/>
            <category>
               <coding>
                  <system value="http://terminology.hl7.org/CodeSystem/observation-category"/>
                  <code value="laboratory"/>
               </coding>
            </category>
            <code>
               <coding>
                  <system value="http://loinc.org"/>
                  <code value="788-0"/>
                  <display value="Erythrocyte distribution width [Ratio] by Automated count"/>
               </coding>
               <text value="Erythrocyte distribution width [Ratio] by Automated count"/>
            </code>
            <subject>
               <reference value="urn:uuid:44d79e8f-8eea-4690-99d0-f6512300033f"/>
               <display value="Magdolna Balog"/>
            </subject>
            <effectiveDateTime value="2017-06-22T05:58:05Z"/>
            <performer>
               <display value="The Central European Lab"/>
            </performer>
            <valueQuantity>
               <value value="12.4"/>
               <unit value="%"/>
               <system value="http://unitsofmeasure.org"/>
               <code value="%"/>
            </valueQuantity>
            <specimen>
               <reference value="urn:uuid:06aa68d4-10aa-4519-9513-c815de9422f1"/>
            </specimen>
            <referenceRange>
               <low>
                  <value value="11.5"/>
                  <system value="http://unitsofmeasure.org"/>
                  <code value="%"/>
               </low>
            </referenceRange>
            <referenceRange>
               <high>
                  <value value="16"/>
                  <system value="http://unitsofmeasure.org"/>
                  <code value="%"/>
               </high>
            </referenceRange>
         </Observation>
      </resource>
   </entry>
   <entry>
      <fullUrl value="urn:uuid:de653022-30fd-47ba-bc5a-75bc90d9d8fa"/>
      <resource>
         <Observation>
            <id value="de653022-30fd-47ba-bc5a-75bc90d9d8fa"/>
            <meta>
               <profile value="http://hl7.eu/fhir/laboratory/StructureDefinition/Observation-resultslab-eu-lab"/>
            </meta>
            <text>
               <status value="generated"/>
               <div xmlns="http://www.w3.org/1999/xhtml">
                  <table class="hl7__eu__lab__report">
                     <tr>
                        <th>Test</th>
                        <th>22-Jun-2017</th>
                        <th>Reference Range</th>
                        <th>Unit</th>
                     </tr>
                     <tr>
                        <td>Platelets [#/volume] in Blood by Automated count</td>
                        <td>359.2</td>
                        <td>150 - 350</td>
                        <td>H</td>
                        <td>10*3/uL</td>
                     </tr>
                  </table>
               </div>
            </text>
            <status value="final"/>
            <category>
               <coding>
                  <system value="http://terminology.hl7.org/CodeSystem/observation-category"/>
                  <code value="laboratory"/>
               </coding>
            </category>
            <code>
               <coding>
                  <system value="http://loinc.org"/>
                  <code value="777-3"/>
                  <display value="Platelets [#/volume] in Blood by Automated count"/>
               </coding>
               <text value="Platelets [#/volume] in Blood by Automated count"/>
            </code>
            <subject>
               <reference value="urn:uuid:44d79e8f-8eea-4690-99d0-f6512300033f"/>
               <display value="Magdolna Balog"/>
            </subject>
            <effectiveDateTime value="2017-06-22T05:58:05Z"/>
            <performer>
               <display value="The Central European Lab"/>
            </performer>
            <valueQuantity>
               <value value="359.2"/>
               <unit value="10*3/uL"/>
               <system value="http://unitsofmeasure.org"/>
               <code value="10*3/uL"/>
            </valueQuantity>
            <interpretation>
               <coding>
                  <system value="http://terminology.hl7.org/CodeSystem/v3-ObservationInterpretation"/>
                  <code value="H"/>
                  <display value="High"/>
               </coding>
            </interpretation>
            <specimen>
               <reference value="urn:uuid:06aa68d4-10aa-4519-9513-c815de9422f1"/>
            </specimen>
            <referenceRange>
               <low>
                  <value value="150"/>
                  <system value="http://unitsofmeasure.org"/>
                  <code value="10*3/uL"/>
               </low>
            </referenceRange>
            <referenceRange>
               <high>
                  <value value="350"/>
                  <system value="http://unitsofmeasure.org"/>
                  <code value="10*3/uL"/>
               </high>
            </referenceRange>
         </Observation>
      </resource>
   </entry>
   <entry>
      <fullUrl value="urn:uuid:2bc666e9-ecc8-435e-b34c-624d3b0727f2"/>
      <resource>
         <Observation>
            <id value="2bc666e9-ecc8-435e-b34c-624d3b0727f2"/>
            <meta>
               <profile value="http://hl7.eu/fhir/laboratory/StructureDefinition/Observation-resultslab-eu-lab"/>
            </meta>
            <text>
               <status value="generated"/>
               <div xmlns="http://www.w3.org/1999/xhtml">
                  <table class="hl7__eu__lab__report">
                     <tr>
                        <th>Test</th>
                        <th>22-Jun-2017</th>
                        <th>Reference Range</th>
                        <th>Unit</th>
                     </tr>
                     <tr>
                        <td>Glucose [Mass/volume] in Serum or Plasma</td>
                        <td>98.3</td>
                        <td>70 - 140</td>
                        <td/>
                        <td>mg/dL</td>
                     </tr>
                  </table>
               </div>
            </text>
            <status value="final"/>
            <category>
               <coding>
                  <system value="http://terminology.hl7.org/CodeSystem/observation-category"/>
                  <code value="laboratory"/>
               </coding>
            </category>
            <code>
               <coding>
                  <system value="http://loinc.org"/>
                  <code value="2345-7"/>
                  <display value="Glucose [Mass/volume] in Serum or Plasma"/>
               </coding>
               <text value="Glucose [Mass/volume] in Serum or Plasma"/>
            </code>
            <subject>
               <reference value="urn:uuid:44d79e8f-8eea-4690-99d0-f6512300033f"/>
               <display value="Magdolna Balog"/>
            </subject>
            <effectiveDateTime value="2017-06-22T05:58:05Z"/>
            <performer>
               <display value="The Central European Lab"/>
            </performer>
            <valueQuantity>
               <value value="98.3"/>
               <unit value="mg/dL"/>
               <system value="http://unitsofmeasure.org"/>
               <code value="mg/dL"/>
            </valueQuantity>
            <specimen>
               <reference value="urn:uuid:cc8eb198-a8e3-4342-8de3-941947692bea"/>
            </specimen>
            <referenceRange>
               <low>
                  <value value="70"/>
                  <system value="http://unitsofmeasure.org"/>
                  <code value="mg/dL"/>
               </low>
            </referenceRange>
            <referenceRange>
               <high>
                  <value value="140"/>
                  <system value="http://unitsofmeasure.org"/>
                  <code value="mg/dL"/>
               </high>
            </referenceRange>
         </Observation>
      </resource>
   </entry>
   <entry>
      <fullUrl value="urn:uuid:3234cedd-961e-4bc9-bdb8-41cb163717c0"/>
      <resource>
         <Observation>
            <id value="3234cedd-961e-4bc9-bdb8-41cb163717c0"/>
            <meta>
               <profile value="http://hl7.eu/fhir/laboratory/StructureDefinition/Observation-resultslab-eu-lab"/>
            </meta>
            <text>
               <status value="generated"/>
               <div xmlns="http://www.w3.org/1999/xhtml">
                  <table class="hl7__eu__lab__report">
                     <tr>
                        <th>Test</th>
                        <th>22-Jun-2017</th>
                        <th>Reference Range</th>
                        <th>Unit</th>
                     </tr>
                     <tr>
                        <td>Urea nitrogen [Mass/volume] in Serum or Plasma</td>
                        <td>18.7</td>
                        <td>7 - 25</td>
                        <td/>
                        <td>mg/dL</td>
                     </tr>
                  </table>
               </div>
            </text>
            <status value="final"/>
            <category>
               <coding>
                  <system value="http://terminology.hl7.org/CodeSystem/observation-category"/>
                  <code value="laboratory"/>
               </coding>
            </category>
            <code>
               <coding>
                  <system value="http://loinc.org"/>
                  <code value="3094-0"/>
                  <display value="Urea nitrogen [Mass/volume] in Serum or Plasma"/>
               </coding>
               <text value="Urea nitrogen [Mass/volume] in Serum or Plasma"/>
            </code>
            <subject>
               <reference value="urn:uuid:44d79e8f-8eea-4690-99d0-f6512300033f"/>
               <display value="Magdolna Balog"/>
            </subject>
            <effectiveDateTime value="2017-06-22T05:58:05Z"/>
            <performer>
               <display value="The Central European Lab"/>
            </performer>
            <valueQuantity>
               <value value="18.7"/>
               <unit value="mg/dL"/>
               <system value="http://unitsofmeasure.org"/>
               <code value="mg/dL"/>
            </valueQuantity>
            <specimen>
               <reference value="urn:uuid:cc8eb198-a8e3-4342-8de3-941947692bea"/>
            </specimen>
            <referenceRange>
               <low>
                  <value value="7"/>
                  <system value="http://unitsofmeasure.org"/>
                  <code value="mg/dL"/>
               </low>
            </referenceRange>
            <referenceRange>
               <high>
                  <value value="25"/>
                  <system value="http://unitsofmeasure.org"/>
                  <code value="mg/dL"/>
               </high>
            </referenceRange>
         </Observation>
      </resource>
   </entry>
   <entry>
      <fullUrl value="urn:uuid:0584b376-de9f-4b3f-9bf1-21ea1cbb5c59"/>
      <resource>
         <Observation>
            <id value="0584b376-de9f-4b3f-9bf1-21ea1cbb5c59"/>
            <meta>
               <profile value="http://hl7.eu/fhir/laboratory/StructureDefinition/Observation-resultslab-eu-lab"/>
            </meta>
            <text>
               <status value="generated"/>
               <div xmlns="http://www.w3.org/1999/xhtml">
                  <table class="hl7__eu__lab__report">
                     <tr>
                        <th>Test</th>
                        <th>22-Jun-2017</th>
                        <th>Reference Range</th>
                        <th>Unit</th>
                     </tr>
                     <tr>
                        <td>Creatinine [Mass/volume] in Serum or Plasma</td>
                        <td>2.6</td>
                        <td>0.6 - 1.1</td>
                        <td>H</td>
                        <td>mg/dL</td>
                     </tr>
                  </table>
               </div>
            </text>
            <status value="final"/>
            <category>
               <coding>
                  <system value="http://terminology.hl7.org/CodeSystem/observation-category"/>
                  <code value="laboratory"/>
               </coding>
            </category>
            <code>
               <coding>
                  <system value="http://loinc.org"/>
                  <code value="2160-0"/>
                  <display value="Creatinine [Mass/volume] in Serum or Plasma"/>
               </coding>
               <text value="Creatinine [Mass/volume] in Serum or Plasma"/>
            </code>
            <subject>
               <reference value="urn:uuid:44d79e8f-8eea-4690-99d0-f6512300033f"/>
               <display value="Magdolna Balog"/>
            </subject>
            <effectiveDateTime value="2017-06-22T05:58:05Z"/>
            <performer>
               <display value="The Central European Lab"/>
            </performer>
            <valueQuantity>
               <value value="2.6"/>
               <unit value="mg/dL"/>
               <system value="http://unitsofmeasure.org"/>
               <code value="mg/dL"/>
            </valueQuantity>
            <interpretation>
               <coding>
                  <system value="http://terminology.hl7.org/CodeSystem/v3-ObservationInterpretation"/>
                  <code value="H"/>
                  <display value="High"/>
               </coding>
            </interpretation>
            <specimen>
               <reference value="urn:uuid:cc8eb198-a8e3-4342-8de3-941947692bea"/>
            </specimen>
            <referenceRange>
               <low>
                  <value value="0.6"/>
                  <system value="http://unitsofmeasure.org"/>
                  <code value="mg/dL"/>
               </low>
            </referenceRange>
            <referenceRange>
               <high>
                  <value value="1.1"/>
                  <system value="http://unitsofmeasure.org"/>
                  <code value="mg/dL"/>
               </high>
            </referenceRange>
         </Observation>
      </resource>
   </entry>
   <entry>
      <fullUrl value="urn:uuid:d04e52b5-1f38-4b1b-9e76-6c1a1e136c69"/>
      <resource>
         <Observation>
            <id value="d04e52b5-1f38-4b1b-9e76-6c1a1e136c69"/>
            <meta>
               <profile value="http://hl7.eu/fhir/laboratory/StructureDefinition/Observation-resultslab-eu-lab"/>
            </meta>
            <text>
               <status value="generated"/>
               <div xmlns="http://www.w3.org/1999/xhtml">
                  <table class="hl7__eu__lab__report">
                     <tr>
                        <th>Test</th>
                        <th>22-Jun-2017</th>
                        <th>Reference Range</th>
                        <th>Unit</th>
                     </tr>
                     <tr>
                        <td>Calcium [Mass/volume] in Serum or Plasma</td>
                        <td>9.2</td>
                        <td>8.5 - 10.4</td>
                        <td/>
                        <td>mg/dL</td>
                     </tr>
                  </table>
               </div>
            </text>
            <status value="final"/>
            <category>
               <coding>
                  <system value="http://terminology.hl7.org/CodeSystem/observation-category"/>
                  <code value="laboratory"/>
               </coding>
            </category>
            <code>
               <coding>
                  <system value="http://loinc.org"/>
                  <code value="17861-6"/>
                  <display value="Calcium [Mass/volume] in Serum or Plasma"/>
               </coding>
               <text value="Calcium [Mass/volume] in Serum or Plasma"/>
            </code>
            <subject>
               <reference value="urn:uuid:44d79e8f-8eea-4690-99d0-f6512300033f"/>
               <display value="Magdolna Balog"/>
            </subject>
            <effectiveDateTime value="2017-06-22T05:58:05Z"/>
            <performer>
               <display value="The Central European Lab"/>
            </performer>
            <valueQuantity>
               <value value="9.2"/>
               <unit value="mg/dL"/>
               <system value="http://unitsofmeasure.org"/>
               <code value="mg/dL"/>
            </valueQuantity>
            <specimen>
               <reference value="urn:uuid:cc8eb198-a8e3-4342-8de3-941947692bea"/>
            </specimen>
            <referenceRange>
               <low>
                  <value value="8.5"/>
                  <system value="http://unitsofmeasure.org"/>
                  <code value="mg/dL"/>
               </low>
            </referenceRange>
            <referenceRange>
               <high>
                  <value value="10.4"/>
                  <system value="http://unitsofmeasure.org"/>
                  <code value="mg/dL"/>
               </high>
            </referenceRange>
         </Observation>
      </resource>
   </entry>
   <entry>
      <fullUrl value="urn:uuid:dc7f1f6d-200c-421a-8578-cf64f167c478"/>
      <resource>
         <Observation>
            <id value="dc7f1f6d-200c-421a-8578-cf64f167c478"/>
            <meta>
               <profile value="http://hl7.eu/fhir/laboratory/StructureDefinition/Observation-resultslab-eu-lab"/>
            </meta>
            <text>
               <status value="generated"/>
               <div xmlns="http://www.w3.org/1999/xhtml">
                  <table class="hl7__eu__lab__report">
                     <tr>
                        <th>Test</th>
                        <th>22-Jun-2017</th>
                        <th>Reference Range</th>
                        <th>Unit</th>
                     </tr>
                     <tr>
                        <td>Sodium [Moles/volume] in Serum or Plasma</td>
                        <td>143.9</td>
                        <td>135 - 145</td>
                        <td/>
                        <td>mmol/L</td>
                     </tr>
                  </table>
               </div>
            </text>
            <status value="final"/>
            <category>
               <coding>
                  <system value="http://terminology.hl7.org/CodeSystem/observation-category"/>
                  <code value="laboratory"/>
               </coding>
            </category>
            <code>
               <coding>
                  <system value="http://loinc.org"/>
                  <code value="2951-2"/>
                  <display value="Sodium [Moles/volume] in Serum or Plasma"/>
               </coding>
               <text value="Sodium [Moles/volume] in Serum or Plasma"/>
            </code>
            <subject>
               <reference value="urn:uuid:44d79e8f-8eea-4690-99d0-f6512300033f"/>
               <display value="Magdolna Balog"/>
            </subject>
            <effectiveDateTime value="2017-06-22T05:58:05Z"/>
            <performer>
               <display value="The Central European Lab"/>
            </performer>
            <valueQuantity>
               <value value="143.9"/>
               <unit value="mmol/L"/>
               <system value="http://unitsofmeasure.org"/>
               <code value="mmol/L"/>
            </valueQuantity>
            <specimen>
               <reference value="urn:uuid:cc8eb198-a8e3-4342-8de3-941947692bea"/>
            </specimen>
            <referenceRange>
               <low>
                  <value value="135"/>
                  <system value="http://unitsofmeasure.org"/>
                  <code value="mmol/L"/>
               </low>
            </referenceRange>
            <referenceRange>
               <high>
                  <value value="145"/>
                  <system value="http://unitsofmeasure.org"/>
                  <code value="mmol/L"/>
               </high>
            </referenceRange>
         </Observation>
      </resource>
   </entry>
   <entry>
      <fullUrl value="urn:uuid:9b495369-1ec4-45e5-ac09-06ba6334bc85"/>
      <resource>
         <Observation>
            <id value="9b495369-1ec4-45e5-ac09-06ba6334bc85"/>
            <meta>
               <profile value="http://hl7.eu/fhir/laboratory/StructureDefinition/Observation-resultslab-eu-lab"/>
            </meta>
            <text>
               <status value="generated"/>
               <div xmlns="http://www.w3.org/1999/xhtml">
                  <table class="hl7__eu__lab__report">
                     <tr>
                        <th>Test</th>
                        <th>22-Jun-2017</th>
                        <th>Reference Range</th>
                        <th>Unit</th>
                     </tr>
                     <tr>
                        <td>Potassium [Moles/volume] in Serum or Plasma</td>
                        <td>4.5</td>
                        <td>3.5 - 5.3</td>
                        <td/>
                        <td>mmol/L</td>
                     </tr>
                  </table>
               </div>
            </text>
            <status value="final"/>
            <category>
               <coding>
                  <system value="http://terminology.hl7.org/CodeSystem/observation-category"/>
                  <code value="laboratory"/>
               </coding>
            </category>
            <code>
               <coding>
                  <system value="http://loinc.org"/>
                  <code value="2823-3"/>
                  <display value="Potassium [Moles/volume] in Serum or Plasma"/>
               </coding>
               <text value="Potassium [Moles/volume] in Serum or Plasma"/>
            </code>
            <subject>
               <reference value="urn:uuid:44d79e8f-8eea-4690-99d0-f6512300033f"/>
               <display value="Magdolna Balog"/>
            </subject>
            <effectiveDateTime value="2017-06-22T05:58:05Z"/>
            <performer>
               <display value="The Central European Lab"/>
            </performer>
            <valueQuantity>
               <value value="4.5"/>
               <unit value="mmol/L"/>
               <system value="http://unitsofmeasure.org"/>
               <code value="mmol/L"/>
            </valueQuantity>
            <specimen>
               <reference value="urn:uuid:cc8eb198-a8e3-4342-8de3-941947692bea"/>
            </specimen>
            <referenceRange>
               <low>
                  <value value="3.5"/>
                  <system value="http://unitsofmeasure.org"/>
                  <code value="mmol/L"/>
               </low>
            </referenceRange>
            <referenceRange>
               <high>
                  <value value="5.3"/>
                  <system value="http://unitsofmeasure.org"/>
                  <code value="mmol/L"/>
               </high>
            </referenceRange>
         </Observation>
      </resource>
   </entry>
   <entry>
      <fullUrl value="urn:uuid:a1e21ae9-7146-49ea-a58d-aa28ae14a2bc"/>
      <resource>
         <Observation>
            <id value="a1e21ae9-7146-49ea-a58d-aa28ae14a2bc"/>
            <meta>
               <profile value="http://hl7.eu/fhir/laboratory/StructureDefinition/Observation-resultslab-eu-lab"/>
            </meta>
            <text>
               <status value="generated"/>
               <div xmlns="http://www.w3.org/1999/xhtml">
                  <table class="hl7__eu__lab__report">
                     <tr>
                        <th>Test</th>
                        <th>22-Jun-2017</th>
                        <th>Reference Range</th>
                        <th>Unit</th>
                     </tr>
                     <tr>
                        <td>Chloride [Moles/volume] in Serum or Plasma</td>
                        <td>102.7</td>
                        <td>98 - 108</td>
                        <td/>
                        <td>mmol/L</td>
                     </tr>
                  </table>
               </div>
            </text>
            <status value="final"/>
            <category>
               <coding>
                  <system value="http://terminology.hl7.org/CodeSystem/observation-category"/>
                  <code value="laboratory"/>
               </coding>
            </category>
            <code>
               <coding>
                  <system value="http://loinc.org"/>
                  <code value="2075-0"/>
                  <display value="Chloride [Moles/volume] in Serum or Plasma"/>
               </coding>
               <text value="Chloride [Moles/volume] in Serum or Plasma"/>
            </code>
            <subject>
               <reference value="urn:uuid:44d79e8f-8eea-4690-99d0-f6512300033f"/>
               <display value="Magdolna Balog"/>
            </subject>
            <effectiveDateTime value="2017-06-22T05:58:05Z"/>
            <performer>
               <display value="The Central European Lab"/>
            </performer>
            <valueQuantity>
               <value value="102.7"/>
               <unit value="mmol/L"/>
               <system value="http://unitsofmeasure.org"/>
               <code value="mmol/L"/>
            </valueQuantity>
            <specimen>
               <reference value="urn:uuid:cc8eb198-a8e3-4342-8de3-941947692bea"/>
            </specimen>
            <referenceRange>
               <low>
                  <value value="98"/>
                  <system value="http://unitsofmeasure.org"/>
                  <code value="mmol/L"/>
               </low>
            </referenceRange>
            <referenceRange>
               <high>
                  <value value="108"/>
                  <system value="http://unitsofmeasure.org"/>
                  <code value="mmol/L"/>
               </high>
            </referenceRange>
         </Observation>
      </resource>
   </entry>
   <entry>
      <fullUrl value="urn:uuid:4c4e9e10-8202-41b6-9a73-4f919d67b187"/>
      <resource>
         <Observation>
            <id value="4c4e9e10-8202-41b6-9a73-4f919d67b187"/>
            <meta>
               <profile value="http://hl7.eu/fhir/laboratory/StructureDefinition/Observation-resultslab-eu-lab"/>
            </meta>
            <text>
               <status value="generated"/>
               <div xmlns="http://www.w3.org/1999/xhtml">
                  <table class="hl7__eu__lab__report">
                     <tr>
                        <th>Test</th>
                        <th>22-Jun-2017</th>
                        <th>Reference Range</th>
                        <th>Unit</th>
                     </tr>
                     <tr>
                        <td>Carbon dioxide, total [Moles/volume] in Serum or Plasma</td>
                        <td>21.3</td>
                        <td>22 - 29</td>
                        <td>L</td>
                        <td>mmol/L</td>
                     </tr>
                  </table>
               </div>
            </text>
            <status value="final"/>
            <category>
               <coding>
                  <system value="http://terminology.hl7.org/CodeSystem/observation-category"/>
                  <code value="laboratory"/>
               </coding>
            </category>
            <code>
               <coding>
                  <system value="http://loinc.org"/>
                  <code value="2028-9"/>
                  <display value="Carbon dioxide, total [Moles/volume] in Serum or Plasma"/>
               </coding>
               <text value="Carbon dioxide, total [Moles/volume] in Serum or Plasma"/>
            </code>
            <subject>
               <reference value="urn:uuid:44d79e8f-8eea-4690-99d0-f6512300033f"/>
               <display value="Magdolna Balog"/>
            </subject>
            <effectiveDateTime value="2017-06-22T05:58:05Z"/>
            <performer>
               <display value="The Central European Lab"/>
            </performer>
            <valueQuantity>
               <value value="21.3"/>
               <unit value="mmol/L"/>
               <system value="http://unitsofmeasure.org"/>
               <code value="mmol/L"/>
            </valueQuantity>
            <interpretation>
               <coding>
                  <system value="http://terminology.hl7.org/CodeSystem/v3-ObservationInterpretation"/>
                  <code value="L"/>
                  <display value="Low"/>
               </coding>
            </interpretation>
            <specimen>
               <reference value="urn:uuid:cc8eb198-a8e3-4342-8de3-941947692bea"/>
            </specimen>
            <referenceRange>
               <low>
                  <value value="22"/>
                  <system value="http://unitsofmeasure.org"/>
                  <code value="mmol/L"/>
               </low>
            </referenceRange>
            <referenceRange>
               <high>
                  <value value="29"/>
                  <system value="http://unitsofmeasure.org"/>
                  <code value="mmol/L"/>
               </high>
            </referenceRange>
         </Observation>
      </resource>
   </entry>
   <entry>
      <fullUrl value="urn:uuid:38155b9f-816d-4305-b6b9-5d4cacdcdde9"/>
      <resource>
         <Observation>
            <id value="38155b9f-816d-4305-b6b9-5d4cacdcdde9"/>
            <meta>
               <profile value="http://hl7.eu/fhir/laboratory/StructureDefinition/Observation-resultslab-eu-lab"/>
            </meta>
            <text>
               <status value="generated"/>
               <div xmlns="http://www.w3.org/1999/xhtml">
                  <table class="hl7__eu__lab__report">
                     <tr>
                        <th>Test</th>
                        <th>22-Jun-2017</th>
                        <th>Reference Range</th>
                        <th>Unit</th>
                     </tr>
                     <tr>
                        <td>Protein [Mass/volume] in Serum or Plasma</td>
                        <td>7.8</td>
                        <td>6 - 8.3</td>
                        <td/>
                        <td>g/dL</td>
                     </tr>
                  </table>
               </div>
            </text>
            <status value="final"/>
            <category>
               <coding>
                  <system value="http://terminology.hl7.org/CodeSystem/observation-category"/>
                  <code value="laboratory"/>
               </coding>
            </category>
            <code>
               <coding>
                  <system value="http://loinc.org"/>
                  <code value="2885-2"/>
                  <display value="Protein [Mass/volume] in Serum or Plasma"/>
               </coding>
               <text value="Protein [Mass/volume] in Serum or Plasma"/>
            </code>
            <subject>
               <reference value="urn:uuid:44d79e8f-8eea-4690-99d0-f6512300033f"/>
               <display value="Magdolna Balog"/>
            </subject>
            <effectiveDateTime value="2017-06-22T05:58:05Z"/>
            <performer>
               <display value="The Central European Lab"/>
            </performer>
            <valueQuantity>
               <value value="7.8"/>
               <unit value="g/dL"/>
               <system value="http://unitsofmeasure.org"/>
               <code value="g/dL"/>
            </valueQuantity>
            <specimen>
               <reference value="urn:uuid:cc8eb198-a8e3-4342-8de3-941947692bea"/>
            </specimen>
            <referenceRange>
               <low>
                  <value value="6"/>
                  <system value="http://unitsofmeasure.org"/>
                  <code value="g/dL"/>
               </low>
            </referenceRange>
            <referenceRange>
               <high>
                  <value value="8.3"/>
                  <system value="http://unitsofmeasure.org"/>
                  <code value="g/dL"/>
               </high>
            </referenceRange>
         </Observation>
      </resource>
   </entry>
   <entry>
      <fullUrl value="urn:uuid:5cb37239-e2e5-4589-af14-4f6c1517260f"/>
      <resource>
         <Observation>
            <id value="5cb37239-e2e5-4589-af14-4f6c1517260f"/>
            <meta>
               <profile value="http://hl7.eu/fhir/laboratory/StructureDefinition/Observation-resultslab-eu-lab"/>
            </meta>
            <text>
               <status value="generated"/>
               <div xmlns="http://www.w3.org/1999/xhtml">
                  <table class="hl7__eu__lab__report">
                     <tr>
                        <th>Test</th>
                        <th>22-Jun-2017</th>
                        <th>Reference Range</th>
                        <th>Unit</th>
                     </tr>
                     <tr>
                        <td>Albumin [Mass/volume] in Serum or Plasma</td>
                        <td>4.7</td>
                        <td>3.5 - 5.5</td>
                        <td/>
                        <td>g/dL</td>
                     </tr>
                  </table>
               </div>
            </text>
            <status value="final"/>
            <category>
               <coding>
                  <system value="http://terminology.hl7.org/CodeSystem/observation-category"/>
                  <code value="laboratory"/>
               </coding>
            </category>
            <code>
               <coding>
                  <system value="http://loinc.org"/>
                  <code value="1751-7"/>
                  <display value="Albumin [Mass/volume] in Serum or Plasma"/>
               </coding>
               <text value="Albumin [Mass/volume] in Serum or Plasma"/>
            </code>
            <subject>
               <reference value="urn:uuid:44d79e8f-8eea-4690-99d0-f6512300033f"/>
               <display value="Magdolna Balog"/>
            </subject>
            <effectiveDateTime value="2017-06-22T05:58:05Z"/>
            <performer>
               <display value="The Central European Lab"/>
            </performer>
            <valueQuantity>
               <value value="4.7"/>
               <unit value="g/dL"/>
               <system value="http://unitsofmeasure.org"/>
               <code value="g/dL"/>
            </valueQuantity>
            <specimen>
               <reference value="urn:uuid:cc8eb198-a8e3-4342-8de3-941947692bea"/>
            </specimen>
            <referenceRange>
               <low>
                  <value value="3.5"/>
                  <system value="http://unitsofmeasure.org"/>
                  <code value="g/dL"/>
               </low>
            </referenceRange>
            <referenceRange>
               <high>
                  <value value="5.5"/>
                  <system value="http://unitsofmeasure.org"/>
                  <code value="g/dL"/>
               </high>
            </referenceRange>
         </Observation>
      </resource>
   </entry>
   <entry>
      <fullUrl value="urn:uuid:f84081a0-ed66-420c-abe8-4b4108792fa4"/>
      <resource>
         <Observation>
            <id value="f84081a0-ed66-420c-abe8-4b4108792fa4"/>
            <meta>
               <profile value="http://hl7.eu/fhir/laboratory/StructureDefinition/Observation-resultslab-eu-lab"/>
            </meta>
            <text>
               <status value="generated"/>
               <div xmlns="http://www.w3.org/1999/xhtml">
                  <table class="hl7__eu__lab__report">
                     <tr>
                        <th>Test</th>
                        <th>22-Jun-2017</th>
                        <th>Reference Range</th>
                        <th>Unit</th>
                     </tr>
                     <tr>
                        <td>Bilirubin.total [Mass/volume] in Serum or Plasma</td>
                        <td>14.1</td>
                        <td>0.3 - 1.2</td>
                        <td>H</td>
                        <td>mg/dL</td>
                     </tr>
                  </table>
               </div>
            </text>
            <status value="final"/>
            <category>
               <coding>
                  <system value="http://terminology.hl7.org/CodeSystem/observation-category"/>
                  <code value="laboratory"/>
               </coding>
            </category>
            <code>
               <coding>
                  <system value="http://loinc.org"/>
                  <code value="1975-2"/>
                  <display value="Bilirubin.total [Mass/volume] in Serum or Plasma"/>
               </coding>
               <text value="Bilirubin.total [Mass/volume] in Serum or Plasma"/>
            </code>
            <subject>
               <reference value="urn:uuid:44d79e8f-8eea-4690-99d0-f6512300033f"/>
               <display value="Magdolna Balog"/>
            </subject>
            <effectiveDateTime value="2017-06-22T05:58:05Z"/>
            <performer>
               <display value="The Central European Lab"/>
            </performer>
            <valueQuantity>
               <value value="14.1"/>
               <unit value="mg/dL"/>
               <system value="http://unitsofmeasure.org"/>
               <code value="mg/dL"/>
            </valueQuantity>
            <interpretation>
               <coding>
                  <system value="http://terminology.hl7.org/CodeSystem/v3-ObservationInterpretation"/>
                  <code value="H"/>
                  <display value="High"/>
               </coding>
            </interpretation>
            <specimen>
               <reference value="urn:uuid:cc8eb198-a8e3-4342-8de3-941947692bea"/>
            </specimen>
            <referenceRange>
               <low>
                  <value value="0.3"/>
                  <system value="http://unitsofmeasure.org"/>
                  <code value="mg/dL"/>
               </low>
            </referenceRange>
            <referenceRange>
               <high>
                  <value value="1.2"/>
                  <system value="http://unitsofmeasure.org"/>
                  <code value="mg/dL"/>
               </high>
            </referenceRange>
         </Observation>
      </resource>
   </entry>
   <entry>
      <fullUrl value="urn:uuid:03450d18-5105-4b38-98a6-20d19c0bd6af"/>
      <resource>
         <Observation>
            <id value="03450d18-5105-4b38-98a6-20d19c0bd6af"/>
            <meta>
               <profile value="http://hl7.eu/fhir/laboratory/StructureDefinition/Observation-resultslab-eu-lab"/>
            </meta>
            <text>
               <status value="generated"/>
               <div xmlns="http://www.w3.org/1999/xhtml">
                  <table class="hl7__eu__lab__report">
                     <tr>
                        <th>Test</th>
                        <th>22-Jun-2017</th>
                        <th>Reference Range</th>
                        <th>Unit</th>
                     </tr>
                     <tr>
                        <td>Alkaline phosphatase [Enzymatic activity/volume] in Serum or Plasma</td>
                        <td>115.9</td>
                        <td>35 - 270</td>
                        <td/>
                        <td>U/L</td>
                     </tr>
                  </table>
               </div>
            </text>
            <status value="final"/>
            <category>
               <coding>
                  <system value="http://terminology.hl7.org/CodeSystem/observation-category"/>
                  <code value="laboratory"/>
               </coding>
            </category>
            <code>
               <coding>
                  <system value="http://loinc.org"/>
                  <code value="6768-6"/>
                  <display value="Alkaline phosphatase [Enzymatic activity/volume] in Serum or Plasma"/>
               </coding>
               <text value="Alkaline phosphatase [Enzymatic activity/volume] in Serum or Plasma"/>
            </code>
            <subject>
               <reference value="urn:uuid:44d79e8f-8eea-4690-99d0-f6512300033f"/>
               <display value="Magdolna Balog"/>
            </subject>
            <effectiveDateTime value="2017-06-22T05:58:05Z"/>
            <performer>
               <display value="The Central European Lab"/>
            </performer>
            <valueQuantity>
               <value value="115.9"/>
               <unit value="U/L"/>
               <system value="http://unitsofmeasure.org"/>
               <code value="U/L"/>
            </valueQuantity>
            <specimen>
               <reference value="urn:uuid:cc8eb198-a8e3-4342-8de3-941947692bea"/>
            </specimen>
            <referenceRange>
               <low>
                  <value value="35"/>
                  <system value="http://unitsofmeasure.org"/>
                  <code value="U/L"/>
               </low>
            </referenceRange>
            <referenceRange>
               <high>
                  <value value="270"/>
                  <system value="http://unitsofmeasure.org"/>
                  <code value="U/L"/>
               </high>
            </referenceRange>
         </Observation>
      </resource>
   </entry>
   <entry>
      <fullUrl value="urn:uuid:1a9d9869-0ac3-47f5-ba6b-f99ddc4eda83"/>
      <resource>
         <Observation>
            <id value="1a9d9869-0ac3-47f5-ba6b-f99ddc4eda83"/>
            <meta>
               <profile value="http://hl7.eu/fhir/laboratory/StructureDefinition/Observation-resultslab-eu-lab"/>
            </meta>
            <text>
               <status value="generated"/>
               <div xmlns="http://www.w3.org/1999/xhtml">
                  <table class="hl7__eu__lab__report">
                     <tr>
                        <th>Test</th>
                        <th>22-Jun-2017</th>
                        <th>Reference Range</th>
                        <th>Unit</th>
                     </tr>
                     <tr>
                        <td>Alanine aminotransferase [Enzymatic activity/volume] in Serum or Plasma</td>
                        <td>2.0</td>
                        <td>7 - 60</td>
                        <td>L</td>
                        <td>U/L</td>
                     </tr>
                  </table>
               </div>
            </text>
            <status value="final"/>
            <category>
               <coding>
                  <system value="http://terminology.hl7.org/CodeSystem/observation-category"/>
                  <code value="laboratory"/>
               </coding>
            </category>
            <code>
               <coding>
                  <system value="http://loinc.org"/>
                  <code value="1742-6"/>
                  <display value="Alanine aminotransferase [Enzymatic activity/volume] in Serum or Plasma"/>
               </coding>
               <text value="Alanine aminotransferase [Enzymatic activity/volume] in Serum or Plasma"/>
            </code>
            <subject>
               <reference value="urn:uuid:44d79e8f-8eea-4690-99d0-f6512300033f"/>
               <display value="Magdolna Balog"/>
            </subject>
            <effectiveDateTime value="2017-06-22T05:58:05Z"/>
            <performer>
               <display value="The Central European Lab"/>
            </performer>
            <valueQuantity>
               <value value="2"/>
               <unit value="U/L"/>
               <system value="http://unitsofmeasure.org"/>
               <code value="U/L"/>
            </valueQuantity>
            <interpretation>
               <coding>
                  <system value="http://terminology.hl7.org/CodeSystem/v3-ObservationInterpretation"/>
                  <code value="L"/>
                  <display value="Low"/>
               </coding>
            </interpretation>
            <specimen>
               <reference value="urn:uuid:cc8eb198-a8e3-4342-8de3-941947692bea"/>
            </specimen>
            <referenceRange>
               <low>
                  <value value="7"/>
                  <system value="http://unitsofmeasure.org"/>
                  <code value="U/L"/>
               </low>
            </referenceRange>
            <referenceRange>
               <high>
                  <value value="60"/>
                  <system value="http://unitsofmeasure.org"/>
                  <code value="U/L"/>
               </high>
            </referenceRange>
         </Observation>
      </resource>
   </entry>
   <entry>
      <fullUrl value="urn:uuid:e4236620-08b2-41be-82d7-b1970531ffcf"/>
      <resource>
         <Observation>
            <id value="e4236620-08b2-41be-82d7-b1970531ffcf"/>
            <meta>
               <profile value="http://hl7.eu/fhir/laboratory/StructureDefinition/Observation-resultslab-eu-lab"/>
            </meta>
            <text>
               <status value="generated"/>
               <div xmlns="http://www.w3.org/1999/xhtml">
                  <table class="hl7__eu__lab__report">
                     <tr>
                        <th>Test</th>
                        <th>22-Jun-2017</th>
                        <th>Reference Range</th>
                        <th>Unit</th>
                     </tr>
                     <tr>
                        <td>Aspartate aminotransferase [Enzymatic activity/volume] in Serum or Plasma</td>
                        <td>27.7</td>
                        <td>10 - 40</td>
                        <td/>
                        <td>U/L</td>
                     </tr>
                  </table>
               </div>
            </text>
            <status value="final"/>
            <category>
               <coding>
                  <system value="http://terminology.hl7.org/CodeSystem/observation-category"/>
                  <code value="laboratory"/>
               </coding>
            </category>
            <code>
               <coding>
                  <system value="http://loinc.org"/>
                  <code value="1920-8"/>
                  <display value="Aspartate aminotransferase [Enzymatic activity/volume] in Serum or Plasma"/>
               </coding>
               <text value="Aspartate aminotransferase [Enzymatic activity/volume] in Serum or Plasma"/>
            </code>
            <subject>
               <reference value="urn:uuid:44d79e8f-8eea-4690-99d0-f6512300033f"/>
               <display value="Magdolna Balog"/>
            </subject>
            <effectiveDateTime value="2017-06-22T05:58:05Z"/>
            <performer>
               <display value="The Central European Lab"/>
            </performer>
            <valueQuantity>
               <value value="27.7"/>
               <unit value="U/L"/>
               <system value="http://unitsofmeasure.org"/>
               <code value="U/L"/>
            </valueQuantity>
            <specimen>
               <reference value="urn:uuid:cc8eb198-a8e3-4342-8de3-941947692bea"/>
            </specimen>
            <referenceRange>
               <low>
                  <value value="10"/>
                  <system value="http://unitsofmeasure.org"/>
                  <code value="U/L"/>
               </low>
            </referenceRange>
            <referenceRange>
               <high>
                  <value value="40"/>
                  <system value="http://unitsofmeasure.org"/>
                  <code value="U/L"/>
               </high>
            </referenceRange>
         </Observation>
      </resource>
   </entry>
   <entry>
      <fullUrl value="urn:uuid:443b6baa-fc06-4eee-9f7d-ceb93e313430"/>
      <resource>
         <Observation>
            <id value="443b6baa-fc06-4eee-9f7d-ceb93e313430"/>
            <meta>
               <profile value="http://hl7.eu/fhir/laboratory/StructureDefinition/Observation-resultslab-eu-lab"/>
            </meta>
            <text>
               <status value="generated"/>
               <div xmlns="http://www.w3.org/1999/xhtml">
                  <table class="hl7__eu__lab__report">
                     <tr>
                        <th>Test</th>
                        <th>22-Jun-2017</th>
                        <th>Reference Range</th>
                        <th>Unit</th>
                     </tr>
                     <tr>
                        <td>Magnesium [Mass/volume] in Serum or Plasma</td>
                        <td>2.0</td>
                        <td>1.6 - 2.3</td>
                        <td/>
                        <td>mg/dL</td>
                     </tr>
                  </table>
               </div>
            </text>
            <status value="final"/>
            <category>
               <coding>
                  <system value="http://terminology.hl7.org/CodeSystem/observation-category"/>
                  <code value="laboratory"/>
               </coding>
            </category>
            <code>
               <coding>
                  <system value="http://loinc.org"/>
                  <code value="19123-9"/>
                  <display value="Magnesium [Mass/volume] in Serum or Plasma"/>
               </coding>
               <text value="Magnesium [Mass/volume] in Serum or Plasma"/>
            </code>
            <subject>
               <reference value="urn:uuid:44d79e8f-8eea-4690-99d0-f6512300033f"/>
               <display value="Magdolna Balog"/>
            </subject>
            <effectiveDateTime value="2017-06-22T05:58:05Z"/>
            <performer>
               <display value="The Central European Lab"/>
            </performer>
            <valueQuantity>
               <value value="2"/>
               <unit value="mg/dL"/>
               <system value="http://unitsofmeasure.org"/>
               <code value="mg/dL"/>
            </valueQuantity>
            <specimen>
               <reference value="urn:uuid:cc8eb198-a8e3-4342-8de3-941947692bea"/>
            </specimen>
            <referenceRange>
               <low>
                  <value value="1.6"/>
                  <system value="http://unitsofmeasure.org"/>
                  <code value="mg/dL"/>
               </low>
            </referenceRange>
            <referenceRange>
               <high>
                  <value value="2.3"/>
                  <system value="http://unitsofmeasure.org"/>
                  <code value="mg/dL"/>
               </high>
            </referenceRange>
         </Observation>
      </resource>
   </entry>
   <entry>
      <fullUrl value="urn:uuid:baff569d-93ef-4125-9fca-514997b13b3f"/>
      <resource>
         <Observation>
            <id value="baff569d-93ef-4125-9fca-514997b13b3f"/>
            <meta>
               <profile value="http://hl7.eu/fhir/laboratory/StructureDefinition/Observation-resultslab-eu-lab"/>
            </meta>
            <text>
               <status value="generated"/>
               <div xmlns="http://www.w3.org/1999/xhtml">
                  <table class="hl7__eu__lab__report">
                     <tr>
                        <th>Test</th>
                        <th>22-Jun-2017</th>
                        <th>Reference Range</th>
                        <th>Unit</th>
                     </tr>
                     <tr>
                        <td>Phosphate [Mass/volume] in Serum or Plasma</td>
                        <td>4.0</td>
                        <td>2.5 - 4.5</td>
                        <td/>
                        <td>mg/dL</td>
                     </tr>
                  </table>
               </div>
            </text>
            <status value="final"/>
            <category>
               <coding>
                  <system value="http://terminology.hl7.org/CodeSystem/observation-category"/>
                  <code value="laboratory"/>
               </coding>
            </category>
            <code>
               <coding>
                  <system value="http://loinc.org"/>
                  <code value="2777-1"/>
                  <display value="Phosphate [Mass/volume] in Serum or Plasma"/>
               </coding>
               <text value="Phosphate [Mass/volume] in Serum or Plasma"/>
            </code>
            <subject>
               <reference value="urn:uuid:44d79e8f-8eea-4690-99d0-f6512300033f"/>
               <display value="Magdolna Balog"/>
            </subject>
            <effectiveDateTime value="2017-06-22T05:58:05Z"/>
            <performer>
               <display value="The Central European Lab"/>
            </performer>
            <valueQuantity>
               <value value="4"/>
               <unit value="mg/dL"/>
               <system value="http://unitsofmeasure.org"/>
               <code value="mg/dL"/>
            </valueQuantity>
            <specimen>
               <reference value="urn:uuid:cc8eb198-a8e3-4342-8de3-941947692bea"/>
            </specimen>
            <referenceRange>
               <low>
                  <value value="2.5"/>
                  <system value="http://unitsofmeasure.org"/>
                  <code value="mg/dL"/>
               </low>
            </referenceRange>
            <referenceRange>
               <high>
                  <value value="4.5"/>
                  <system value="http://unitsofmeasure.org"/>
                  <code value="mg/dL"/>
               </high>
            </referenceRange>
         </Observation>
      </resource>
   </entry>
   <entry>
      <fullUrl value="urn:uuid:b4f89d97-6586-4c34-9d89-5657303e8a30"/>
      <resource>
         <Observation>
            <id value="b4f89d97-6586-4c34-9d89-5657303e8a30"/>
            <meta>
               <profile value="http://hl7.eu/fhir/laboratory/StructureDefinition/Observation-resultslab-eu-lab"/>
            </meta>
            <text>
               <status value="generated"/>
               <div xmlns="http://www.w3.org/1999/xhtml">
                  <table class="hl7__eu__lab__report">
                     <tr>
                        <th>Test</th>
                        <th>22-Jun-2017</th>
                        <th>Reference Range</th>
                        <th>Unit</th>
                     </tr>
                     <tr>
                        <td>Prothrombin time (PT)</td>
                        <td>11.3</td>
                        <td>11 - 15</td>
                        <td/>
                        <td>s</td>
                     </tr>
                  </table>
               </div>
            </text>
            <status value="final"/>
            <category>
               <coding>
                  <system value="http://terminology.hl7.org/CodeSystem/observation-category"/>
                  <code value="laboratory"/>
               </coding>
            </category>
            <code>
               <coding>
                  <system value="http://loinc.org"/>
                  <code value="5902-2"/>
                  <display value="Prothrombin time (PT)"/>
               </coding>
               <text value="Prothrombin time (PT)"/>
            </code>
            <subject>
               <reference value="urn:uuid:44d79e8f-8eea-4690-99d0-f6512300033f"/>
               <display value="Magdolna Balog"/>
            </subject>
            <effectiveDateTime value="2017-06-22T05:58:05Z"/>
            <performer>
               <display value="The Central European Lab"/>
            </performer>
            <valueQuantity>
               <value value="11.3"/>
               <unit value="s"/>
               <system value="http://unitsofmeasure.org"/>
               <code value="s"/>
            </valueQuantity>
            <specimen>
               <reference value="urn:uuid:81387b16-bf65-452d-8697-72aafd681d89"/>
            </specimen>
            <referenceRange>
               <low>
                  <value value="11"/>
                  <system value="http://unitsofmeasure.org"/>
                  <code value="s"/>
               </low>
            </referenceRange>
            <referenceRange>
               <high>
                  <value value="15"/>
                  <system value="http://unitsofmeasure.org"/>
                  <code value="s"/>
               </high>
            </referenceRange>
         </Observation>
      </resource>
   </entry>
   <entry>
      <fullUrl value="urn:uuid:62168a31-ae47-425f-962b-34479c2a2a10"/>
      <resource>
         <Observation>
            <id value="62168a31-ae47-425f-962b-34479c2a2a10"/>
            <meta>
               <profile value="http://hl7.eu/fhir/laboratory/StructureDefinition/Observation-resultslab-eu-lab"/>
            </meta>
            <text>
               <status value="generated"/>
               <div xmlns="http://www.w3.org/1999/xhtml">
                  <table class="hl7__eu__lab__report">
                     <tr>
                        <th>Test</th>
                        <th>22-Jun-2017</th>
                        <th>Reference Range</th>
                        <th>Unit</th>
                     </tr>
                     <tr>
                        <td>INR in Platelet poor plasma by Coagulation assay</td>
                        <td>0.9</td>
                        <td>0.9 - 3</td>
                        <td/>
                        <td>{INR}</td>
                     </tr>
                  </table>
               </div>
            </text>
            <status value="final"/>
            <category>
               <coding>
                  <system value="http://terminology.hl7.org/CodeSystem/observation-category"/>
                  <code value="laboratory"/>
               </coding>
            </category>
            <code>
               <coding>
                  <system value="http://loinc.org"/>
                  <code value="6301-6"/>
                  <display value="INR in Platelet poor plasma by Coagulation assay"/>
               </coding>
               <text value="INR in Platelet poor plasma by Coagulation assay"/>
            </code>
            <subject>
               <reference value="urn:uuid:44d79e8f-8eea-4690-99d0-f6512300033f"/>
               <display value="Magdolna Balog"/>
            </subject>
            <effectiveDateTime value="2017-06-22T05:58:05Z"/>
            <performer>
               <display value="The Central European Lab"/>
            </performer>
            <valueQuantity>
               <value value="0.9"/>
               <unit value="{INR}"/>
               <system value="http://unitsofmeasure.org"/>
               <code value="{INR}"/>
            </valueQuantity>
            <specimen>
               <reference value="urn:uuid:81387b16-bf65-452d-8697-72aafd681d89"/>
            </specimen>
            <referenceRange>
               <low>
                  <value value="0.9"/>
                  <system value="http://unitsofmeasure.org"/>
                  <code value="INR"/>
               </low>
            </referenceRange>
            <referenceRange>
               <high>
                  <value value="3"/>
                  <system value="http://unitsofmeasure.org"/>
                  <code value="INR"/>
               </high>
            </referenceRange>
         </Observation>
      </resource>
   </entry>
   <entry>
      <fullUrl value="urn:uuid:0cf885af-dc6c-48a8-86db-bd96301a1b84"/>
      <resource>
         <Observation>
            <id value="0cf885af-dc6c-48a8-86db-bd96301a1b84"/>
            <meta>
               <profile value="http://hl7.eu/fhir/laboratory/StructureDefinition/Observation-resultslab-eu-lab"/>
            </meta>
            <text>
               <status value="generated"/>
               <div xmlns="http://www.w3.org/1999/xhtml">
                  <table class="hl7__eu__lab__report">
                     <tr>
                        <th>Test</th>
                        <th>22-Jun-2017</th>
                        <th>Reference Range</th>
                        <th>Unit</th>
                     </tr>
                     <tr>
                        <td>aPTT in Blood by Coagulation assay</td>
                        <td>30.3</td>
                        <td>25 - 40</td>
                        <td/>
                        <td>s</td>
                     </tr>
                  </table>
               </div>
            </text>
            <status value="final"/>
            <category>
               <coding>
                  <system value="http://terminology.hl7.org/CodeSystem/observation-category"/>
                  <code value="laboratory"/>
               </coding>
            </category>
            <code>
               <coding>
                  <system value="http://loinc.org"/>
                  <code value="3173-2"/>
                  <display value="aPTT in Blood by Coagulation assay"/>
               </coding>
               <text value="aPTT in Blood by Coagulation assay"/>
            </code>
            <subject>
               <reference value="urn:uuid:44d79e8f-8eea-4690-99d0-f6512300033f"/>
               <display value="Magdolna Balog"/>
            </subject>
            <effectiveDateTime value="2017-06-22T05:58:05Z"/>
            <performer>
               <display value="The Central European Lab"/>
            </performer>
            <valueQuantity>
               <value value="30.3"/>
               <unit value="s"/>
               <system value="http://unitsofmeasure.org"/>
               <code value="s"/>
            </valueQuantity>
            <specimen>
               <reference value="urn:uuid:06aa68d4-10aa-4519-9513-c815de9422f1"/>
            </specimen>
            <referenceRange>
               <low>
                  <value value="25"/>
                  <system value="http://unitsofmeasure.org"/>
                  <code value="seconds"/>
               </low>
            </referenceRange>
            <referenceRange>
               <high>
                  <value value="40"/>
                  <system value="http://unitsofmeasure.org"/>
                  <code value="seconds"/>
               </high>
            </referenceRange>
         </Observation>
      </resource>
   </entry>
   <entry>
      <fullUrl value="urn:uuid:85146528-7832-43f0-85ec-ca1b1f447558"/>
      <resource>
         <Observation>
            <id value="85146528-7832-43f0-85ec-ca1b1f447558"/>
            <meta>
               <profile value="http://hl7.eu/fhir/laboratory/StructureDefinition/Observation-resultslab-eu-lab"/>
            </meta>
            <text>
               <status value="generated"/>
               <div xmlns="http://www.w3.org/1999/xhtml">
                  <table class="hl7__eu__lab__report">
                     <tr>
                        <th>Test</th>
                        <th>22-Jun-2017</th>
                        <th>Reference Range</th>
                        <th>Unit</th>
                     </tr>
                     <tr>
                        <td>pH of Arterial blood</td>
                        <td>6.9</td>
                        <td>7.35 - 7.45</td>
                        <td>L</td>
                        <td>[pH]</td>
                     </tr>
                  </table>
               </div>
            </text>
            <status value="final"/>
            <category>
               <coding>
                  <system value="http://terminology.hl7.org/CodeSystem/observation-category"/>
                  <code value="laboratory"/>
               </coding>
            </category>
            <code>
               <coding>
                  <system value="http://loinc.org"/>
                  <code value="2744-1"/>
                  <display value="pH of Arterial blood"/>
               </coding>
               <text value="pH of Arterial blood"/>
            </code>
            <subject>
               <reference value="urn:uuid:44d79e8f-8eea-4690-99d0-f6512300033f"/>
               <display value="Magdolna Balog"/>
            </subject>
            <effectiveDateTime value="2017-06-22T05:58:05Z"/>
            <performer>
               <display value="The Central European Lab"/>
            </performer>
            <valueQuantity>
               <value value="6.9"/>
               <unit value="[pH]"/>
               <system value="http://unitsofmeasure.org"/>
               <code value="[pH]"/>
            </valueQuantity>
            <interpretation>
               <coding>
                  <system value="http://terminology.hl7.org/CodeSystem/v3-ObservationInterpretation"/>
                  <code value="L"/>
                  <display value="Low"/>
               </coding>
            </interpretation>
            <specimen>
               <reference value="urn:uuid:18993336-d94b-4016-b766-57d0d0e69399"/>
            </specimen>
            <referenceRange>
               <low>
                  <value value="7.35"/>
                  <system value="http://unitsofmeasure.org"/>
                  <code value="pH"/>
               </low>
            </referenceRange>
            <referenceRange>
               <high>
                  <value value="7.45"/>
                  <system value="http://unitsofmeasure.org"/>
                  <code value="pH"/>
               </high>
            </referenceRange>
         </Observation>
      </resource>
   </entry>
   <entry>
      <fullUrl value="urn:uuid:27cd5ac1-b0e7-4d52-af02-e76891edb700"/>
      <resource>
         <Observation>
            <id value="27cd5ac1-b0e7-4d52-af02-e76891edb700"/>
            <meta>
               <profile value="http://hl7.eu/fhir/laboratory/StructureDefinition/Observation-resultslab-eu-lab"/>
            </meta>
            <text>
               <status value="generated"/>
               <div xmlns="http://www.w3.org/1999/xhtml">
                  <table class="hl7__eu__lab__report">
                     <tr>
                        <th>Test</th>
                        <th>22-Jun-2017</th>
                        <th>Reference Range</th>
                        <th>Unit</th>
                     </tr>
                     <tr>
                        <td>Carbon dioxide [Partial pressure] in Arterial blood</td>
                        <td>40.8</td>
                        <td>38 - 48</td>
                        <td/>
                        <td>mm[Hg]</td>
                     </tr>
                  </table>
               </div>
            </text>
            <status value="final"/>
            <category>
               <coding>
                  <system value="http://terminology.hl7.org/CodeSystem/observation-category"/>
                  <code value="laboratory"/>
               </coding>
            </category>
            <code>
               <coding>
                  <system value="http://loinc.org"/>
                  <code value="2019-8"/>
                  <display value="Carbon dioxide [Partial pressure] in Arterial blood"/>
               </coding>
               <text value="Carbon dioxide [Partial pressure] in Arterial blood"/>
            </code>
            <subject>
               <reference value="urn:uuid:44d79e8f-8eea-4690-99d0-f6512300033f"/>
               <display value="Magdolna Balog"/>
            </subject>
            <effectiveDateTime value="2017-06-22T05:58:05Z"/>
            <performer>
               <display value="The Central European Lab"/>
            </performer>
            <valueQuantity>
               <value value="40.8"/>
               <unit value="mm[Hg]"/>
               <system value="http://unitsofmeasure.org"/>
               <code value="mm[Hg]"/>
            </valueQuantity>
            <specimen>
               <reference value="urn:uuid:18993336-d94b-4016-b766-57d0d0e69399"/>
            </specimen>
            <referenceRange>
               <low>
                  <value value="38"/>
                  <system value="http://unitsofmeasure.org"/>
                  <code value="mm[Hg]"/>
               </low>
            </referenceRange>
            <referenceRange>
               <high>
                  <value value="48"/>
                  <system value="http://unitsofmeasure.org"/>
                  <code value="mm[Hg]"/>
               </high>
            </referenceRange>
         </Observation>
      </resource>
   </entry>
   <entry>
      <fullUrl value="urn:uuid:57894583-8dbd-45c8-acd8-a8d5d26caa0a"/>
      <resource>
         <Observation>
            <id value="57894583-8dbd-45c8-acd8-a8d5d26caa0a"/>
            <meta>
               <profile value="http://hl7.eu/fhir/laboratory/StructureDefinition/Observation-resultslab-eu-lab"/>
            </meta>
            <text>
               <status value="generated"/>
               <div xmlns="http://www.w3.org/1999/xhtml">
                  <table class="hl7__eu__lab__report">
                     <tr>
                        <th>Test</th>
                        <th>22-Jun-2017</th>
                        <th>Reference Range</th>
                        <th>Unit</th>
                     </tr>
                     <tr>
                        <td>Oxygen [Partial pressure] in Arterial blood</td>
                        <td>89.5</td>
                        <td>75 - 100</td>
                        <td/>
                        <td>mm[Hg]</td>
                     </tr>
                  </table>
               </div>
            </text>
            <status value="final"/>
            <category>
               <coding>
                  <system value="http://terminology.hl7.org/CodeSystem/observation-category"/>
                  <code value="laboratory"/>
               </coding>
            </category>
            <code>
               <coding>
                  <system value="http://loinc.org"/>
                  <code value="2703-7"/>
                  <display value="Oxygen [Partial pressure] in Arterial blood"/>
               </coding>
               <text value="Oxygen [Partial pressure] in Arterial blood"/>
            </code>
            <subject>
               <reference value="urn:uuid:44d79e8f-8eea-4690-99d0-f6512300033f"/>
               <display value="Magdolna Balog"/>
            </subject>
            <effectiveDateTime value="2017-06-22T05:58:05Z"/>
            <performer>
               <display value="The Central European Lab"/>
            </performer>
            <valueQuantity>
               <value value="89.5"/>
               <unit value="mm[Hg]"/>
               <system value="http://unitsofmeasure.org"/>
               <code value="mm[Hg]"/>
            </valueQuantity>
            <specimen>
               <reference value="urn:uuid:18993336-d94b-4016-b766-57d0d0e69399"/>
            </specimen>
            <referenceRange>
               <low>
                  <value value="75"/>
                  <system value="http://unitsofmeasure.org"/>
                  <code value="mm[Hg]"/>
               </low>
            </referenceRange>
            <referenceRange>
               <high>
                  <value value="100"/>
                  <system value="http://unitsofmeasure.org"/>
                  <code value="mm[Hg]"/>
               </high>
            </referenceRange>
         </Observation>
      </resource>
   </entry>
   <entry>
      <fullUrl value="urn:uuid:27294675-122b-4f83-83f4-eae5c0af275e"/>
      <resource>
         <Observation>
            <id value="27294675-122b-4f83-83f4-eae5c0af275e"/>
            <meta>
               <profile value="http://hl7.eu/fhir/laboratory/StructureDefinition/Observation-resultslab-eu-lab"/>
            </meta>
            <text>
               <status value="generated"/>
               <div xmlns="http://www.w3.org/1999/xhtml">
                  <table class="hl7__eu__lab__report">
                     <tr>
                        <th>Test</th>
                        <th>22-Jun-2017</th>
                        <th>Reference Range</th>
                        <th>Unit</th>
                     </tr>
                     <tr>
                        <td>Bicarbonate [Moles/volume] in Arterial blood</td>
                        <td>25.7</td>
                        <td>22 - 31</td>
                        <td/>
                        <td>mmol/L</td>
                     </tr>
                  </table>
               </div>
            </text>
            <status value="final"/>
            <category>
               <coding>
                  <system value="http://terminology.hl7.org/CodeSystem/observation-category"/>
                  <code value="laboratory"/>
               </coding>
            </category>
            <code>
               <coding>
                  <system value="http://loinc.org"/>
                  <code value="1960-4"/>
                  <display value="Bicarbonate [Moles/volume] in Arterial blood"/>
               </coding>
               <text value="Bicarbonate [Moles/volume] in Arterial blood"/>
            </code>
            <subject>
               <reference value="urn:uuid:44d79e8f-8eea-4690-99d0-f6512300033f"/>
               <display value="Magdolna Balog"/>
            </subject>
            <effectiveDateTime value="2017-06-22T05:58:05Z"/>
            <performer>
               <display value="The Central European Lab"/>
            </performer>
            <valueQuantity>
               <value value="25.7"/>
               <unit value="mmol/L"/>
               <system value="http://unitsofmeasure.org"/>
               <code value="mmol/L"/>
            </valueQuantity>
            <specimen>
               <reference value="urn:uuid:18993336-d94b-4016-b766-57d0d0e69399"/>
            </specimen>
            <referenceRange>
               <low>
                  <value value="22"/>
                  <system value="http://unitsofmeasure.org"/>
                  <code value="mmol/L"/>
               </low>
            </referenceRange>
            <referenceRange>
               <high>
                  <value value="31"/>
                  <system value="http://unitsofmeasure.org"/>
                  <code value="mmol/L"/>
               </high>
            </referenceRange>
         </Observation>
      </resource>
   </entry>
   <entry>
      <fullUrl value="urn:uuid:8b2bb691-9bdb-4845-9943-181e13e449c6"/>
      <resource>
         <Observation>
            <id value="8b2bb691-9bdb-4845-9943-181e13e449c6"/>
            <meta>
               <profile value="http://hl7.eu/fhir/laboratory/StructureDefinition/Observation-resultslab-eu-lab"/>
            </meta>
            <text>
               <status value="generated"/>
               <div xmlns="http://www.w3.org/1999/xhtml">
                  <table class="hl7__eu__lab__report">
                     <tr>
                        <th>Test</th>
                        <th>22-Jun-2017</th>
                        <th>Reference Range</th>
                        <th>Unit</th>
                     </tr>
                     <tr>
                        <td>Oxygen saturation in Arterial blood</td>
                        <td>98.0</td>
                        <td>95 - 100</td>
                        <td/>
                        <td>%</td>
                     </tr>
                  </table>
               </div>
            </text>
            <status value="final"/>
            <category>
               <coding>
                  <system value="http://terminology.hl7.org/CodeSystem/observation-category"/>
                  <code value="laboratory"/>
               </coding>
            </category>
            <code>
               <coding>
                  <system value="http://loinc.org"/>
                  <code value="2708-6"/>
                  <display value="Oxygen saturation in Arterial blood"/>
               </coding>
               <text value="Oxygen saturation in Arterial blood"/>
            </code>
            <subject>
               <reference value="urn:uuid:44d79e8f-8eea-4690-99d0-f6512300033f"/>
               <display value="Magdolna Balog"/>
            </subject>
            <effectiveDateTime value="2017-06-22T05:58:05Z"/>
            <performer>
               <display value="The Central European Lab"/>
            </performer>
            <valueQuantity>
               <value value="98"/>
               <unit value="%"/>
               <system value="http://unitsofmeasure.org"/>
               <code value="%"/>
            </valueQuantity>
            <specimen>
               <reference value="urn:uuid:18993336-d94b-4016-b766-57d0d0e69399"/>
            </specimen>
            <referenceRange>
               <low>
                  <value value="95"/>
                  <system value="http://unitsofmeasure.org"/>
                  <code value="%"/>
               </low>
            </referenceRange>
            <referenceRange>
               <high>
                  <value value="100"/>
                  <system value="http://unitsofmeasure.org"/>
                  <code value="%"/>
               </high>
            </referenceRange>
         </Observation>
      </resource>
   </entry>
   <entry>
      <fullUrl value="urn:uuid:65ebb278-083f-4b6b-841c-54a26cff70d3"/>
      <resource>
         <Observation>
            <id value="65ebb278-083f-4b6b-841c-54a26cff70d3"/>
            <meta>
               <profile value="http://hl7.eu/fhir/laboratory/StructureDefinition/Observation-resultslab-eu-lab"/>
            </meta>
            <text>
               <status value="generated"/>
               <div xmlns="http://www.w3.org/1999/xhtml">
                  <table class="hl7__eu__lab__report">
                     <tr>
                        <th>Test</th>
                        <th>22-Jun-2017</th>
                        <th>Reference Range</th>
                        <th>Unit</th>
                     </tr>
                     <tr>
                        <td>Cholesterol [Mass/volume] in Serum or Plasma</td>
                        <td>145.9</td>
                        <td>125 - 200</td>
                        <td/>
                        <td>mg/dL</td>
                     </tr>
                  </table>
               </div>
            </text>
            <status value="final"/>
            <category>
               <coding>
                  <system value="http://terminology.hl7.org/CodeSystem/observation-category"/>
                  <code value="laboratory"/>
               </coding>
            </category>
            <code>
               <coding>
                  <system value="http://loinc.org"/>
                  <code value="2093-3"/>
                  <display value="Cholesterol [Mass/volume] in Serum or Plasma"/>
               </coding>
               <text value="Cholesterol [Mass/volume] in Serum or Plasma"/>
            </code>
            <subject>
               <reference value="urn:uuid:44d79e8f-8eea-4690-99d0-f6512300033f"/>
               <display value="Magdolna Balog"/>
            </subject>
            <effectiveDateTime value="2017-06-22T05:58:05Z"/>
            <performer>
               <display value="The Central European Lab"/>
            </performer>
            <valueQuantity>
               <value value="145.9"/>
               <unit value="mg/dL"/>
               <system value="http://unitsofmeasure.org"/>
               <code value="mg/dL"/>
            </valueQuantity>
            <specimen>
               <reference value="urn:uuid:cc8eb198-a8e3-4342-8de3-941947692bea"/>
            </specimen>
            <referenceRange>
               <low>
                  <value value="125"/>
                  <system value="http://unitsofmeasure.org"/>
                  <code value="mg/dL"/>
               </low>
            </referenceRange>
            <referenceRange>
               <high>
                  <value value="200"/>
                  <system value="http://unitsofmeasure.org"/>
                  <code value="mg/dL"/>
               </high>
            </referenceRange>
         </Observation>
      </resource>
   </entry>
   <entry>
      <fullUrl value="urn:uuid:a54a12ec-b7a6-4667-8a6e-f8393c0e4092"/>
      <resource>
         <Observation>
            <id value="a54a12ec-b7a6-4667-8a6e-f8393c0e4092"/>
            <meta>
               <profile value="http://hl7.eu/fhir/laboratory/StructureDefinition/Observation-resultslab-eu-lab"/>
            </meta>
            <text>
               <status value="generated"/>
               <div xmlns="http://www.w3.org/1999/xhtml">
                  <table class="hl7__eu__lab__report">
                     <tr>
                        <th>Test</th>
                        <th>22-Jun-2017</th>
                        <th>Reference Range</th>
                        <th>Unit</th>
                     </tr>
                     <tr>
                        <td>Triglyceride [Mass/volume] in Serum or Plasma</td>
                        <td>123.9</td>
                        <td>0 - 150</td>
                        <td/>
                        <td>mg/dL</td>
                     </tr>
                  </table>
               </div>
            </text>
            <status value="final"/>
            <category>
               <coding>
                  <system value="http://terminology.hl7.org/CodeSystem/observation-category"/>
                  <code value="laboratory"/>
               </coding>
            </category>
            <code>
               <coding>
                  <system value="http://loinc.org"/>
                  <code value="2571-8"/>
                  <display value="Triglyceride [Mass/volume] in Serum or Plasma"/>
               </coding>
               <text value="Triglyceride [Mass/volume] in Serum or Plasma"/>
            </code>
            <subject>
               <reference value="urn:uuid:44d79e8f-8eea-4690-99d0-f6512300033f"/>
               <display value="Magdolna Balog"/>
            </subject>
            <effectiveDateTime value="2017-06-22T05:58:05Z"/>
            <performer>
               <display value="The Central European Lab"/>
            </performer>
            <valueQuantity>
               <value value="123.9"/>
               <unit value="mg/dL"/>
               <system value="http://unitsofmeasure.org"/>
               <code value="mg/dL"/>
            </valueQuantity>
            <specimen>
               <reference value="urn:uuid:cc8eb198-a8e3-4342-8de3-941947692bea"/>
            </specimen>
            <referenceRange>
               <low>
                  <value value="0"/>
                  <system value="http://unitsofmeasure.org"/>
                  <code value="mg/dL"/>
               </low>
            </referenceRange>
            <referenceRange>
               <high>
                  <value value="150"/>
                  <system value="http://unitsofmeasure.org"/>
                  <code value="mg/dL"/>
               </high>
            </referenceRange>
         </Observation>
      </resource>
   </entry>
   <entry>
      <fullUrl value="urn:uuid:56b63260-2eee-46ea-9c1e-78f2b240369d"/>
      <resource>
         <Observation>
            <id value="56b63260-2eee-46ea-9c1e-78f2b240369d"/>
            <meta>
               <profile value="http://hl7.eu/fhir/laboratory/StructureDefinition/Observation-resultslab-eu-lab"/>
            </meta>
            <text>
               <status value="generated"/>
               <div xmlns="http://www.w3.org/1999/xhtml">
                  <table class="hl7__eu__lab__report">
                     <tr>
                        <th>Test</th>
                        <th>22-Jun-2017</th>
                        <th>Reference Range</th>
                        <th>Unit</th>
                     </tr>
                     <tr>
                        <td>Cholesterol in LDL [Mass/volume] in Serum or Plasma by Direct assay</td>
                        <td>53.3</td>
                        <td>0 - 130</td>
                        <td/>
                        <td>mg/dL</td>
                     </tr>
                  </table>
               </div>
            </text>
            <status value="final"/>
            <category>
               <coding>
                  <system value="http://terminology.hl7.org/CodeSystem/observation-category"/>
                  <code value="laboratory"/>
               </coding>
            </category>
            <code>
               <coding>
                  <system value="http://loinc.org"/>
                  <code value="18262-6"/>
                  <display value="Cholesterol in LDL [Mass/volume] in Serum or Plasma by Direct assay"/>
               </coding>
               <text value="Cholesterol in LDL [Mass/volume] in Serum or Plasma by Direct assay"/>
            </code>
            <subject>
               <reference value="urn:uuid:44d79e8f-8eea-4690-99d0-f6512300033f"/>
               <display value="Magdolna Balog"/>
            </subject>
            <effectiveDateTime value="2017-06-22T05:58:05Z"/>
            <performer>
               <display value="The Central European Lab"/>
            </performer>
            <valueQuantity>
               <value value="53.3"/>
               <unit value="mg/dL"/>
               <system value="http://unitsofmeasure.org"/>
               <code value="mg/dL"/>
            </valueQuantity>
            <specimen>
               <reference value="urn:uuid:cc8eb198-a8e3-4342-8de3-941947692bea"/>
            </specimen>
            <referenceRange>
               <low>
                  <value value="0"/>
                  <system value="http://unitsofmeasure.org"/>
                  <code value="mg/dL"/>
               </low>
            </referenceRange>
            <referenceRange>
               <high>
                  <value value="130"/>
                  <system value="http://unitsofmeasure.org"/>
                  <code value="mg/dL"/>
               </high>
            </referenceRange>
         </Observation>
      </resource>
   </entry>
   <entry>
      <fullUrl value="urn:uuid:5027fe5d-9554-47ab-81c4-6e13efb8ac85"/>
      <resource>
         <Observation>
            <id value="5027fe5d-9554-47ab-81c4-6e13efb8ac85"/>
            <meta>
               <profile value="http://hl7.eu/fhir/laboratory/StructureDefinition/Observation-resultslab-eu-lab"/>
            </meta>
            <text>
               <status value="generated"/>
               <div xmlns="http://www.w3.org/1999/xhtml">
                  <table class="hl7__eu__lab__report">
                     <tr>
                        <th>Test</th>
                        <th>22-Jun-2017</th>
                        <th>Reference Range</th>
                        <th>Unit</th>
                     </tr>
                     <tr>
                        <td>Cholesterol in HDL [Mass/volume] in Serum or Plasma</td>
                        <td>67.8</td>
                        <td>50 - 100</td>
                        <td/>
                        <td>mg/dL</td>
                     </tr>
                  </table>
               </div>
            </text>
            <status value="final"/>
            <category>
               <coding>
                  <system value="http://terminology.hl7.org/CodeSystem/observation-category"/>
                  <code value="laboratory"/>
               </coding>
            </category>
            <code>
               <coding>
                  <system value="http://loinc.org"/>
                  <code value="2085-9"/>
                  <display value="Cholesterol in HDL [Mass/volume] in Serum or Plasma"/>
               </coding>
               <text value="Cholesterol in HDL [Mass/volume] in Serum or Plasma"/>
            </code>
            <subject>
               <reference value="urn:uuid:44d79e8f-8eea-4690-99d0-f6512300033f"/>
               <display value="Magdolna Balog"/>
            </subject>
            <effectiveDateTime value="2017-06-22T05:58:05Z"/>
            <performer>
               <display value="The Central European Lab"/>
            </performer>
            <valueQuantity>
               <value value="67.8"/>
               <unit value="mg/dL"/>
               <system value="http://unitsofmeasure.org"/>
               <code value="mg/dL"/>
            </valueQuantity>
            <specimen>
               <reference value="urn:uuid:cc8eb198-a8e3-4342-8de3-941947692bea"/>
            </specimen>
            <referenceRange>
               <low>
                  <value value="50"/>
                  <system value="http://unitsofmeasure.org"/>
                  <code value="mg/dL"/>
               </low>
            </referenceRange>
            <referenceRange>
               <high>
                  <value value="100"/>
                  <system value="http://unitsofmeasure.org"/>
                  <code value="mg/dL"/>
               </high>
            </referenceRange>
         </Observation>
      </resource>
   </entry>
   <entry>
      <fullUrl value="urn:uuid:bbcd3e17-389b-41a4-83d2-87eedd498ae3"/>
      <resource>
         <Device>
            <id value="bbcd3e17-389b-41a4-83d2-87eedd498ae3"/>
            <text>
               <status value="generated"/>
               <div xmlns="http://www.w3.org/1999/xhtml">SYNDERAI Synthetic Generator v5.0</div>
            </text>
            <status value="active&#34;"/>
            <distinctIdentifier value="synderai-generator-50"/>
            <manufacturer value="SYNDERAI Project"/>
            <deviceName>
               <name value="SYNDERAI Synthetic Generator"/>
               <type value="manufacturer-name"/>
            </deviceName>
            <version>
               <value value="5.0"/>
            </version>
         </Device>
      </resource>
   </entry>
   <entry>
      <fullUrl value="urn:uuid:987459c6-a9c4-4869-b066-6b015ea7e9e6"/>
      <resource>
         <Provenance>
            <id value="987459c6-a9c4-4869-b066-6b015ea7e9e6"/>
            <text>
               <status value="generated"/>
               <div xmlns="http://www.w3.org/1999/xhtml">Provenance for SYNDERAI Synthetic Example Data Resource</div>
            </text>
            <target>
               <reference value="Patient/44d79e8f-8eea-4690-99d0-f6512300033f"/>
            </target>
            <target>
               <reference value="Bundle/3106c440-6b8c-4214-84fa-a386e614c40e"/>
            </target>
            <target>
               <reference value="Composition/c57c5e97-6fc2-4f96-95f0-138bdc881b73"/>
            </target>
            <target>
               <reference value="PractitionerRole/68b782bb-79e7-466e-aee0-d567d09f58bd"/>
            </target>
            <target>
               <reference value="Practitioner/9a98e2ea-4ab1-452f-aaa6-e133a0012deb"/>
            </target>
            <target>
               <reference value="PractitionerRole/15d5e70a-ba19-4ced-9bb3-d418c6d03057"/>
            </target>
            <target>
               <reference value="Organization/8126e18d-4637-4f7c-9d20-52f6b627851b"/>
            </target>
            <recorded value="2017-06-22T07:58:05Z"/>
            <policy value="https://synderai.net/synderai-synthetic-data-policy"/>
            <reason>
               <text value="Interoperability Testing and Training (non-clinical use)"/>
            </reason>
            <activity>
               <text value="Synthetic Example Data Generation"/>
            </activity>
            <agent>
               <type>
                  <text value="author"/>
               </type>
               <who>
                  <reference value="Device/bbcd3e17-389b-41a4-83d2-87eedd498ae3"/>
               </who>
            </agent>
         </Provenance>
      </resource>
   </entry>
   <entry>
      <fullUrl value="urn:uuid:68b782bb-79e7-466e-aee0-d567d09f58bd"/>
      <resource>
         <PractitionerRole>
            <id value="68b782bb-79e7-466e-aee0-d567d09f58bd"/>
            <meta>
               <profile value="http://hl7.eu/fhir/base/StructureDefinition/practitionerRole-eu"/>
            </meta>
            <text>
               <status value="generated"/>
               <div xmlns="http://www.w3.org/1999/xhtml">Laboratory Role Id: 68b782bb-79e7-466e-aee0-d567d09f58bd</div>
            </text>
            <practitioner>
               <reference value="urn:uuid:9a98e2ea-4ab1-452f-aaa6-e133a0012deb"/>
            </practitioner>
         </PractitionerRole>
      </resource>
   </entry>
   <entry>
      <fullUrl value="urn:uuid:9a98e2ea-4ab1-452f-aaa6-e133a0012deb"/>
      <resource>
         <Practitioner>
            <id value="9a98e2ea-4ab1-452f-aaa6-e133a0012deb"/>
            <meta>
               <profile value="http://hl7.eu/fhir/base/StructureDefinition/practitioner-eu"/>
            </meta>
            <text>
               <status value="generated"/>
               <div xmlns="http://www.w3.org/1999/xhtml">Laboratory: Laboratoire Central Européenne, 1000 Brussels, Belgium</div>
            </text>
            <identifier>
               <system value="urn:oid:2.16.840.1.113883.2.51.999"/>
               <value value="2ad875f0-cf6b-49ab-95a6-6457c2006c24"/>
               <assigner>
                  <display value="HL7 Europe"/>
               </assigner>
            </identifier>
            <name>
               <family value="Ample"/>
               <given value="Ex"/>
               <prefix value="dr"/>
            </name>
            <address>
               <line value="Laboratoire Central Européenne"/>
               <line value="Boulevard du Jardin Botanique 32"/>
               <city value="Brussels"/>
               <postalCode value="1000"/>
               <country value="Belgium"/>
            </address>
         </Practitioner>
      </resource>
   </entry>
</Bundle>