{
  "resourceType": "Bundle",
  "id": "0b873b71-933b-4cba-bb5a-ab00afd68892",
  "meta": {
    "profile": [
      "http://hl7.eu/fhir/laboratory/StructureDefinition/Bundle-eu-lab"
    ]
  },
  "identifier": {
    "assigner": {
      "display": "HL7 Europe"
    },
    "system": "urn:oid:2.16.840.1.113883.2.51.999",
    "value": "9fbd0a33-ca77-4f91-88b8-a3dd81af0bd6"
  },
  "entry": [
    {
      "fullUrl": "urn:uuid:b540b02b-5259-48e8-b453-fe4cc43eeca9",
      "resource": {
        "resourceType": "Composition",
        "id": "b540b02b-5259-48e8-b453-fe4cc43eeca9",
        "meta": {
          "profile": [
            "http://hl7.eu/fhir/laboratory/StructureDefinition/Composition-eu-lab"
          ]
        },
        "identifier": {
          "assigner": {
            "display": "HL7 Europe"
          },
          "system": "urn:oid:2.16.840.1.113883.2.51.999",
          "value": "ce1240f4-7e56-4bdd-88d9-a4d5e3ae476d"
        },
        "author": [
          {
            "reference": "urn:uuid:f3a889bf-495e-4f8f-87a7-b40a2dc5d0bd"
          }
        ],
        "category": [
          {
            "coding": [
              {
                "code": "26436-6",
                "system": "http://loinc.org",
                "display": "Laboratory studies (set)"
              }
            ]
          }
        ],
        "type": {
          "coding": [
            {
              "code": "11502-2",
              "system": "http://loinc.org",
              "display": "Laboratory report"
            }
          ],
          "text": "Laboratory Report"
        },
        "section": [
          {
            "code": {
              "coding": [
                {
                  "code": "26436-6",
                  "system": "http://loinc.org",
                  "display": "Laboratory studies (set)"
                }
              ],
              "text": "Laboratory studies"
            },
            "section": [
              {
                "code": {
                  "coding": [
                    {
                      "code": "$18719-5",
                      "system": "http://loinc.org",
                      "display": "Chemistry studies (set)"
                    }
                  ],
                  "text": "Chemistry"
                },
                "entry": [
                  {
                    "reference": "urn:uuid:4492f00e-faa8-495a-bd05-f89b623b6614"
                  },
                  {
                    "reference": "urn:uuid:d2658dcc-d0e3-434b-986a-247e6bc226bb"
                  },
                  {
                    "reference": "urn:uuid:592d6b23-6c3f-4ed0-8b7e-c82879a4deae"
                  },
                  {
                    "reference": "urn:uuid:541de4f9-5421-475f-8699-bc16546165a2"
                  },
                  {
                    "reference": "urn:uuid:151f9a72-4ced-4d24-9eea-37b018da0b5e"
                  },
                  {
                    "reference": "urn:uuid:bb007695-fcc7-4f6d-9b35-e36b118704a6"
                  },
                  {
                    "reference": "urn:uuid:592a3bfb-ff02-444b-8de6-7cca11756468"
                  },
                  {
                    "reference": "urn:uuid:8424fc6e-ed2b-4c60-bab7-d5b335836ea8"
                  },
                  {
                    "reference": "urn:uuid:75dbbc94-5f04-41ec-b43b-32689d639b27"
                  }
                ],
                "text": {
                  "status": "generated",
                  "div": "<div xmlns=\"http://www.w3.org/1999/xhtml\"><h3>Chemistry</h3><table class=\"hl7__eu__lab__report\"><thead><tr><th>Test</th><th>16-FEB-2017</th><th>Reference&#xA0;Range</th><th>Unit</th></tr></thead><tbody><tr><td>Glucose [Mass/volume] in Serum or Plasma</td><td>70.7</td><td>70 - 140</td><td>mg/dL</td></tr><tr><td>Urea nitrogen [Mass/volume] in Serum or Plasma</td><td>12.8</td><td>7 - 50</td><td>mg/dL</td></tr><tr><td>Creatinine [Mass/volume] in Serum or Plasma</td><td><strong>1.6 H</strong></td><td>0.6 - 1.1</td><td>mg/dL</td></tr><tr><td>Calcium [Mass/volume] in Serum or Plasma</td><td>8.7</td><td>8.5 - 10.5</td><td>mg/dL</td></tr><tr><td>Sodium [Moles/volume] in Serum or Plasma</td><td>136.9</td><td>135 - 145</td><td>mmol/L</td></tr><tr><td>Potassium [Moles/volume] in Serum or Plasma</td><td>4.9</td><td>3.5 - 5.1</td><td>mmol/L</td></tr><tr><td>Chloride [Moles/volume] in Serum or Plasma</td><td><strong>108.8 H</strong></td><td>98 - 108</td><td>mmol/L</td></tr><tr><td>Carbon dioxide, total [Moles/volume] in Serum or Plasma</td><td>23.9</td><td>22 - 32</td><td>mmol/L</td></tr><tr><td>Ketones [Presence] in Urine by Test strip</td><td>Urine ketone test = trace</td><td></td><td></td></tr></tbody></table></div>"
                },
                "title": "Chemistry"
              },
              {
                "code": {
                  "coding": [
                    {
                      "code": "$18729-4",
                      "system": "http://loinc.org",
                      "display": "Urinalysis studies (set)"
                    }
                  ],
                  "text": "Urinalysis"
                },
                "entry": [
                  {
                    "reference": "urn:uuid:49ed3f62-d4c8-448d-823e-25a54f91d434"
                  },
                  {
                    "reference": "urn:uuid:4d217eff-60d8-45db-81b8-96e6f0775f07"
                  },
                  {
                    "reference": "urn:uuid:1c2a814e-0d34-4ca5-a0fc-6b48239acdd4"
                  },
                  {
                    "reference": "urn:uuid:f06d57c8-de32-4543-8082-52dc9a432706"
                  },
                  {
                    "reference": "urn:uuid:4ae63f05-57a2-4bed-b075-a1adebb9089a"
                  },
                  {
                    "reference": "urn:uuid:38f9b8cf-5b30-478a-a33c-8e3bc30c07dd"
                  },
                  {
                    "reference": "urn:uuid:c95ebbbb-23b5-4a29-ae2b-4f85a72313dc"
                  },
                  {
                    "reference": "urn:uuid:2bead489-9281-4740-99c4-06f34d8a4fb7"
                  },
                  {
                    "reference": "urn:uuid:3334bce3-4765-4aec-a5ac-611ffbd98fa6"
                  },
                  {
                    "reference": "urn:uuid:ec5a84a1-9e26-4589-ade2-e704c0f98c22"
                  },
                  {
                    "reference": "urn:uuid:53b7750d-7a93-4c3c-a934-6f67c009f1c0"
                  },
                  {
                    "reference": "urn:uuid:5a7a5125-f478-4d70-bd41-efbeadaa6a76"
                  }
                ],
                "text": {
                  "status": "generated",
                  "div": "<div xmlns=\"http://www.w3.org/1999/xhtml\"><h3>Urinalysis</h3><table class=\"hl7__eu__lab__report\"><thead><tr><th>Test</th><th>16-FEB-2017</th><th>Reference&#xA0;Range</th><th>Unit</th></tr></thead><tbody><tr><td>Glucose [Mass/volume] in Urine by Test strip</td><td><strong>0.7 L</strong></td><td>0.8 - 0</td><td>mg/dL</td></tr><tr><td>Glucose [Presence] in Urine by Test strip</td><td>++</td><td></td><td></td></tr><tr><td>Bilirubin.total [Mass/volume] in Urine by Test strip</td><td>0.5</td><td>0 - 1</td><td>mg/dL</td></tr><tr><td>Bilirubin.total [Presence] in Urine by Test strip</td><td>Finding of bilirubin in urine</td><td></td><td></td></tr><tr><td>Ketones [Mass/volume] in Urine by Test strip</td><td>11.7</td><td>0 - 20</td><td>mg/dL</td></tr><tr><td>Specific gravity of Urine by Test strip</td><td><strong>1.0 L</strong></td><td>1.01 - 1.03</td><td>{nominal}</td></tr><tr><td>pH of Urine by Test strip</td><td>6.3</td><td>4.6 - 7</td><td>pH</td></tr><tr><td>Protein [Mass/volume] in Urine by Test strip</td><td><strong>116.3 H</strong></td><td>0 - 15</td><td>mg/dL</td></tr><tr><td>Protein [Presence] in Urine by Test strip</td><td>Urine protein test = +</td><td></td><td></td></tr><tr><td>Nitrite [Presence] in Urine by Test strip</td><td>Urine nitrite negative</td><td></td><td></td></tr><tr><td>Hemoglobin [Presence] in Urine by Test strip</td><td>Urine blood test = negative</td><td></td><td></td></tr><tr><td>Leukocyte esterase [Presence] in Urine by Test strip</td><td>Urine leukocyte test negative</td><td></td><td></td></tr></tbody></table></div>"
                },
                "title": "Urinalysis"
              },
              {
                "code": {
                  "coding": [
                    {
                      "code": "$LP7846-1",
                      "system": "http://loinc.org",
                      "display": "Specimen information"
                    }
                  ],
                  "text": "Specimen information"
                },
                "entry": [
                  {
                    "reference": "urn:uuid:8256f2a5-b84b-41fc-807e-b16886c1749a"
                  },
                  {
                    "reference": "urn:uuid:b27a9b9b-79e0-4b6f-bdb6-c752f2a21704"
                  },
                  {
                    "reference": "urn:uuid:788e4c06-ced5-4d2d-8dd9-a2cb447462df"
                  },
                  {
                    "reference": "urn:uuid:c9333861-650d-4252-bc75-0d27f4b2824d"
                  }
                ],
                "text": {
                  "status": "generated",
                  "div": "<div xmlns=\"http://www.w3.org/1999/xhtml\"><h3>Specimen information</h3><table class=\"hl7__eu__lab__report\"><thead><tr><th>Test</th><th>16-FEB-2017</th><th>Specimen</th><th></th></tr></thead><tbody><tr><td>Appearance of Urine</td><td>Cloudy urine</td><td>Urine</td><td></td></tr><tr><td>Odor of Urine</td><td>Urine smell ammoniacal</td><td>Urine</td><td></td></tr><tr><td>Clarity of Urine</td><td>Translucent</td><td>Urine</td><td></td></tr><tr><td>Color of Urine</td><td>Brown color</td><td>Urine</td><td></td></tr></tbody></table></div>"
                },
                "title": "Specimen information"
              }
            ],
            "title": "Laboratory Report"
          },
          {
            "text": {
              "status": "generated",
              "div": "<div xmlns=\"http://www.w3.org/1999/xhtml\"><h3>Annotation</h3><table class=\"hl7__eu__lab__report\"><tr><th>Conclusion and Recommendations based on this report and previous findings known to us</th></tr><tr><td>The patient shows elevated serum creatinine, mild hyperchloremia, and significant proteinuria with low urine specific gravity, glucosuria, and bilirubinuria. Urine is cloudy, brown, and ammoniacal, but without nitrites, leukocytes, or hematuria. These findings suggest possible renal impairment (likely chronic), with tubular dysfunction (proteinuria, glucosuria) and no clear evidence of urinary tract infection. Further nephrological evaluation is recommended.</td></tr></table></div>"
            },
            "code": {
              "coding": [
                {
                  "system": "http://loinc.org",
                  "code": "48767-8",
                  "display": "Annotation comment"
                }
              ]
            },
            "title": "Annotation comment"
          }
        ],
        "status": "final",
        "subject": {
          "reference": "urn:uuid:4e4e6ded-b04c-48c1-9203-9807a74d5358",
          "display": "Marthe Gallet"
        },
        "date": "2017-02-16T20:05:43Z",
        "title": "Laboratory Report",
        "confidentiality": "N"
      }
    },
    {
      "fullUrl": "urn:uuid:612bd054-dd9a-4c28-a1da-ca14ab263a48",
      "resource": {
        "resourceType": "DiagnosticReport",
        "id": "612bd054-dd9a-4c28-a1da-ca14ab263a48",
        "meta": {
          "profile": [
            "http://hl7.eu/fhir/laboratory/StructureDefinition/DiagnosticReport-eu-lab"
          ]
        },
        "identifier": [
          {
            "assigner": {
              "display": "HL7 Europe"
            },
            "system": "urn:oid:2.16.840.1.113883.2.51.999",
            "value": "96a06453-7775-4842-9f5f-28c277d1880f"
          }
        ],
        "extension": [
          {
            "url": "http://hl7.org/fhir/5.0/StructureDefinition/extension-DiagnosticReport.composition",
            "valueReference": {
              "reference": "urn:uuid:ce1240f4-7e56-4bdd-88d9-a4d5e3ae476d"
            }
          }
        ],
        "category": [
          {
            "coding": [
              {
                "code": "26436-6",
                "system": "http://loinc.org",
                "display": "Laboratory studies (set)"
              }
            ]
          }
        ],
        "specimen": [
          {
            "reference": "urn:uuid:d243ff0b-de01-46c5-b467-746c383c1385"
          },
          {
            "reference": "urn:uuid:0c461e87-3f48-4f41-87ad-358955415ac3"
          }
        ],
        "result": [
          {
            "reference": "urn:uuid:4492f00e-faa8-495a-bd05-f89b623b6614"
          },
          {
            "reference": "urn:uuid:d2658dcc-d0e3-434b-986a-247e6bc226bb"
          },
          {
            "reference": "urn:uuid:592d6b23-6c3f-4ed0-8b7e-c82879a4deae"
          },
          {
            "reference": "urn:uuid:541de4f9-5421-475f-8699-bc16546165a2"
          },
          {
            "reference": "urn:uuid:151f9a72-4ced-4d24-9eea-37b018da0b5e"
          },
          {
            "reference": "urn:uuid:bb007695-fcc7-4f6d-9b35-e36b118704a6"
          },
          {
            "reference": "urn:uuid:592a3bfb-ff02-444b-8de6-7cca11756468"
          },
          {
            "reference": "urn:uuid:8424fc6e-ed2b-4c60-bab7-d5b335836ea8"
          },
          {
            "reference": "urn:uuid:8256f2a5-b84b-41fc-807e-b16886c1749a"
          },
          {
            "reference": "urn:uuid:b27a9b9b-79e0-4b6f-bdb6-c752f2a21704"
          },
          {
            "reference": "urn:uuid:788e4c06-ced5-4d2d-8dd9-a2cb447462df"
          },
          {
            "reference": "urn:uuid:c9333861-650d-4252-bc75-0d27f4b2824d"
          },
          {
            "reference": "urn:uuid:49ed3f62-d4c8-448d-823e-25a54f91d434"
          },
          {
            "reference": "urn:uuid:4d217eff-60d8-45db-81b8-96e6f0775f07"
          },
          {
            "reference": "urn:uuid:1c2a814e-0d34-4ca5-a0fc-6b48239acdd4"
          },
          {
            "reference": "urn:uuid:f06d57c8-de32-4543-8082-52dc9a432706"
          },
          {
            "reference": "urn:uuid:4ae63f05-57a2-4bed-b075-a1adebb9089a"
          },
          {
            "reference": "urn:uuid:75dbbc94-5f04-41ec-b43b-32689d639b27"
          },
          {
            "reference": "urn:uuid:38f9b8cf-5b30-478a-a33c-8e3bc30c07dd"
          },
          {
            "reference": "urn:uuid:c95ebbbb-23b5-4a29-ae2b-4f85a72313dc"
          },
          {
            "reference": "urn:uuid:2bead489-9281-4740-99c4-06f34d8a4fb7"
          },
          {
            "reference": "urn:uuid:3334bce3-4765-4aec-a5ac-611ffbd98fa6"
          },
          {
            "reference": "urn:uuid:ec5a84a1-9e26-4589-ade2-e704c0f98c22"
          },
          {
            "reference": "urn:uuid:53b7750d-7a93-4c3c-a934-6f67c009f1c0"
          },
          {
            "reference": "urn:uuid:5a7a5125-f478-4d70-bd41-efbeadaa6a76"
          }
        ],
        "status": "registered",
        "code": {
          "coding": [
            {
              "code": "11502-2",
              "system": "http://loinc.org",
              "display": "Laboratory report"
            }
          ]
        },
        "subject": {
          "reference": "urn:uuid:4e4e6ded-b04c-48c1-9203-9807a74d5358",
          "display": "Marthe Gallet"
        }
      }
    },
    {
      "fullUrl": "urn:uuid:4e4e6ded-b04c-48c1-9203-9807a74d5358",
      "resource": {
        "resourceType": "Patient",
        "id": "4e4e6ded-b04c-48c1-9203-9807a74d5358",
        "meta": {
          "security": [
            {
              "system": "http://terminology.hl7.org/CodeSystem/v3-ActReason",
              "code": "HTEST"
            },
            {
              "system": "http://terminology.hl7.org/CodeSystem/v3-ActReason",
              "code": "TRAIN"
            }
          ],
          "tag": [
            {
              "system": "https://synderai.net/fhir/CodeSystem/tags",
              "code": "synthetic",
              "display": "SYNDERAI Synthetic data"
            }
          ],
          "profile": [
            "http://hl7.eu/fhir/base/StructureDefinition/patient-eu-core"
          ]
        },
        "identifier": [
          {
            "type": {
              "coding": [
                {
                  "code": "PT",
                  "system": "http://terminology.hl7.org/CodeSystem/v2-0203"
                }
              ]
            },
            "system": "http://ec.europa.eu/identifier/eci",
            "value": "9444-947487-6"
          },
          {
            "type": {
              "coding": [
                {
                  "code": "MR",
                  "system": "http://terminology.hl7.org/CodeSystem/v2-0203"
                }
              ]
            },
            "system": "http://local.setting.eu/identifier",
            "value": "854228d5-a476-2d9c-a1d7-c3202375a617"
          }
        ],
        "name": [
          {
            "family": "Gallet"
          },
          {
            "given": [
              "Marthe"
            ]
          },
          {
            "text": "Marthe Gallet"
          }
        ],
        "address": [
          {
            "line": [
              "3, rue Emmanuel Goncalves"
            ],
            "use": "home",
            "type": "physical",
            "postalCode": "49490",
            "city": "Briand",
            "country": "France"
          }
        ],
        "telecom": [
          {
            "system": "phone",
            "value": "+33 1 70 99 82 74"
          }
        ],
        "extension": [
          {
            "url": "http://hl7.org/fhir/StructureDefinition/patient-nationality",
            "valueCodeableConcept": {
              "coding": [
                {
                  "code": "FR",
                  "system": "http://hl7.org/fhir/ValueSet/country"
                }
              ]
            }
          }
        ],
        "text": {
          "status": "generated",
          "div": "<div xmlns=\"http://www.w3.org/1999/xhtml\"><table class=\"hl7__ips\"><tr><td>Marthe Gallet</td><td>female</td><td>29-Oct-1950</td></tr></table></div>"
        },
        "gender": "female",
        "birthDate": "1950-10-29"
      }
    },
    {
      "fullUrl": "urn:uuid:0017b71f-d6e6-4d80-9328-5426de98dfb5",
      "resource": {
        "resourceType": "ServiceRequest",
        "id": "0017b71f-d6e6-4d80-9328-5426de98dfb5",
        "meta": {
          "profile": [
            "http://hl7.eu/fhir/laboratory/StructureDefinition/ServiceRequest-eu-lab"
          ]
        },
        "identifier": [
          {
            "system": "http://example.org",
            "value": "469753be-3462-4571-ae52-807fd1478a42"
          }
        ],
        "specimen": [
          {
            "reference": "urn:uuid:d243ff0b-de01-46c5-b467-746c383c1385"
          },
          {
            "reference": "urn:uuid:0c461e87-3f48-4f41-87ad-358955415ac3"
          }
        ],
        "reasonCode": [
          {
            "coding": [
              {
                "code": "431856006",
                "system": "http://snomed.info/sct",
                "display": "Chronic kidney disease stage 2"
              }
            ]
          },
          {
            "coding": [
              {
                "code": "90781000119102",
                "system": "http://snomed.info/sct",
                "display": "Microalbuminuria due to type 2 diabetes mellitus"
              }
            ]
          },
          {
            "coding": [
              {
                "code": "127013003",
                "system": "http://snomed.info/sct",
                "display": "Disorder of kidney due to diabetes mellitus"
              }
            ]
          },
          {
            "coding": [
              {
                "code": "431855005",
                "system": "http://snomed.info/sct",
                "display": "Chronic kidney disease stage 1"
              }
            ]
          },
          {
            "coding": [
              {
                "code": "55822004",
                "system": "http://snomed.info/sct",
                "display": "Hyperlipidemia"
              }
            ]
          },
          {
            "coding": [
              {
                "code": "59621000",
                "system": "http://snomed.info/sct",
                "display": "Essential hypertension"
              }
            ]
          }
        ],
        "status": "active",
        "intent": "order",
        "code": {
          "coding": [
            {
              "code": "108252007",
              "system": "http://snomed.info/sct",
              "display": "Laboratory procedure"
            }
          ]
        },
        "subject": {
          "reference": "urn:uuid:4e4e6ded-b04c-48c1-9203-9807a74d5358",
          "display": "Marthe Gallet"
        },
        "requester": {
          "reference": "urn:uuid:e9187287-155b-41ec-b8b4-ac963f797fb0"
        }
      }
    },
    {
      "fullUrl": "urn:uuid:e9187287-155b-41ec-b8b4-ac963f797fb0",
      "resource": {
        "resourceType": "PractitionerRole",
        "id": "e9187287-155b-41ec-b8b4-ac963f797fb0",
        "meta": {
          "profile": [
            "http://hl7.eu/fhir/base/StructureDefinition/practitionerRole-eu"
          ]
        },
        "text": {
          "status": "generated",
          "div": "<div xmlns=\"http://www.w3.org/1999/xhtml\">Provider Role Id: e9187287-155b-41ec-b8b4-ac963f797fb0</div>"
        },
        "organization": {
          "reference": "urn:uuid:e6a17184-5841-43e3-87f3-d295707a9c09"
        }
      }
    },
    {
      "fullUrl": "urn:uuid:e6a17184-5841-43e3-87f3-d295707a9c09",
      "resource": {
        "resourceType": "Organization",
        "id": "e6a17184-5841-43e3-87f3-d295707a9c09",
        "meta": {
          "profile": [
            "http://hl7.eu/fhir/base/StructureDefinition/organization-eu"
          ]
        },
        "identifier": [
          {
            "assigner": {
              "display": "HL7 Europe"
            },
            "system": "urn:oid:2.16.840.1.113883.2.51.999",
            "value": "38ac4ab9-5661-4179-b214-8923646d63ac"
          }
        ],
        "address": [
          {
            "line": [
              "Rue Larrey nan"
            ],
            "city": "Angers",
            "postalCode": "49100",
            "country": "France"
          }
        ],
        "text": {
          "status": "generated",
          "div": "<div xmlns=\"http://www.w3.org/1999/xhtml\">Provider Organization: CHU d&#039;Angers</div>"
        },
        "name": "CHU d&#039;Angers"
      }
    },
    {
      "fullUrl": "urn:uuid:d243ff0b-de01-46c5-b467-746c383c1385",
      "resource": {
        "resourceType": "Specimen",
        "id": "d243ff0b-de01-46c5-b467-746c383c1385",
        "meta": {
          "profile": [
            "http://hl7.eu/fhir/laboratory/StructureDefinition/Specimen-eu-lab"
          ]
        },
        "collection": {
          "collectedDateTime": "2017-02-16"
        },
        "text": {
          "status": "generated",
          "div": "<div xmlns=\"http://www.w3.org/1999/xhtml\"><table class=\"hl7__eu__lab__report\"><tr><th>Specimen</th><th>Collection Date</th></tr><tr><td>Acellular blood (serum or plasma) specimen</td><td><span class=\"nb\">16-Feb-2017</span></td></tr></table></div>"
        },
        "type": {
          "coding": [
            {
              "code": "122592007",
              "system": "http://snomed.info/sct",
              "display": "Acellular blood (serum or plasma) specimen"
            }
          ]
        }
      }
    },
    {
      "fullUrl": "urn:uuid:0c461e87-3f48-4f41-87ad-358955415ac3",
      "resource": {
        "resourceType": "Specimen",
        "id": "0c461e87-3f48-4f41-87ad-358955415ac3",
        "meta": {
          "profile": [
            "http://hl7.eu/fhir/laboratory/StructureDefinition/Specimen-eu-lab"
          ]
        },
        "collection": {
          "collectedDateTime": "2017-02-16"
        },
        "text": {
          "status": "generated",
          "div": "<div xmlns=\"http://www.w3.org/1999/xhtml\"><table class=\"hl7__eu__lab__report\"><tr><th>Specimen</th><th>Collection Date</th></tr><tr><td>Urine specimen</td><td><span class=\"nb\">16-Feb-2017</span></td></tr></table></div>"
        },
        "type": {
          "coding": [
            {
              "code": "122575003",
              "system": "http://snomed.info/sct",
              "display": "Urine specimen"
            }
          ]
        }
      }
    },
    {
      "fullUrl": "urn:uuid:4492f00e-faa8-495a-bd05-f89b623b6614",
      "resource": {
        "resourceType": "Observation",
        "id": "4492f00e-faa8-495a-bd05-f89b623b6614",
        "meta": {
          "profile": [
            "http://hl7.eu/fhir/laboratory/StructureDefinition/Observation-resultslab-eu-lab"
          ]
        },
        "performer": [
          {
            "display": "The Central European Lab"
          }
        ],
        "category": [
          {
            "coding": [
              {
                "system": "http://terminology.hl7.org/CodeSystem/observation-category",
                "code": "laboratory"
              }
            ]
          }
        ],
        "code": {
          "coding": [
            {
              "code": "2345-7",
              "system": "http://loinc.org",
              "display": "Glucose [Mass/volume] in Serum or Plasma"
            }
          ],
          "text": "Glucose [Mass/volume] in Serum or Plasma"
        },
        "valueQuantity": {
          "system": "http://unitsofmeasure.org",
          "value": 70.7,
          "unit": "mg/dL",
          "code": "mg/dL"
        },
        "referenceRange": [
          {
            "low": {
              "value": 70,
              "code": "mg/dL",
              "system": "http://unitsofmeasure.org"
            }
          },
          {
            "high": {
              "value": 140,
              "code": "mg/dL",
              "system": "http://unitsofmeasure.org"
            }
          }
        ],
        "text": {
          "status": "generated",
          "div": "<div xmlns=\"http://www.w3.org/1999/xhtml\"><table class=\"hl7__eu__lab__report\"><tr><th>Test</th><th>16-Feb-2017</th><th>Reference&#xA0;Range</th><th>Unit</th></tr><tr><td>Glucose [Mass/volume] in Serum or Plasma</td><td>70.7</td><td>70 - 140</td><td></td><td>mg/dL</td></tr></table></div>"
        },
        "status": "final",
        "subject": {
          "reference": "urn:uuid:4e4e6ded-b04c-48c1-9203-9807a74d5358",
          "display": "Marthe Gallet"
        },
        "effectiveDateTime": "2017-02-16T19:05:43Z",
        "specimen": {
          "reference": "urn:uuid:d243ff0b-de01-46c5-b467-746c383c1385"
        }
      }
    },
    {
      "fullUrl": "urn:uuid:d2658dcc-d0e3-434b-986a-247e6bc226bb",
      "resource": {
        "resourceType": "Observation",
        "id": "d2658dcc-d0e3-434b-986a-247e6bc226bb",
        "meta": {
          "profile": [
            "http://hl7.eu/fhir/laboratory/StructureDefinition/Observation-resultslab-eu-lab"
          ]
        },
        "performer": [
          {
            "display": "The Central European Lab"
          }
        ],
        "category": [
          {
            "coding": [
              {
                "system": "http://terminology.hl7.org/CodeSystem/observation-category",
                "code": "laboratory"
              }
            ]
          }
        ],
        "code": {
          "coding": [
            {
              "code": "3094-0",
              "system": "http://loinc.org",
              "display": "Urea nitrogen [Mass/volume] in Serum or Plasma"
            }
          ],
          "text": "Urea nitrogen [Mass/volume] in Serum or Plasma"
        },
        "valueQuantity": {
          "system": "http://unitsofmeasure.org",
          "value": 12.8,
          "unit": "mg/dL",
          "code": "mg/dL"
        },
        "referenceRange": [
          {
            "low": {
              "value": 7,
              "code": "mg/dL",
              "system": "http://unitsofmeasure.org"
            }
          },
          {
            "high": {
              "value": 50,
              "code": "mg/dL",
              "system": "http://unitsofmeasure.org"
            }
          }
        ],
        "text": {
          "status": "generated",
          "div": "<div xmlns=\"http://www.w3.org/1999/xhtml\"><table class=\"hl7__eu__lab__report\"><tr><th>Test</th><th>16-Feb-2017</th><th>Reference&#xA0;Range</th><th>Unit</th></tr><tr><td>Urea nitrogen [Mass/volume] in Serum or Plasma</td><td>12.8</td><td>7 - 50</td><td></td><td>mg/dL</td></tr></table></div>"
        },
        "status": "final",
        "subject": {
          "reference": "urn:uuid:4e4e6ded-b04c-48c1-9203-9807a74d5358",
          "display": "Marthe Gallet"
        },
        "effectiveDateTime": "2017-02-16T19:05:43Z",
        "specimen": {
          "reference": "urn:uuid:d243ff0b-de01-46c5-b467-746c383c1385"
        }
      }
    },
    {
      "fullUrl": "urn:uuid:592d6b23-6c3f-4ed0-8b7e-c82879a4deae",
      "resource": {
        "resourceType": "Observation",
        "id": "592d6b23-6c3f-4ed0-8b7e-c82879a4deae",
        "meta": {
          "profile": [
            "http://hl7.eu/fhir/laboratory/StructureDefinition/Observation-resultslab-eu-lab"
          ]
        },
        "performer": [
          {
            "display": "The Central European Lab"
          }
        ],
        "category": [
          {
            "coding": [
              {
                "system": "http://terminology.hl7.org/CodeSystem/observation-category",
                "code": "laboratory"
              }
            ]
          }
        ],
        "code": {
          "coding": [
            {
              "code": "2160-0",
              "system": "http://loinc.org",
              "display": "Creatinine [Mass/volume] in Serum or Plasma"
            }
          ],
          "text": "Creatinine [Mass/volume] in Serum or Plasma"
        },
        "valueQuantity": {
          "system": "http://unitsofmeasure.org",
          "value": 1.6,
          "unit": "mg/dL",
          "code": "mg/dL"
        },
        "referenceRange": [
          {
            "low": {
              "value": 0.6,
              "code": "mg/dL",
              "system": "http://unitsofmeasure.org"
            }
          },
          {
            "high": {
              "value": 1.1,
              "code": "mg/dL",
              "system": "http://unitsofmeasure.org"
            }
          }
        ],
        "interpretation": [
          {
            "coding": [
              {
                "code": "H",
                "system": "http://terminology.hl7.org/CodeSystem/v3-ObservationInterpretation",
                "display": "High"
              }
            ]
          }
        ],
        "text": {
          "status": "generated",
          "div": "<div xmlns=\"http://www.w3.org/1999/xhtml\"><table class=\"hl7__eu__lab__report\"><tr><th>Test</th><th>16-Feb-2017</th><th>Reference&#xA0;Range</th><th>Unit</th></tr><tr><td>Creatinine [Mass/volume] in Serum or Plasma</td><td>1.6</td><td>0.6 - 1.1</td><td>H</td><td>mg/dL</td></tr></table></div>"
        },
        "status": "final",
        "subject": {
          "reference": "urn:uuid:4e4e6ded-b04c-48c1-9203-9807a74d5358",
          "display": "Marthe Gallet"
        },
        "effectiveDateTime": "2017-02-16T19:05:43Z",
        "specimen": {
          "reference": "urn:uuid:d243ff0b-de01-46c5-b467-746c383c1385"
        }
      }
    },
    {
      "fullUrl": "urn:uuid:541de4f9-5421-475f-8699-bc16546165a2",
      "resource": {
        "resourceType": "Observation",
        "id": "541de4f9-5421-475f-8699-bc16546165a2",
        "meta": {
          "profile": [
            "http://hl7.eu/fhir/laboratory/StructureDefinition/Observation-resultslab-eu-lab"
          ]
        },
        "performer": [
          {
            "display": "The Central European Lab"
          }
        ],
        "category": [
          {
            "coding": [
              {
                "system": "http://terminology.hl7.org/CodeSystem/observation-category",
                "code": "laboratory"
              }
            ]
          }
        ],
        "code": {
          "coding": [
            {
              "code": "17861-6",
              "system": "http://loinc.org",
              "display": "Calcium [Mass/volume] in Serum or Plasma"
            }
          ],
          "text": "Calcium [Mass/volume] in Serum or Plasma"
        },
        "valueQuantity": {
          "system": "http://unitsofmeasure.org",
          "value": 8.7,
          "unit": "mg/dL",
          "code": "mg/dL"
        },
        "referenceRange": [
          {
            "low": {
              "value": 8.5,
              "code": "mg/dL",
              "system": "http://unitsofmeasure.org"
            }
          },
          {
            "high": {
              "value": 10.5,
              "code": "mg/dL",
              "system": "http://unitsofmeasure.org"
            }
          }
        ],
        "text": {
          "status": "generated",
          "div": "<div xmlns=\"http://www.w3.org/1999/xhtml\"><table class=\"hl7__eu__lab__report\"><tr><th>Test</th><th>16-Feb-2017</th><th>Reference&#xA0;Range</th><th>Unit</th></tr><tr><td>Calcium [Mass/volume] in Serum or Plasma</td><td>8.7</td><td>8.5 - 10.5</td><td></td><td>mg/dL</td></tr></table></div>"
        },
        "status": "final",
        "subject": {
          "reference": "urn:uuid:4e4e6ded-b04c-48c1-9203-9807a74d5358",
          "display": "Marthe Gallet"
        },
        "effectiveDateTime": "2017-02-16T19:05:43Z",
        "specimen": {
          "reference": "urn:uuid:d243ff0b-de01-46c5-b467-746c383c1385"
        }
      }
    },
    {
      "fullUrl": "urn:uuid:151f9a72-4ced-4d24-9eea-37b018da0b5e",
      "resource": {
        "resourceType": "Observation",
        "id": "151f9a72-4ced-4d24-9eea-37b018da0b5e",
        "meta": {
          "profile": [
            "http://hl7.eu/fhir/laboratory/StructureDefinition/Observation-resultslab-eu-lab"
          ]
        },
        "performer": [
          {
            "display": "The Central European Lab"
          }
        ],
        "category": [
          {
            "coding": [
              {
                "system": "http://terminology.hl7.org/CodeSystem/observation-category",
                "code": "laboratory"
              }
            ]
          }
        ],
        "code": {
          "coding": [
            {
              "code": "2951-2",
              "system": "http://loinc.org",
              "display": "Sodium [Moles/volume] in Serum or Plasma"
            }
          ],
          "text": "Sodium [Moles/volume] in Serum or Plasma"
        },
        "valueQuantity": {
          "system": "http://unitsofmeasure.org",
          "value": 136.9,
          "unit": "mmol/L",
          "code": "mmol/L"
        },
        "referenceRange": [
          {
            "low": {
              "value": 135,
              "code": "mmol/L",
              "system": "http://unitsofmeasure.org"
            }
          },
          {
            "high": {
              "value": 145,
              "code": "mmol/L",
              "system": "http://unitsofmeasure.org"
            }
          }
        ],
        "text": {
          "status": "generated",
          "div": "<div xmlns=\"http://www.w3.org/1999/xhtml\"><table class=\"hl7__eu__lab__report\"><tr><th>Test</th><th>16-Feb-2017</th><th>Reference&#xA0;Range</th><th>Unit</th></tr><tr><td>Sodium [Moles/volume] in Serum or Plasma</td><td>136.9</td><td>135 - 145</td><td></td><td>mmol/L</td></tr></table></div>"
        },
        "status": "final",
        "subject": {
          "reference": "urn:uuid:4e4e6ded-b04c-48c1-9203-9807a74d5358",
          "display": "Marthe Gallet"
        },
        "effectiveDateTime": "2017-02-16T19:05:43Z",
        "specimen": {
          "reference": "urn:uuid:d243ff0b-de01-46c5-b467-746c383c1385"
        }
      }
    },
    {
      "fullUrl": "urn:uuid:bb007695-fcc7-4f6d-9b35-e36b118704a6",
      "resource": {
        "resourceType": "Observation",
        "id": "bb007695-fcc7-4f6d-9b35-e36b118704a6",
        "meta": {
          "profile": [
            "http://hl7.eu/fhir/laboratory/StructureDefinition/Observation-resultslab-eu-lab"
          ]
        },
        "performer": [
          {
            "display": "The Central European Lab"
          }
        ],
        "category": [
          {
            "coding": [
              {
                "system": "http://terminology.hl7.org/CodeSystem/observation-category",
                "code": "laboratory"
              }
            ]
          }
        ],
        "code": {
          "coding": [
            {
              "code": "2823-3",
              "system": "http://loinc.org",
              "display": "Potassium [Moles/volume] in Serum or Plasma"
            }
          ],
          "text": "Potassium [Moles/volume] in Serum or Plasma"
        },
        "valueQuantity": {
          "system": "http://unitsofmeasure.org",
          "value": 4.9,
          "unit": "mmol/L",
          "code": "mmol/L"
        },
        "referenceRange": [
          {
            "low": {
              "value": 3.5,
              "code": "mmol/L",
              "system": "http://unitsofmeasure.org"
            }
          },
          {
            "high": {
              "value": 5.1,
              "code": "mmol/L",
              "system": "http://unitsofmeasure.org"
            }
          }
        ],
        "text": {
          "status": "generated",
          "div": "<div xmlns=\"http://www.w3.org/1999/xhtml\"><table class=\"hl7__eu__lab__report\"><tr><th>Test</th><th>16-Feb-2017</th><th>Reference&#xA0;Range</th><th>Unit</th></tr><tr><td>Potassium [Moles/volume] in Serum or Plasma</td><td>4.9</td><td>3.5 - 5.1</td><td></td><td>mmol/L</td></tr></table></div>"
        },
        "status": "final",
        "subject": {
          "reference": "urn:uuid:4e4e6ded-b04c-48c1-9203-9807a74d5358",
          "display": "Marthe Gallet"
        },
        "effectiveDateTime": "2017-02-16T19:05:43Z",
        "specimen": {
          "reference": "urn:uuid:d243ff0b-de01-46c5-b467-746c383c1385"
        }
      }
    },
    {
      "fullUrl": "urn:uuid:592a3bfb-ff02-444b-8de6-7cca11756468",
      "resource": {
        "resourceType": "Observation",
        "id": "592a3bfb-ff02-444b-8de6-7cca11756468",
        "meta": {
          "profile": [
            "http://hl7.eu/fhir/laboratory/StructureDefinition/Observation-resultslab-eu-lab"
          ]
        },
        "performer": [
          {
            "display": "The Central European Lab"
          }
        ],
        "category": [
          {
            "coding": [
              {
                "system": "http://terminology.hl7.org/CodeSystem/observation-category",
                "code": "laboratory"
              }
            ]
          }
        ],
        "code": {
          "coding": [
            {
              "code": "2075-0",
              "system": "http://loinc.org",
              "display": "Chloride [Moles/volume] in Serum or Plasma"
            }
          ],
          "text": "Chloride [Moles/volume] in Serum or Plasma"
        },
        "valueQuantity": {
          "system": "http://unitsofmeasure.org",
          "value": 108.8,
          "unit": "mmol/L",
          "code": "mmol/L"
        },
        "referenceRange": [
          {
            "low": {
              "value": 98,
              "code": "mmol/L",
              "system": "http://unitsofmeasure.org"
            }
          },
          {
            "high": {
              "value": 108,
              "code": "mmol/L",
              "system": "http://unitsofmeasure.org"
            }
          }
        ],
        "interpretation": [
          {
            "coding": [
              {
                "code": "H",
                "system": "http://terminology.hl7.org/CodeSystem/v3-ObservationInterpretation",
                "display": "High"
              }
            ]
          }
        ],
        "text": {
          "status": "generated",
          "div": "<div xmlns=\"http://www.w3.org/1999/xhtml\"><table class=\"hl7__eu__lab__report\"><tr><th>Test</th><th>16-Feb-2017</th><th>Reference&#xA0;Range</th><th>Unit</th></tr><tr><td>Chloride [Moles/volume] in Serum or Plasma</td><td>108.8</td><td>98 - 108</td><td>H</td><td>mmol/L</td></tr></table></div>"
        },
        "status": "final",
        "subject": {
          "reference": "urn:uuid:4e4e6ded-b04c-48c1-9203-9807a74d5358",
          "display": "Marthe Gallet"
        },
        "effectiveDateTime": "2017-02-16T19:05:43Z",
        "specimen": {
          "reference": "urn:uuid:d243ff0b-de01-46c5-b467-746c383c1385"
        }
      }
    },
    {
      "fullUrl": "urn:uuid:8424fc6e-ed2b-4c60-bab7-d5b335836ea8",
      "resource": {
        "resourceType": "Observation",
        "id": "8424fc6e-ed2b-4c60-bab7-d5b335836ea8",
        "meta": {
          "profile": [
            "http://hl7.eu/fhir/laboratory/StructureDefinition/Observation-resultslab-eu-lab"
          ]
        },
        "performer": [
          {
            "display": "The Central European Lab"
          }
        ],
        "category": [
          {
            "coding": [
              {
                "system": "http://terminology.hl7.org/CodeSystem/observation-category",
                "code": "laboratory"
              }
            ]
          }
        ],
        "code": {
          "coding": [
            {
              "code": "2028-9",
              "system": "http://loinc.org",
              "display": "Carbon dioxide, total [Moles/volume] in Serum or Plasma"
            }
          ],
          "text": "Carbon dioxide, total [Moles/volume] in Serum or Plasma"
        },
        "valueQuantity": {
          "system": "http://unitsofmeasure.org",
          "value": 23.9,
          "unit": "mmol/L",
          "code": "mmol/L"
        },
        "referenceRange": [
          {
            "low": {
              "value": 22,
              "code": "mmol/L",
              "system": "http://unitsofmeasure.org"
            }
          },
          {
            "high": {
              "value": 32,
              "code": "mmol/L",
              "system": "http://unitsofmeasure.org"
            }
          }
        ],
        "text": {
          "status": "generated",
          "div": "<div xmlns=\"http://www.w3.org/1999/xhtml\"><table class=\"hl7__eu__lab__report\"><tr><th>Test</th><th>16-Feb-2017</th><th>Reference&#xA0;Range</th><th>Unit</th></tr><tr><td>Carbon dioxide, total [Moles/volume] in Serum or Plasma</td><td>23.9</td><td>22 - 32</td><td></td><td>mmol/L</td></tr></table></div>"
        },
        "status": "final",
        "subject": {
          "reference": "urn:uuid:4e4e6ded-b04c-48c1-9203-9807a74d5358",
          "display": "Marthe Gallet"
        },
        "effectiveDateTime": "2017-02-16T19:05:43Z",
        "specimen": {
          "reference": "urn:uuid:d243ff0b-de01-46c5-b467-746c383c1385"
        }
      }
    },
    {
      "fullUrl": "urn:uuid:8256f2a5-b84b-41fc-807e-b16886c1749a",
      "resource": {
        "resourceType": "Observation",
        "id": "8256f2a5-b84b-41fc-807e-b16886c1749a",
        "meta": {
          "profile": [
            "http://hl7.eu/fhir/laboratory/StructureDefinition/Observation-resultslab-eu-lab"
          ]
        },
        "performer": [
          {
            "display": "The Central European Lab"
          }
        ],
        "category": [
          {
            "coding": [
              {
                "system": "http://terminology.hl7.org/CodeSystem/observation-category",
                "code": "laboratory"
              }
            ]
          }
        ],
        "code": {
          "coding": [
            {
              "code": "5767-9",
              "system": "http://loinc.org",
              "display": "Appearance of Urine"
            }
          ],
          "text": "Appearance of Urine"
        },
        "text": {
          "status": "generated",
          "div": "<div xmlns=\"http://www.w3.org/1999/xhtml\"><table class=\"hl7__eu__lab__report\"><tr><th>Test</th><th>16-Feb-2017</th><th>Reference&#xA0;Range</th><th>Unit</th></tr><tr><td>Appearance of Urine</td></tr></table></div>"
        },
        "status": "final",
        "subject": {
          "reference": "urn:uuid:4e4e6ded-b04c-48c1-9203-9807a74d5358",
          "display": "Marthe Gallet"
        },
        "effectiveDateTime": "2017-02-16T19:05:43Z",
        "specimen": {
          "reference": "urn:uuid:0c461e87-3f48-4f41-87ad-358955415ac3"
        }
      }
    },
    {
      "fullUrl": "urn:uuid:b27a9b9b-79e0-4b6f-bdb6-c752f2a21704",
      "resource": {
        "resourceType": "Observation",
        "id": "b27a9b9b-79e0-4b6f-bdb6-c752f2a21704",
        "meta": {
          "profile": [
            "http://hl7.eu/fhir/laboratory/StructureDefinition/Observation-resultslab-eu-lab"
          ]
        },
        "performer": [
          {
            "display": "The Central European Lab"
          }
        ],
        "category": [
          {
            "coding": [
              {
                "system": "http://terminology.hl7.org/CodeSystem/observation-category",
                "code": "laboratory"
              }
            ]
          }
        ],
        "code": {
          "coding": [
            {
              "code": "34533-0",
              "system": "http://loinc.org",
              "display": "Odor of Urine"
            }
          ],
          "text": "Odor of Urine"
        },
        "text": {
          "status": "generated",
          "div": "<div xmlns=\"http://www.w3.org/1999/xhtml\"><table class=\"hl7__eu__lab__report\"><tr><th>Test</th><th>16-Feb-2017</th><th>Reference&#xA0;Range</th><th>Unit</th></tr><tr><td>Odor of Urine</td></tr></table></div>"
        },
        "status": "final",
        "subject": {
          "reference": "urn:uuid:4e4e6ded-b04c-48c1-9203-9807a74d5358",
          "display": "Marthe Gallet"
        },
        "effectiveDateTime": "2017-02-16T19:05:43Z",
        "specimen": {
          "reference": "urn:uuid:0c461e87-3f48-4f41-87ad-358955415ac3"
        }
      }
    },
    {
      "fullUrl": "urn:uuid:788e4c06-ced5-4d2d-8dd9-a2cb447462df",
      "resource": {
        "resourceType": "Observation",
        "id": "788e4c06-ced5-4d2d-8dd9-a2cb447462df",
        "meta": {
          "profile": [
            "http://hl7.eu/fhir/laboratory/StructureDefinition/Observation-resultslab-eu-lab"
          ]
        },
        "performer": [
          {
            "display": "The Central European Lab"
          }
        ],
        "category": [
          {
            "coding": [
              {
                "system": "http://terminology.hl7.org/CodeSystem/observation-category",
                "code": "laboratory"
              }
            ]
          }
        ],
        "code": {
          "coding": [
            {
              "code": "32167-9",
              "system": "http://loinc.org",
              "display": "Clarity of Urine"
            }
          ],
          "text": "Clarity of Urine"
        },
        "text": {
          "status": "generated",
          "div": "<div xmlns=\"http://www.w3.org/1999/xhtml\"><table class=\"hl7__eu__lab__report\"><tr><th>Test</th><th>16-Feb-2017</th><th>Reference&#xA0;Range</th><th>Unit</th></tr><tr><td>Clarity of Urine</td></tr></table></div>"
        },
        "status": "final",
        "subject": {
          "reference": "urn:uuid:4e4e6ded-b04c-48c1-9203-9807a74d5358",
          "display": "Marthe Gallet"
        },
        "effectiveDateTime": "2017-02-16T19:05:43Z",
        "specimen": {
          "reference": "urn:uuid:0c461e87-3f48-4f41-87ad-358955415ac3"
        }
      }
    },
    {
      "fullUrl": "urn:uuid:c9333861-650d-4252-bc75-0d27f4b2824d",
      "resource": {
        "resourceType": "Observation",
        "id": "c9333861-650d-4252-bc75-0d27f4b2824d",
        "meta": {
          "profile": [
            "http://hl7.eu/fhir/laboratory/StructureDefinition/Observation-resultslab-eu-lab"
          ]
        },
        "performer": [
          {
            "display": "The Central European Lab"
          }
        ],
        "category": [
          {
            "coding": [
              {
                "system": "http://terminology.hl7.org/CodeSystem/observation-category",
                "code": "laboratory"
              }
            ]
          }
        ],
        "code": {
          "coding": [
            {
              "code": "5778-6",
              "system": "http://loinc.org",
              "display": "Color of Urine"
            }
          ],
          "text": "Color of Urine"
        },
        "text": {
          "status": "generated",
          "div": "<div xmlns=\"http://www.w3.org/1999/xhtml\"><table class=\"hl7__eu__lab__report\"><tr><th>Test</th><th>16-Feb-2017</th><th>Reference&#xA0;Range</th><th>Unit</th></tr><tr><td>Color of Urine</td></tr></table></div>"
        },
        "status": "final",
        "subject": {
          "reference": "urn:uuid:4e4e6ded-b04c-48c1-9203-9807a74d5358",
          "display": "Marthe Gallet"
        },
        "effectiveDateTime": "2017-02-16T19:05:43Z",
        "specimen": {
          "reference": "urn:uuid:0c461e87-3f48-4f41-87ad-358955415ac3"
        }
      }
    },
    {
      "fullUrl": "urn:uuid:49ed3f62-d4c8-448d-823e-25a54f91d434",
      "resource": {
        "resourceType": "Observation",
        "id": "49ed3f62-d4c8-448d-823e-25a54f91d434",
        "meta": {
          "profile": [
            "http://hl7.eu/fhir/laboratory/StructureDefinition/Observation-resultslab-eu-lab"
          ]
        },
        "performer": [
          {
            "display": "The Central European Lab"
          }
        ],
        "category": [
          {
            "coding": [
              {
                "system": "http://terminology.hl7.org/CodeSystem/observation-category",
                "code": "laboratory"
              }
            ]
          }
        ],
        "code": {
          "coding": [
            {
              "code": "5792-7",
              "system": "http://loinc.org",
              "display": "Glucose [Mass/volume] in Urine by Test strip"
            }
          ],
          "text": "Glucose [Mass/volume] in Urine by Test strip"
        },
        "valueQuantity": {
          "system": "http://unitsofmeasure.org",
          "value": 0.7,
          "unit": "mg/dL",
          "code": "mg/dL"
        },
        "referenceRange": [
          {
            "low": {
              "value": 0.8,
              "code": "mg/dL",
              "system": "http://unitsofmeasure.org"
            }
          },
          {
            "high": {
              "value": 0,
              "code": "mg/dL",
              "system": "http://unitsofmeasure.org"
            }
          }
        ],
        "interpretation": [
          {
            "coding": [
              {
                "code": "L",
                "system": "http://terminology.hl7.org/CodeSystem/v3-ObservationInterpretation",
                "display": "Low"
              }
            ]
          }
        ],
        "text": {
          "status": "generated",
          "div": "<div xmlns=\"http://www.w3.org/1999/xhtml\"><table class=\"hl7__eu__lab__report\"><tr><th>Test</th><th>16-Feb-2017</th><th>Reference&#xA0;Range</th><th>Unit</th></tr><tr><td>Glucose [Mass/volume] in Urine by Test strip</td><td>0.7</td><td>0.8 - 0</td><td>L</td><td>mg/dL</td></tr></table></div>"
        },
        "status": "final",
        "subject": {
          "reference": "urn:uuid:4e4e6ded-b04c-48c1-9203-9807a74d5358",
          "display": "Marthe Gallet"
        },
        "effectiveDateTime": "2017-02-16T19:05:43Z",
        "specimen": {
          "reference": "urn:uuid:0c461e87-3f48-4f41-87ad-358955415ac3"
        }
      }
    },
    {
      "fullUrl": "urn:uuid:4d217eff-60d8-45db-81b8-96e6f0775f07",
      "resource": {
        "resourceType": "Observation",
        "id": "4d217eff-60d8-45db-81b8-96e6f0775f07",
        "meta": {
          "profile": [
            "http://hl7.eu/fhir/laboratory/StructureDefinition/Observation-resultslab-eu-lab"
          ]
        },
        "performer": [
          {
            "display": "The Central European Lab"
          }
        ],
        "category": [
          {
            "coding": [
              {
                "system": "http://terminology.hl7.org/CodeSystem/observation-category",
                "code": "laboratory"
              }
            ]
          }
        ],
        "code": {
          "coding": [
            {
              "code": "25428-4",
              "system": "http://loinc.org",
              "display": "Glucose [Presence] in Urine by Test strip"
            }
          ],
          "text": "Glucose [Presence] in Urine by Test strip"
        },
        "text": {
          "status": "generated",
          "div": "<div xmlns=\"http://www.w3.org/1999/xhtml\"><table class=\"hl7__eu__lab__report\"><tr><th>Test</th><th>16-Feb-2017</th><th>Reference&#xA0;Range</th><th>Unit</th></tr><tr><td>Glucose [Presence] in Urine by Test strip</td></tr></table></div>"
        },
        "status": "final",
        "subject": {
          "reference": "urn:uuid:4e4e6ded-b04c-48c1-9203-9807a74d5358",
          "display": "Marthe Gallet"
        },
        "effectiveDateTime": "2017-02-16T19:05:43Z",
        "specimen": {
          "reference": "urn:uuid:0c461e87-3f48-4f41-87ad-358955415ac3"
        }
      }
    },
    {
      "fullUrl": "urn:uuid:1c2a814e-0d34-4ca5-a0fc-6b48239acdd4",
      "resource": {
        "resourceType": "Observation",
        "id": "1c2a814e-0d34-4ca5-a0fc-6b48239acdd4",
        "meta": {
          "profile": [
            "http://hl7.eu/fhir/laboratory/StructureDefinition/Observation-resultslab-eu-lab"
          ]
        },
        "performer": [
          {
            "display": "The Central European Lab"
          }
        ],
        "category": [
          {
            "coding": [
              {
                "system": "http://terminology.hl7.org/CodeSystem/observation-category",
                "code": "laboratory"
              }
            ]
          }
        ],
        "code": {
          "coding": [
            {
              "code": "20505-4",
              "system": "http://loinc.org",
              "display": "Bilirubin.total [Mass/volume] in Urine by Test strip"
            }
          ],
          "text": "Bilirubin.total [Mass/volume] in Urine by Test strip"
        },
        "valueQuantity": {
          "system": "http://unitsofmeasure.org",
          "value": 0.5,
          "unit": "mg/dL",
          "code": "mg/dL"
        },
        "referenceRange": [
          {
            "low": {
              "value": 0,
              "code": "mg/dL",
              "system": "http://unitsofmeasure.org"
            }
          },
          {
            "high": {
              "value": 1,
              "code": "mg/dL",
              "system": "http://unitsofmeasure.org"
            }
          }
        ],
        "text": {
          "status": "generated",
          "div": "<div xmlns=\"http://www.w3.org/1999/xhtml\"><table class=\"hl7__eu__lab__report\"><tr><th>Test</th><th>16-Feb-2017</th><th>Reference&#xA0;Range</th><th>Unit</th></tr><tr><td>Bilirubin.total [Mass/volume] in Urine by Test strip</td><td>0.5</td><td>0 - 1</td><td></td><td>mg/dL</td></tr></table></div>"
        },
        "status": "final",
        "subject": {
          "reference": "urn:uuid:4e4e6ded-b04c-48c1-9203-9807a74d5358",
          "display": "Marthe Gallet"
        },
        "effectiveDateTime": "2017-02-16T19:05:43Z",
        "specimen": {
          "reference": "urn:uuid:0c461e87-3f48-4f41-87ad-358955415ac3"
        }
      }
    },
    {
      "fullUrl": "urn:uuid:f06d57c8-de32-4543-8082-52dc9a432706",
      "resource": {
        "resourceType": "Observation",
        "id": "f06d57c8-de32-4543-8082-52dc9a432706",
        "meta": {
          "profile": [
            "http://hl7.eu/fhir/laboratory/StructureDefinition/Observation-resultslab-eu-lab"
          ]
        },
        "performer": [
          {
            "display": "The Central European Lab"
          }
        ],
        "category": [
          {
            "coding": [
              {
                "system": "http://terminology.hl7.org/CodeSystem/observation-category",
                "code": "laboratory"
              }
            ]
          }
        ],
        "code": {
          "coding": [
            {
              "code": "5770-3",
              "system": "http://loinc.org",
              "display": "Bilirubin.total [Presence] in Urine by Test strip"
            }
          ],
          "text": "Bilirubin.total [Presence] in Urine by Test strip"
        },
        "text": {
          "status": "generated",
          "div": "<div xmlns=\"http://www.w3.org/1999/xhtml\"><table class=\"hl7__eu__lab__report\"><tr><th>Test</th><th>16-Feb-2017</th><th>Reference&#xA0;Range</th><th>Unit</th></tr><tr><td>Bilirubin.total [Presence] in Urine by Test strip</td></tr></table></div>"
        },
        "status": "final",
        "subject": {
          "reference": "urn:uuid:4e4e6ded-b04c-48c1-9203-9807a74d5358",
          "display": "Marthe Gallet"
        },
        "effectiveDateTime": "2017-02-16T19:05:43Z",
        "specimen": {
          "reference": "urn:uuid:0c461e87-3f48-4f41-87ad-358955415ac3"
        }
      }
    },
    {
      "fullUrl": "urn:uuid:4ae63f05-57a2-4bed-b075-a1adebb9089a",
      "resource": {
        "resourceType": "Observation",
        "id": "4ae63f05-57a2-4bed-b075-a1adebb9089a",
        "meta": {
          "profile": [
            "http://hl7.eu/fhir/laboratory/StructureDefinition/Observation-resultslab-eu-lab"
          ]
        },
        "performer": [
          {
            "display": "The Central European Lab"
          }
        ],
        "category": [
          {
            "coding": [
              {
                "system": "http://terminology.hl7.org/CodeSystem/observation-category",
                "code": "laboratory"
              }
            ]
          }
        ],
        "code": {
          "coding": [
            {
              "code": "5797-6",
              "system": "http://loinc.org",
              "display": "Ketones [Mass/volume] in Urine by Test strip"
            }
          ],
          "text": "Ketones [Mass/volume] in Urine by Test strip"
        },
        "valueQuantity": {
          "system": "http://unitsofmeasure.org",
          "value": 11.7,
          "unit": "mg/dL",
          "code": "mg/dL"
        },
        "referenceRange": [
          {
            "low": {
              "value": 0,
              "code": "mg/dL",
              "system": "http://unitsofmeasure.org"
            }
          },
          {
            "high": {
              "value": 20,
              "code": "mg/dL",
              "system": "http://unitsofmeasure.org"
            }
          }
        ],
        "text": {
          "status": "generated",
          "div": "<div xmlns=\"http://www.w3.org/1999/xhtml\"><table class=\"hl7__eu__lab__report\"><tr><th>Test</th><th>16-Feb-2017</th><th>Reference&#xA0;Range</th><th>Unit</th></tr><tr><td>Ketones [Mass/volume] in Urine by Test strip</td><td>11.7</td><td>0 - 20</td><td></td><td>mg/dL</td></tr></table></div>"
        },
        "status": "final",
        "subject": {
          "reference": "urn:uuid:4e4e6ded-b04c-48c1-9203-9807a74d5358",
          "display": "Marthe Gallet"
        },
        "effectiveDateTime": "2017-02-16T19:05:43Z",
        "specimen": {
          "reference": "urn:uuid:0c461e87-3f48-4f41-87ad-358955415ac3"
        }
      }
    },
    {
      "fullUrl": "urn:uuid:75dbbc94-5f04-41ec-b43b-32689d639b27",
      "resource": {
        "resourceType": "Observation",
        "id": "75dbbc94-5f04-41ec-b43b-32689d639b27",
        "meta": {
          "profile": [
            "http://hl7.eu/fhir/laboratory/StructureDefinition/Observation-resultslab-eu-lab"
          ]
        },
        "performer": [
          {
            "display": "The Central European Lab"
          }
        ],
        "category": [
          {
            "coding": [
              {
                "system": "http://terminology.hl7.org/CodeSystem/observation-category",
                "code": "laboratory"
              }
            ]
          }
        ],
        "code": {
          "coding": [
            {
              "code": "2514-8",
              "system": "http://loinc.org",
              "display": "Ketones [Presence] in Urine by Test strip"
            }
          ],
          "text": "Ketones [Presence] in Urine by Test strip"
        },
        "text": {
          "status": "generated",
          "div": "<div xmlns=\"http://www.w3.org/1999/xhtml\"><table class=\"hl7__eu__lab__report\"><tr><th>Test</th><th>16-Feb-2017</th><th>Reference&#xA0;Range</th><th>Unit</th></tr><tr><td>Ketones [Presence] in Urine by Test strip</td></tr></table></div>"
        },
        "status": "final",
        "subject": {
          "reference": "urn:uuid:4e4e6ded-b04c-48c1-9203-9807a74d5358",
          "display": "Marthe Gallet"
        },
        "effectiveDateTime": "2017-02-16T19:05:43Z",
        "specimen": {
          "reference": "urn:uuid:0c461e87-3f48-4f41-87ad-358955415ac3"
        }
      }
    },
    {
      "fullUrl": "urn:uuid:38f9b8cf-5b30-478a-a33c-8e3bc30c07dd",
      "resource": {
        "resourceType": "Observation",
        "id": "38f9b8cf-5b30-478a-a33c-8e3bc30c07dd",
        "meta": {
          "profile": [
            "http://hl7.eu/fhir/laboratory/StructureDefinition/Observation-resultslab-eu-lab"
          ]
        },
        "performer": [
          {
            "display": "The Central European Lab"
          }
        ],
        "category": [
          {
            "coding": [
              {
                "system": "http://terminology.hl7.org/CodeSystem/observation-category",
                "code": "laboratory"
              }
            ]
          }
        ],
        "code": {
          "coding": [
            {
              "code": "5811-5",
              "system": "http://loinc.org",
              "display": "Specific gravity of Urine by Test strip"
            }
          ],
          "text": "Specific gravity of Urine by Test strip"
        },
        "valueQuantity": {
          "system": "http://unitsofmeasure.org",
          "value": 1,
          "unit": "{nominal}",
          "code": "{nominal}"
        },
        "referenceRange": [
          {
            "low": {
              "value": 1.01,
              "code": "g/mL",
              "system": "http://unitsofmeasure.org"
            }
          },
          {
            "high": {
              "value": 1.03,
              "code": "g/mL",
              "system": "http://unitsofmeasure.org"
            }
          }
        ],
        "interpretation": [
          {
            "coding": [
              {
                "code": "L",
                "system": "http://terminology.hl7.org/CodeSystem/v3-ObservationInterpretation",
                "display": "Low"
              }
            ]
          }
        ],
        "text": {
          "status": "generated",
          "div": "<div xmlns=\"http://www.w3.org/1999/xhtml\"><table class=\"hl7__eu__lab__report\"><tr><th>Test</th><th>16-Feb-2017</th><th>Reference&#xA0;Range</th><th>Unit</th></tr><tr><td>Specific gravity of Urine by Test strip</td><td>1.0</td><td>1.01 - 1.03</td><td>L</td><td>{nominal}</td></tr></table></div>"
        },
        "status": "final",
        "subject": {
          "reference": "urn:uuid:4e4e6ded-b04c-48c1-9203-9807a74d5358",
          "display": "Marthe Gallet"
        },
        "effectiveDateTime": "2017-02-16T19:05:43Z",
        "specimen": {
          "reference": "urn:uuid:0c461e87-3f48-4f41-87ad-358955415ac3"
        }
      }
    },
    {
      "fullUrl": "urn:uuid:c95ebbbb-23b5-4a29-ae2b-4f85a72313dc",
      "resource": {
        "resourceType": "Observation",
        "id": "c95ebbbb-23b5-4a29-ae2b-4f85a72313dc",
        "meta": {
          "profile": [
            "http://hl7.eu/fhir/laboratory/StructureDefinition/Observation-resultslab-eu-lab"
          ]
        },
        "performer": [
          {
            "display": "The Central European Lab"
          }
        ],
        "category": [
          {
            "coding": [
              {
                "system": "http://terminology.hl7.org/CodeSystem/observation-category",
                "code": "laboratory"
              }
            ]
          }
        ],
        "code": {
          "coding": [
            {
              "code": "5803-2",
              "system": "http://loinc.org",
              "display": "pH of Urine by Test strip"
            }
          ],
          "text": "pH of Urine by Test strip"
        },
        "valueQuantity": {
          "system": "http://unitsofmeasure.org",
          "value": 6.3,
          "unit": "pH",
          "code": "pH"
        },
        "referenceRange": [
          {
            "low": {
              "value": 4.6,
              "code": "pH",
              "system": "http://unitsofmeasure.org"
            }
          },
          {
            "high": {
              "value": 7,
              "code": "pH",
              "system": "http://unitsofmeasure.org"
            }
          }
        ],
        "text": {
          "status": "generated",
          "div": "<div xmlns=\"http://www.w3.org/1999/xhtml\"><table class=\"hl7__eu__lab__report\"><tr><th>Test</th><th>16-Feb-2017</th><th>Reference&#xA0;Range</th><th>Unit</th></tr><tr><td>pH of Urine by Test strip</td><td>6.3</td><td>4.6 - 7</td><td></td><td>pH</td></tr></table></div>"
        },
        "status": "final",
        "subject": {
          "reference": "urn:uuid:4e4e6ded-b04c-48c1-9203-9807a74d5358",
          "display": "Marthe Gallet"
        },
        "effectiveDateTime": "2017-02-16T19:05:43Z",
        "specimen": {
          "reference": "urn:uuid:0c461e87-3f48-4f41-87ad-358955415ac3"
        }
      }
    },
    {
      "fullUrl": "urn:uuid:2bead489-9281-4740-99c4-06f34d8a4fb7",
      "resource": {
        "resourceType": "Observation",
        "id": "2bead489-9281-4740-99c4-06f34d8a4fb7",
        "meta": {
          "profile": [
            "http://hl7.eu/fhir/laboratory/StructureDefinition/Observation-resultslab-eu-lab"
          ]
        },
        "performer": [
          {
            "display": "The Central European Lab"
          }
        ],
        "category": [
          {
            "coding": [
              {
                "system": "http://terminology.hl7.org/CodeSystem/observation-category",
                "code": "laboratory"
              }
            ]
          }
        ],
        "code": {
          "coding": [
            {
              "code": "5804-0",
              "system": "http://loinc.org",
              "display": "Protein [Mass/volume] in Urine by Test strip"
            }
          ],
          "text": "Protein [Mass/volume] in Urine by Test strip"
        },
        "valueQuantity": {
          "system": "http://unitsofmeasure.org",
          "value": 116.3,
          "unit": "mg/dL",
          "code": "mg/dL"
        },
        "referenceRange": [
          {
            "low": {
              "value": 0,
              "code": "mg/dL",
              "system": "http://unitsofmeasure.org"
            }
          },
          {
            "high": {
              "value": 15,
              "code": "mg/dL",
              "system": "http://unitsofmeasure.org"
            }
          }
        ],
        "interpretation": [
          {
            "coding": [
              {
                "code": "H",
                "system": "http://terminology.hl7.org/CodeSystem/v3-ObservationInterpretation",
                "display": "High"
              }
            ]
          }
        ],
        "text": {
          "status": "generated",
          "div": "<div xmlns=\"http://www.w3.org/1999/xhtml\"><table class=\"hl7__eu__lab__report\"><tr><th>Test</th><th>16-Feb-2017</th><th>Reference&#xA0;Range</th><th>Unit</th></tr><tr><td>Protein [Mass/volume] in Urine by Test strip</td><td>116.3</td><td>0 - 15</td><td>H</td><td>mg/dL</td></tr></table></div>"
        },
        "status": "final",
        "subject": {
          "reference": "urn:uuid:4e4e6ded-b04c-48c1-9203-9807a74d5358",
          "display": "Marthe Gallet"
        },
        "effectiveDateTime": "2017-02-16T19:05:43Z",
        "specimen": {
          "reference": "urn:uuid:0c461e87-3f48-4f41-87ad-358955415ac3"
        }
      }
    },
    {
      "fullUrl": "urn:uuid:3334bce3-4765-4aec-a5ac-611ffbd98fa6",
      "resource": {
        "resourceType": "Observation",
        "id": "3334bce3-4765-4aec-a5ac-611ffbd98fa6",
        "meta": {
          "profile": [
            "http://hl7.eu/fhir/laboratory/StructureDefinition/Observation-resultslab-eu-lab"
          ]
        },
        "performer": [
          {
            "display": "The Central European Lab"
          }
        ],
        "category": [
          {
            "coding": [
              {
                "system": "http://terminology.hl7.org/CodeSystem/observation-category",
                "code": "laboratory"
              }
            ]
          }
        ],
        "code": {
          "coding": [
            {
              "code": "20454-5",
              "system": "http://loinc.org",
              "display": "Protein [Presence] in Urine by Test strip"
            }
          ],
          "text": "Protein [Presence] in Urine by Test strip"
        },
        "text": {
          "status": "generated",
          "div": "<div xmlns=\"http://www.w3.org/1999/xhtml\"><table class=\"hl7__eu__lab__report\"><tr><th>Test</th><th>16-Feb-2017</th><th>Reference&#xA0;Range</th><th>Unit</th></tr><tr><td>Protein [Presence] in Urine by Test strip</td></tr></table></div>"
        },
        "status": "final",
        "subject": {
          "reference": "urn:uuid:4e4e6ded-b04c-48c1-9203-9807a74d5358",
          "display": "Marthe Gallet"
        },
        "effectiveDateTime": "2017-02-16T19:05:43Z",
        "specimen": {
          "reference": "urn:uuid:0c461e87-3f48-4f41-87ad-358955415ac3"
        }
      }
    },
    {
      "fullUrl": "urn:uuid:ec5a84a1-9e26-4589-ade2-e704c0f98c22",
      "resource": {
        "resourceType": "Observation",
        "id": "ec5a84a1-9e26-4589-ade2-e704c0f98c22",
        "meta": {
          "profile": [
            "http://hl7.eu/fhir/laboratory/StructureDefinition/Observation-resultslab-eu-lab"
          ]
        },
        "performer": [
          {
            "display": "The Central European Lab"
          }
        ],
        "category": [
          {
            "coding": [
              {
                "system": "http://terminology.hl7.org/CodeSystem/observation-category",
                "code": "laboratory"
              }
            ]
          }
        ],
        "code": {
          "coding": [
            {
              "code": "5802-4",
              "system": "http://loinc.org",
              "display": "Nitrite [Presence] in Urine by Test strip"
            }
          ],
          "text": "Nitrite [Presence] in Urine by Test strip"
        },
        "text": {
          "status": "generated",
          "div": "<div xmlns=\"http://www.w3.org/1999/xhtml\"><table class=\"hl7__eu__lab__report\"><tr><th>Test</th><th>16-Feb-2017</th><th>Reference&#xA0;Range</th><th>Unit</th></tr><tr><td>Nitrite [Presence] in Urine by Test strip</td></tr></table></div>"
        },
        "status": "final",
        "subject": {
          "reference": "urn:uuid:4e4e6ded-b04c-48c1-9203-9807a74d5358",
          "display": "Marthe Gallet"
        },
        "effectiveDateTime": "2017-02-16T19:05:43Z",
        "specimen": {
          "reference": "urn:uuid:0c461e87-3f48-4f41-87ad-358955415ac3"
        }
      }
    },
    {
      "fullUrl": "urn:uuid:53b7750d-7a93-4c3c-a934-6f67c009f1c0",
      "resource": {
        "resourceType": "Observation",
        "id": "53b7750d-7a93-4c3c-a934-6f67c009f1c0",
        "meta": {
          "profile": [
            "http://hl7.eu/fhir/laboratory/StructureDefinition/Observation-resultslab-eu-lab"
          ]
        },
        "performer": [
          {
            "display": "The Central European Lab"
          }
        ],
        "category": [
          {
            "coding": [
              {
                "system": "http://terminology.hl7.org/CodeSystem/observation-category",
                "code": "laboratory"
              }
            ]
          }
        ],
        "code": {
          "coding": [
            {
              "code": "5794-3",
              "system": "http://loinc.org",
              "display": "Hemoglobin [Presence] in Urine by Test strip"
            }
          ],
          "text": "Hemoglobin [Presence] in Urine by Test strip"
        },
        "text": {
          "status": "generated",
          "div": "<div xmlns=\"http://www.w3.org/1999/xhtml\"><table class=\"hl7__eu__lab__report\"><tr><th>Test</th><th>16-Feb-2017</th><th>Reference&#xA0;Range</th><th>Unit</th></tr><tr><td>Hemoglobin [Presence] in Urine by Test strip</td></tr></table></div>"
        },
        "status": "final",
        "subject": {
          "reference": "urn:uuid:4e4e6ded-b04c-48c1-9203-9807a74d5358",
          "display": "Marthe Gallet"
        },
        "effectiveDateTime": "2017-02-16T19:05:43Z",
        "specimen": {
          "reference": "urn:uuid:0c461e87-3f48-4f41-87ad-358955415ac3"
        }
      }
    },
    {
      "fullUrl": "urn:uuid:5a7a5125-f478-4d70-bd41-efbeadaa6a76",
      "resource": {
        "resourceType": "Observation",
        "id": "5a7a5125-f478-4d70-bd41-efbeadaa6a76",
        "meta": {
          "profile": [
            "http://hl7.eu/fhir/laboratory/StructureDefinition/Observation-resultslab-eu-lab"
          ]
        },
        "performer": [
          {
            "display": "The Central European Lab"
          }
        ],
        "category": [
          {
            "coding": [
              {
                "system": "http://terminology.hl7.org/CodeSystem/observation-category",
                "code": "laboratory"
              }
            ]
          }
        ],
        "code": {
          "coding": [
            {
              "code": "5799-2",
              "system": "http://loinc.org",
              "display": "Leukocyte esterase [Presence] in Urine by Test strip"
            }
          ],
          "text": "Leukocyte esterase [Presence] in Urine by Test strip"
        },
        "text": {
          "status": "generated",
          "div": "<div xmlns=\"http://www.w3.org/1999/xhtml\"><table class=\"hl7__eu__lab__report\"><tr><th>Test</th><th>16-Feb-2017</th><th>Reference&#xA0;Range</th><th>Unit</th></tr><tr><td>Leukocyte esterase [Presence] in Urine by Test strip</td></tr></table></div>"
        },
        "status": "final",
        "subject": {
          "reference": "urn:uuid:4e4e6ded-b04c-48c1-9203-9807a74d5358",
          "display": "Marthe Gallet"
        },
        "effectiveDateTime": "2017-02-16T19:05:43Z",
        "specimen": {
          "reference": "urn:uuid:0c461e87-3f48-4f41-87ad-358955415ac3"
        }
      }
    },
    {
      "fullUrl": "urn:uuid:1860d938-23be-4c16-ad54-fd74da4225cd",
      "resource": {
        "resourceType": "Device",
        "id": "1860d938-23be-4c16-ad54-fd74da4225cd",
        "deviceName": [
          {
            "name": "SYNDERAI Synthetic Generator",
            "type": "manufacturer-name"
          }
        ],
        "version": [
          {
            "value": "5.0"
          }
        ],
        "text": {
          "status": "generated",
          "div": "<div xmlns=\"http://www.w3.org/1999/xhtml\">SYNDERAI Synthetic Generator v5.0</div>"
        },
        "status": "active\"",
        "distinctIdentifier": "synderai-generator-50",
        "manufacturer": "SYNDERAI Project"
      }
    },
    {
      "fullUrl": "urn:uuid:e5f65f53-fb34-45f3-9467-2ad8b8911de4",
      "resource": {
        "resourceType": "Provenance",
        "id": "e5f65f53-fb34-45f3-9467-2ad8b8911de4",
        "target": [
          {
            "reference": "Patient/4e4e6ded-b04c-48c1-9203-9807a74d5358"
          },
          {
            "reference": "Bundle/0b873b71-933b-4cba-bb5a-ab00afd68892"
          },
          {
            "reference": "Composition/b540b02b-5259-48e8-b453-fe4cc43eeca9"
          },
          {
            "reference": "PractitionerRole/f3a889bf-495e-4f8f-87a7-b40a2dc5d0bd"
          },
          {
            "reference": "Practitioner/41d674e3-79d5-42cb-989a-6d0767201da5"
          },
          {
            "reference": "PractitionerRole/e9187287-155b-41ec-b8b4-ac963f797fb0"
          },
          {
            "reference": "Organization/e6a17184-5841-43e3-87f3-d295707a9c09"
          }
        ],
        "activity": {
          "text": "Synthetic Example Data Generation"
        },
        "policy": [
          "https://synderai.net/synderai-synthetic-data-policy"
        ],
        "agent": [
          {
            "type": {
              "text": "author"
            },
            "who": {
              "reference": "Device/1860d938-23be-4c16-ad54-fd74da4225cd"
            }
          }
        ],
        "reason": [
          {
            "text": "Interoperability Testing and Training (non-clinical use)"
          }
        ],
        "text": {
          "status": "generated",
          "div": "<div xmlns=\"http://www.w3.org/1999/xhtml\">Provenance for SYNDERAI Synthetic Example Data Resource</div>"
        },
        "recorded": "2017-02-16T20:05:43Z"
      }
    },
    {
      "fullUrl": "urn:uuid:f3a889bf-495e-4f8f-87a7-b40a2dc5d0bd",
      "resource": {
        "resourceType": "PractitionerRole",
        "id": "f3a889bf-495e-4f8f-87a7-b40a2dc5d0bd",
        "meta": {
          "profile": [
            "http://hl7.eu/fhir/base/StructureDefinition/practitionerRole-eu"
          ]
        },
        "text": {
          "status": "generated",
          "div": "<div xmlns=\"http://www.w3.org/1999/xhtml\">Laboratory Role Id: f3a889bf-495e-4f8f-87a7-b40a2dc5d0bd</div>"
        },
        "practitioner": {
          "reference": "urn:uuid:41d674e3-79d5-42cb-989a-6d0767201da5"
        }
      }
    },
    {
      "fullUrl": "urn:uuid:41d674e3-79d5-42cb-989a-6d0767201da5",
      "resource": {
        "resourceType": "Practitioner",
        "id": "41d674e3-79d5-42cb-989a-6d0767201da5",
        "meta": {
          "profile": [
            "http://hl7.eu/fhir/base/StructureDefinition/practitioner-eu"
          ]
        },
        "identifier": [
          {
            "assigner": {
              "display": "HL7 Europe"
            },
            "system": "urn:oid:2.16.840.1.113883.2.51.999",
            "value": "bf0ea5f7-9a14-4cd9-80ee-d3051f495945"
          }
        ],
        "name": [
          {
            "prefix": [
              "dr"
            ],
            "given": [
              "Ex"
            ],
            "family": "Ample"
          }
        ],
        "address": [
          {
            "line": [
              "Laboratoire Central Européenne",
              "Boulevard du Jardin Botanique 32"
            ],
            "postalCode": "1000",
            "city": "Brussels",
            "country": "Belgium"
          }
        ],
        "text": {
          "status": "generated",
          "div": "<div xmlns=\"http://www.w3.org/1999/xhtml\">Laboratory: Laboratoire Central Européenne, 1000 Brussels, Belgium</div>"
        }
      }
    }
  ],
  "type": "document",
  "timestamp": "2017-02-16T20:05:43Z"
}
