{
  "resourceType": "Bundle",
  "id": "4e46174e-7d28-408c-9d0d-7a1212bbc244",
  "meta": {
    "profile": [
      "http://hl7.eu/fhir/laboratory/StructureDefinition/Bundle-eu-lab"
    ]
  },
  "identifier": {
    "assigner": {
      "display": "HL7 Europe"
    },
    "system": "urn:oid:2.16.840.1.113883.2.51.999",
    "value": "c8a1e6dc-ee48-4fb6-91d0-3b5391d081b7"
  },
  "entry": [
    {
      "fullUrl": "urn:uuid:732bf9f7-b155-4974-a253-5fc110ca1c7d",
      "resource": {
        "resourceType": "Composition",
        "id": "732bf9f7-b155-4974-a253-5fc110ca1c7d",
        "meta": {
          "profile": [
            "http://hl7.eu/fhir/laboratory/StructureDefinition/Composition-eu-lab"
          ]
        },
        "identifier": {
          "assigner": {
            "display": "HL7 Europe"
          },
          "system": "urn:oid:2.16.840.1.113883.2.51.999",
          "value": "265230b5-bc93-4f2e-ac0f-80ece76b65bf"
        },
        "author": [
          {
            "reference": "urn:uuid:1aea9157-1a35-4bbb-8a4b-f183a8cb609d"
          }
        ],
        "category": [
          {
            "coding": [
              {
                "code": "26436-6",
                "system": "http://loinc.org",
                "display": "Laboratory studies (set)"
              }
            ]
          }
        ],
        "type": {
          "coding": [
            {
              "code": "11502-2",
              "system": "http://loinc.org",
              "display": "Laboratory report"
            }
          ],
          "text": "Laboratory Report"
        },
        "section": [
          {
            "code": {
              "coding": [
                {
                  "code": "26436-6",
                  "system": "http://loinc.org",
                  "display": "Laboratory studies (set)"
                }
              ],
              "text": "Laboratory studies"
            },
            "section": [
              {
                "code": {
                  "coding": [
                    {
                      "code": "$18719-5",
                      "system": "http://loinc.org",
                      "display": "Chemistry studies (set)"
                    }
                  ],
                  "text": "Chemistry"
                },
                "entry": [
                  {
                    "reference": "urn:uuid:0c6858c3-85cc-4ddc-b412-00ee14153ca0"
                  },
                  {
                    "reference": "urn:uuid:af39b246-d69e-4299-9114-9e5d5f7595bf"
                  },
                  {
                    "reference": "urn:uuid:9837099a-b1a0-4c2e-9fb2-269e72fe4521"
                  },
                  {
                    "reference": "urn:uuid:7a75730b-76d6-4afa-8c00-f77ce4421baf"
                  },
                  {
                    "reference": "urn:uuid:d4be026b-8887-422b-b038-acc1ce499337"
                  },
                  {
                    "reference": "urn:uuid:d3a124d6-4606-455f-aafd-a82ebdb1a65e"
                  },
                  {
                    "reference": "urn:uuid:4c25e61a-8b26-4dae-8331-14d3c30698ff"
                  },
                  {
                    "reference": "urn:uuid:cdbe6529-2a8c-418f-8b61-42232923201b"
                  },
                  {
                    "reference": "urn:uuid:3909866f-c95f-4771-afe8-0d7d8adaee45"
                  },
                  {
                    "reference": "urn:uuid:b9aeabae-14d9-49a9-9042-fa926e675421"
                  },
                  {
                    "reference": "urn:uuid:36cbbd20-0d21-4405-9509-56e8cee4a96f"
                  },
                  {
                    "reference": "urn:uuid:58050974-c8c5-4e50-ac4b-99fff42b7adc"
                  },
                  {
                    "reference": "urn:uuid:a1914d7f-f078-48d5-8b32-ed1b78e113a1"
                  },
                  {
                    "reference": "urn:uuid:3c48d116-3895-44ba-92ef-eb9e39113d82"
                  },
                  {
                    "reference": "urn:uuid:b7c657df-1d24-4bfc-baad-d6632de89106"
                  },
                  {
                    "reference": "urn:uuid:89ae9df5-8757-4317-a4f3-5b312e568db4"
                  },
                  {
                    "reference": "urn:uuid:1153b0c1-7425-433c-a2f8-53cf48379a1a"
                  },
                  {
                    "reference": "urn:uuid:07d51235-9add-4b4b-8be5-56b29000f377"
                  }
                ],
                "text": {
                  "status": "generated",
                  "div": "<div xmlns=\"http://www.w3.org/1999/xhtml\"><h3>Chemistry</h3><table class=\"hl7__eu__lab__report\"><thead><tr><th>Test</th><th>21-MAY-2024</th><th>Reference&#xA0;Range</th><th>Unit</th></tr></thead><tbody><tr><td>Glucose [Mass/volume] in Serum or Plasma</td><td>77.3</td><td>70 - 99</td><td>mg/dL</td></tr><tr><td>Urea nitrogen [Mass/volume] in Serum or Plasma</td><td>15.2</td><td>7 - 50</td><td>mg/dL</td></tr><tr><td>Creatinine [Mass/volume] in Serum or Plasma</td><td><strong>2.1 H</strong></td><td>0.6 - 1.1</td><td>mg/dL</td></tr><tr><td>Calcium [Mass/volume] in Serum or Plasma</td><td>9.3</td><td>8.6 - 10.4</td><td>mg/dL</td></tr><tr><td>Sodium [Moles/volume] in Serum or Plasma</td><td>139.6</td><td>135 - 145</td><td>mmol/L</td></tr><tr><td>Potassium [Moles/volume] in Serum or Plasma</td><td>4.6</td><td>3.5 - 5.1</td><td>mmol/L</td></tr><tr><td>Chloride [Moles/volume] in Serum or Plasma</td><td>107.9</td><td>98 - 108</td><td>mmol/L</td></tr><tr><td>Carbon dioxide, total [Moles/volume] in Serum or Plasma</td><td>28.2</td><td>22 - 32</td><td>mmol/L</td></tr><tr><td>Ketones [Presence] in Urine by Test strip</td><td>Urine ketone test = ++</td><td></td><td></td></tr><tr><td>Hemoglobin A1c/Hemoglobin.total in Blood</td><td>4.0</td><td>4 - 6.4</td><td>%</td></tr><tr><td>Glucose [Mass/volume] in Blood</td><td>77.3</td><td>70 - 100</td><td>mg/dL</td></tr><tr><td>Urea nitrogen [Mass/volume] in Blood</td><td>15.2</td><td>7 - 43</td><td>mg/dL</td></tr><tr><td>Creatinine [Mass/volume] in Blood</td><td><strong>2.9 H</strong></td><td>0.6 - 1.1</td><td>mg/dL</td></tr><tr><td>Calcium [Mass/volume] in Blood</td><td>9.3</td><td>8.5 - 10.5</td><td>mg/dL</td></tr><tr><td>Sodium [Moles/volume] in Blood</td><td>139.6</td><td>135 - 145</td><td>mmol/L</td></tr><tr><td>Potassium [Moles/volume] in Blood</td><td>4.6</td><td>3.5 - 5.1</td><td>mmol/L</td></tr><tr><td>Chloride [Moles/volume] in Blood</td><td>107.9</td><td>98 - 108</td><td>mmol/L</td></tr><tr><td>Carbon dioxide, total [Moles/volume] in Blood</td><td>28.2</td><td>22 - 29</td><td>mmol/L</td></tr></tbody></table></div>"
                },
                "title": "Chemistry"
              },
              {
                "code": {
                  "coding": [
                    {
                      "code": "$18729-4",
                      "system": "http://loinc.org",
                      "display": "Urinalysis studies (set)"
                    }
                  ],
                  "text": "Urinalysis"
                },
                "entry": [
                  {
                    "reference": "urn:uuid:d42ebe4c-33c6-48c9-bcbc-ebc79e88746d"
                  },
                  {
                    "reference": "urn:uuid:680ad791-75b1-4fee-a578-22f779e1189e"
                  },
                  {
                    "reference": "urn:uuid:c12e8921-8477-494f-a89f-83e50725ec94"
                  },
                  {
                    "reference": "urn:uuid:6e077f21-542e-4871-9b7c-3717b08bc7f5"
                  },
                  {
                    "reference": "urn:uuid:03dbead8-3629-4fd7-a58c-7e014ff15dac"
                  },
                  {
                    "reference": "urn:uuid:ad7d2fd2-038f-47d7-9df8-e5c7927ad4f0"
                  },
                  {
                    "reference": "urn:uuid:8ca79247-8837-49ab-a787-f26aba37cd7f"
                  },
                  {
                    "reference": "urn:uuid:9724f2e8-f5fd-4135-bb8c-61d449ed8e3c"
                  },
                  {
                    "reference": "urn:uuid:865c8b57-d8eb-446a-9394-93bbc3cf8044"
                  },
                  {
                    "reference": "urn:uuid:58816879-1fac-4d82-a2f6-9b40b2ddff8b"
                  },
                  {
                    "reference": "urn:uuid:b0a04329-3da1-480b-ab89-e02e86fbc389"
                  },
                  {
                    "reference": "urn:uuid:ddc9e6b9-5af9-438e-901a-58e50169e423"
                  }
                ],
                "text": {
                  "status": "generated",
                  "div": "<div xmlns=\"http://www.w3.org/1999/xhtml\"><h3>Urinalysis</h3><table class=\"hl7__eu__lab__report\"><thead><tr><th>Test</th><th>21-MAY-2024</th><th>Reference&#xA0;Range</th><th>Unit</th></tr></thead><tbody><tr><td>Glucose [Mass/volume] in Urine by Test strip</td><td><strong>1.9 H</strong></td><td>0.8 - 0</td><td>mg/dL</td></tr><tr><td>Glucose [Presence] in Urine by Test strip</td><td>++</td><td></td><td></td></tr><tr><td>Bilirubin.total [Mass/volume] in Urine by Test strip</td><td><strong>1.4 H</strong></td><td>0 - 1</td><td>mg/dL</td></tr><tr><td>Bilirubin.total [Presence] in Urine by Test strip</td><td>Finding of bilirubin in urine</td><td></td><td></td></tr><tr><td>Ketones [Mass/volume] in Urine by Test strip</td><td><strong>9.8 H</strong></td><td>0 - 4</td><td>mg/dL</td></tr><tr><td>Specific gravity of Urine by Test strip</td><td><strong>1.0 L</strong></td><td>1.005 - 1.03</td><td>{nominal}</td></tr><tr><td>pH of Urine by Test strip</td><td>6.8</td><td>4.6 - 7</td><td>pH</td></tr><tr><td>Protein [Mass/volume] in Urine by Test strip</td><td><strong>385.2 H</strong></td><td>0 - 14</td><td>mg/dL</td></tr><tr><td>Protein [Presence] in Urine by Test strip</td><td>Urine protein test = ++</td><td></td><td></td></tr><tr><td>Nitrite [Presence] in Urine by Test strip</td><td>Urine nitrite negative</td><td></td><td></td></tr><tr><td>Hemoglobin [Presence] in Urine by Test strip</td><td>Urine blood test = negative</td><td></td><td></td></tr><tr><td>Leukocyte esterase [Presence] in Urine by Test strip</td><td>Urine leukocyte test negative</td><td></td><td></td></tr></tbody></table></div>"
                },
                "title": "Urinalysis"
              },
              {
                "code": {
                  "coding": [
                    {
                      "code": "$LP7846-1",
                      "system": "http://loinc.org",
                      "display": "Specimen information"
                    }
                  ],
                  "text": "Specimen information"
                },
                "entry": [
                  {
                    "reference": "urn:uuid:d5ff7035-b036-4ae6-a793-d610f83b4d9e"
                  },
                  {
                    "reference": "urn:uuid:489c7023-3add-4408-930d-5b28192ea037"
                  },
                  {
                    "reference": "urn:uuid:b0655d1a-393d-4249-8e56-1b42cedbdc5f"
                  },
                  {
                    "reference": "urn:uuid:492413b0-f2c7-4bf7-8d19-6fc4bab3c8d6"
                  }
                ],
                "text": {
                  "status": "generated",
                  "div": "<div xmlns=\"http://www.w3.org/1999/xhtml\"><h3>Specimen information</h3><table class=\"hl7__eu__lab__report\"><thead><tr><th>Test</th><th>21-MAY-2024</th><th>Specimen</th><th></th></tr></thead><tbody><tr><td>Appearance of Urine</td><td>Cloudy urine</td><td>Urine</td><td></td></tr><tr><td>Odor of Urine</td><td>Urine smell ammoniacal</td><td>Urine</td><td></td></tr><tr><td>Clarity of Urine</td><td>Translucent</td><td>Urine</td><td></td></tr><tr><td>Color of Urine</td><td>Brown color</td><td>Urine</td><td></td></tr></tbody></table></div>"
                },
                "title": "Specimen information"
              }
            ],
            "title": "Laboratory Report"
          },
          {
            "text": {
              "status": "generated",
              "div": "<div xmlns=\"http://www.w3.org/1999/xhtml\"><h3>Annotation</h3><table class=\"hl7__eu__lab__report\"><tr><th>Conclusion and Recommendations based on this report and previous findings known to us</th></tr><tr><td>The patient shows significantly elevated creatinine in both serum and blood, indicating impaired renal function. Urinalysis reveals marked proteinuria, glucosuria, ketonuria, bilirubinuria, low specific gravity, and abnormal urine appearance (cloudy, brown, ammoniacal), suggesting possible nephrotic syndrome or advanced renal disease. Blood glucose and HbA1c are normal, making diabetes less likely. No evidence of urinary tract infection. Recommend urgent nephrology evaluation for further assessment and management.</td></tr></table></div>"
            },
            "code": {
              "coding": [
                {
                  "system": "http://loinc.org",
                  "code": "48767-8",
                  "display": "Annotation comment"
                }
              ]
            },
            "title": "Annotation comment"
          }
        ],
        "status": "final",
        "subject": {
          "reference": "urn:uuid:ca783d0d-22a7-4fe4-af27-15e1c8086351",
          "display": "Meaghan Neary"
        },
        "date": "2024-05-21T00:11:04Z",
        "title": "Laboratory Report",
        "confidentiality": "N"
      }
    },
    {
      "fullUrl": "urn:uuid:79725e76-d1b5-42da-acb0-88066207a894",
      "resource": {
        "resourceType": "DiagnosticReport",
        "id": "79725e76-d1b5-42da-acb0-88066207a894",
        "meta": {
          "profile": [
            "http://hl7.eu/fhir/laboratory/StructureDefinition/DiagnosticReport-eu-lab"
          ]
        },
        "identifier": [
          {
            "assigner": {
              "display": "HL7 Europe"
            },
            "system": "urn:oid:2.16.840.1.113883.2.51.999",
            "value": "49be428f-e228-4809-b8de-0e9340b04234"
          }
        ],
        "extension": [
          {
            "url": "http://hl7.org/fhir/5.0/StructureDefinition/extension-DiagnosticReport.composition",
            "valueReference": {
              "reference": "urn:uuid:265230b5-bc93-4f2e-ac0f-80ece76b65bf"
            }
          }
        ],
        "category": [
          {
            "coding": [
              {
                "code": "26436-6",
                "system": "http://loinc.org",
                "display": "Laboratory studies (set)"
              }
            ]
          }
        ],
        "specimen": [
          {
            "reference": "urn:uuid:752d4bbe-afd2-4dbc-acef-4ec46f34775f"
          },
          {
            "reference": "urn:uuid:686e7d3d-4b7f-4f50-bf2d-3cdac840bc2f"
          },
          {
            "reference": "urn:uuid:23f06c03-ae5f-4877-952f-e1a084d040c9"
          }
        ],
        "result": [
          {
            "reference": "urn:uuid:0c6858c3-85cc-4ddc-b412-00ee14153ca0"
          },
          {
            "reference": "urn:uuid:af39b246-d69e-4299-9114-9e5d5f7595bf"
          },
          {
            "reference": "urn:uuid:9837099a-b1a0-4c2e-9fb2-269e72fe4521"
          },
          {
            "reference": "urn:uuid:7a75730b-76d6-4afa-8c00-f77ce4421baf"
          },
          {
            "reference": "urn:uuid:d4be026b-8887-422b-b038-acc1ce499337"
          },
          {
            "reference": "urn:uuid:d3a124d6-4606-455f-aafd-a82ebdb1a65e"
          },
          {
            "reference": "urn:uuid:4c25e61a-8b26-4dae-8331-14d3c30698ff"
          },
          {
            "reference": "urn:uuid:cdbe6529-2a8c-418f-8b61-42232923201b"
          },
          {
            "reference": "urn:uuid:d5ff7035-b036-4ae6-a793-d610f83b4d9e"
          },
          {
            "reference": "urn:uuid:489c7023-3add-4408-930d-5b28192ea037"
          },
          {
            "reference": "urn:uuid:b0655d1a-393d-4249-8e56-1b42cedbdc5f"
          },
          {
            "reference": "urn:uuid:492413b0-f2c7-4bf7-8d19-6fc4bab3c8d6"
          },
          {
            "reference": "urn:uuid:d42ebe4c-33c6-48c9-bcbc-ebc79e88746d"
          },
          {
            "reference": "urn:uuid:680ad791-75b1-4fee-a578-22f779e1189e"
          },
          {
            "reference": "urn:uuid:c12e8921-8477-494f-a89f-83e50725ec94"
          },
          {
            "reference": "urn:uuid:6e077f21-542e-4871-9b7c-3717b08bc7f5"
          },
          {
            "reference": "urn:uuid:03dbead8-3629-4fd7-a58c-7e014ff15dac"
          },
          {
            "reference": "urn:uuid:3909866f-c95f-4771-afe8-0d7d8adaee45"
          },
          {
            "reference": "urn:uuid:ad7d2fd2-038f-47d7-9df8-e5c7927ad4f0"
          },
          {
            "reference": "urn:uuid:8ca79247-8837-49ab-a787-f26aba37cd7f"
          },
          {
            "reference": "urn:uuid:9724f2e8-f5fd-4135-bb8c-61d449ed8e3c"
          },
          {
            "reference": "urn:uuid:865c8b57-d8eb-446a-9394-93bbc3cf8044"
          },
          {
            "reference": "urn:uuid:58816879-1fac-4d82-a2f6-9b40b2ddff8b"
          },
          {
            "reference": "urn:uuid:b0a04329-3da1-480b-ab89-e02e86fbc389"
          },
          {
            "reference": "urn:uuid:ddc9e6b9-5af9-438e-901a-58e50169e423"
          },
          {
            "reference": "urn:uuid:b9aeabae-14d9-49a9-9042-fa926e675421"
          },
          {
            "reference": "urn:uuid:36cbbd20-0d21-4405-9509-56e8cee4a96f"
          },
          {
            "reference": "urn:uuid:58050974-c8c5-4e50-ac4b-99fff42b7adc"
          },
          {
            "reference": "urn:uuid:a1914d7f-f078-48d5-8b32-ed1b78e113a1"
          },
          {
            "reference": "urn:uuid:3c48d116-3895-44ba-92ef-eb9e39113d82"
          },
          {
            "reference": "urn:uuid:b7c657df-1d24-4bfc-baad-d6632de89106"
          },
          {
            "reference": "urn:uuid:89ae9df5-8757-4317-a4f3-5b312e568db4"
          },
          {
            "reference": "urn:uuid:1153b0c1-7425-433c-a2f8-53cf48379a1a"
          },
          {
            "reference": "urn:uuid:07d51235-9add-4b4b-8be5-56b29000f377"
          }
        ],
        "status": "registered",
        "code": {
          "coding": [
            {
              "code": "11502-2",
              "system": "http://loinc.org",
              "display": "Laboratory report"
            }
          ]
        },
        "subject": {
          "reference": "urn:uuid:ca783d0d-22a7-4fe4-af27-15e1c8086351",
          "display": "Meaghan Neary"
        }
      }
    },
    {
      "fullUrl": "urn:uuid:ca783d0d-22a7-4fe4-af27-15e1c8086351",
      "resource": {
        "resourceType": "Patient",
        "id": "ca783d0d-22a7-4fe4-af27-15e1c8086351",
        "meta": {
          "security": [
            {
              "system": "http://terminology.hl7.org/CodeSystem/v3-ActReason",
              "code": "HTEST"
            },
            {
              "system": "http://terminology.hl7.org/CodeSystem/v3-ActReason",
              "code": "TRAIN"
            }
          ],
          "tag": [
            {
              "system": "https://synderai.net/fhir/CodeSystem/tags",
              "code": "synthetic",
              "display": "SYNDERAI Synthetic data"
            }
          ],
          "profile": [
            "http://hl7.eu/fhir/base/StructureDefinition/patient-eu-core"
          ]
        },
        "identifier": [
          {
            "type": {
              "coding": [
                {
                  "code": "PT",
                  "system": "http://terminology.hl7.org/CodeSystem/v2-0203"
                }
              ]
            },
            "system": "http://ec.europa.eu/identifier/eci",
            "value": "1586-567257-8"
          },
          {
            "type": {
              "coding": [
                {
                  "code": "MR",
                  "system": "http://terminology.hl7.org/CodeSystem/v2-0203"
                }
              ]
            },
            "system": "http://local.setting.eu/identifier",
            "value": "443e6379-f231-b364-3ccb-644740a1aa2a"
          }
        ],
        "name": [
          {
            "family": "Neary"
          },
          {
            "given": [
              "Meaghan"
            ]
          },
          {
            "text": "Meaghan Neary"
          }
        ],
        "address": [
          {
            "line": [
              "64 Linskey Street"
            ],
            "use": "home",
            "type": "physical",
            "postalCode": "D02",
            "city": "Dublin",
            "country": "Ireland"
          }
        ],
        "telecom": [
          {
            "system": "phone",
            "value": "001-967-573-0911x465"
          }
        ],
        "extension": [
          {
            "url": "http://hl7.org/fhir/StructureDefinition/patient-nationality",
            "valueCodeableConcept": {
              "coding": [
                {
                  "code": "IE",
                  "system": "http://hl7.org/fhir/ValueSet/country"
                }
              ]
            }
          }
        ],
        "text": {
          "status": "generated",
          "div": "<div xmlns=\"http://www.w3.org/1999/xhtml\"><table class=\"hl7__ips\"><tr><td>Meaghan Neary</td><td>female</td><td>19-Dec-1960</td></tr></table></div>"
        },
        "gender": "female",
        "birthDate": "1960-12-19"
      }
    },
    {
      "fullUrl": "urn:uuid:2de73ba8-a53f-476b-9fa9-7f9135f50171",
      "resource": {
        "resourceType": "ServiceRequest",
        "id": "2de73ba8-a53f-476b-9fa9-7f9135f50171",
        "meta": {
          "profile": [
            "http://hl7.eu/fhir/laboratory/StructureDefinition/ServiceRequest-eu-lab"
          ]
        },
        "identifier": [
          {
            "system": "http://example.org",
            "value": "9c4ceecb-99a4-438f-9827-48bf208a2a04"
          }
        ],
        "specimen": [
          {
            "reference": "urn:uuid:752d4bbe-afd2-4dbc-acef-4ec46f34775f"
          },
          {
            "reference": "urn:uuid:686e7d3d-4b7f-4f50-bf2d-3cdac840bc2f"
          },
          {
            "reference": "urn:uuid:23f06c03-ae5f-4877-952f-e1a084d040c9"
          }
        ],
        "reasonCode": [
          {
            "coding": [
              {
                "code": "55822004",
                "system": "http://snomed.info/sct",
                "display": "Hyperlipidemia"
              }
            ]
          },
          {
            "coding": [
              {
                "code": "433144002",
                "system": "http://snomed.info/sct",
                "display": "Chronic kidney disease stage 3"
              }
            ]
          },
          {
            "coding": [
              {
                "code": "157141000119108",
                "system": "http://snomed.info/sct",
                "display": "Proteinuria due to type 2 diabetes mellitus"
              }
            ]
          },
          {
            "coding": [
              {
                "code": "431856006",
                "system": "http://snomed.info/sct",
                "display": "Chronic kidney disease stage 2"
              }
            ]
          },
          {
            "coding": [
              {
                "code": "90781000119102",
                "system": "http://snomed.info/sct",
                "display": "Microalbuminuria due to type 2 diabetes mellitus"
              }
            ]
          },
          {
            "coding": [
              {
                "code": "127013003",
                "system": "http://snomed.info/sct",
                "display": "Disorder of kidney due to diabetes mellitus"
              }
            ]
          },
          {
            "coding": [
              {
                "code": "431855005",
                "system": "http://snomed.info/sct",
                "display": "Chronic kidney disease stage 1"
              }
            ]
          },
          {
            "coding": [
              {
                "code": "237602007",
                "system": "http://snomed.info/sct",
                "display": "Metabolic syndrome X"
              }
            ]
          },
          {
            "coding": [
              {
                "code": "271737000",
                "system": "http://snomed.info/sct",
                "display": "Anemia"
              }
            ]
          },
          {
            "coding": [
              {
                "code": "15777000",
                "system": "http://snomed.info/sct",
                "display": "Prediabetes"
              }
            ]
          },
          {
            "coding": [
              {
                "code": "59621000",
                "system": "http://snomed.info/sct",
                "display": "Essential hypertension"
              }
            ]
          }
        ],
        "status": "active",
        "intent": "order",
        "code": {
          "coding": [
            {
              "code": "108252007",
              "system": "http://snomed.info/sct",
              "display": "Laboratory procedure"
            }
          ]
        },
        "subject": {
          "reference": "urn:uuid:ca783d0d-22a7-4fe4-af27-15e1c8086351",
          "display": "Meaghan Neary"
        },
        "requester": {
          "reference": "urn:uuid:23317c37-4ad6-454a-b704-17379b156766"
        }
      }
    },
    {
      "fullUrl": "urn:uuid:23317c37-4ad6-454a-b704-17379b156766",
      "resource": {
        "resourceType": "PractitionerRole",
        "id": "23317c37-4ad6-454a-b704-17379b156766",
        "meta": {
          "profile": [
            "http://hl7.eu/fhir/base/StructureDefinition/practitionerRole-eu"
          ]
        },
        "text": {
          "status": "generated",
          "div": "<div xmlns=\"http://www.w3.org/1999/xhtml\">Provider Role Id: 23317c37-4ad6-454a-b704-17379b156766</div>"
        },
        "organization": {
          "reference": "urn:uuid:426d8c58-d139-47bd-91f8-55e413d888a1"
        }
      }
    },
    {
      "fullUrl": "urn:uuid:426d8c58-d139-47bd-91f8-55e413d888a1",
      "resource": {
        "resourceType": "Organization",
        "id": "426d8c58-d139-47bd-91f8-55e413d888a1",
        "meta": {
          "profile": [
            "http://hl7.eu/fhir/base/StructureDefinition/organization-eu"
          ]
        },
        "identifier": [
          {
            "assigner": {
              "display": "HL7 Europe"
            },
            "system": "urn:oid:2.16.840.1.113883.2.51.999",
            "value": "1a9fa277-5a5d-454e-809c-b38cd7f6b619"
          }
        ],
        "address": [
          {
            "line": [
              "Parnell Square West nan"
            ],
            "city": "Dublin",
            "postalCode": "D01",
            "country": "Ireland"
          }
        ],
        "text": {
          "status": "generated",
          "div": "<div xmlns=\"http://www.w3.org/1999/xhtml\">Provider Organization: Rotunda Hospital</div>"
        },
        "name": "Rotunda Hospital"
      }
    },
    {
      "fullUrl": "urn:uuid:752d4bbe-afd2-4dbc-acef-4ec46f34775f",
      "resource": {
        "resourceType": "Specimen",
        "id": "752d4bbe-afd2-4dbc-acef-4ec46f34775f",
        "meta": {
          "profile": [
            "http://hl7.eu/fhir/laboratory/StructureDefinition/Specimen-eu-lab"
          ]
        },
        "collection": {
          "collectedDateTime": "2024-05-20"
        },
        "text": {
          "status": "generated",
          "div": "<div xmlns=\"http://www.w3.org/1999/xhtml\"><table class=\"hl7__eu__lab__report\"><tr><th>Specimen</th><th>Collection Date</th></tr><tr><td>Acellular blood (serum or plasma) specimen</td><td><span class=\"nb\">20-May-2024</span></td></tr></table></div>"
        },
        "type": {
          "coding": [
            {
              "code": "122592007",
              "system": "http://snomed.info/sct",
              "display": "Acellular blood (serum or plasma) specimen"
            }
          ]
        }
      }
    },
    {
      "fullUrl": "urn:uuid:686e7d3d-4b7f-4f50-bf2d-3cdac840bc2f",
      "resource": {
        "resourceType": "Specimen",
        "id": "686e7d3d-4b7f-4f50-bf2d-3cdac840bc2f",
        "meta": {
          "profile": [
            "http://hl7.eu/fhir/laboratory/StructureDefinition/Specimen-eu-lab"
          ]
        },
        "collection": {
          "collectedDateTime": "2024-05-20"
        },
        "text": {
          "status": "generated",
          "div": "<div xmlns=\"http://www.w3.org/1999/xhtml\"><table class=\"hl7__eu__lab__report\"><tr><th>Specimen</th><th>Collection Date</th></tr><tr><td>Urine specimen</td><td><span class=\"nb\">20-May-2024</span></td></tr></table></div>"
        },
        "type": {
          "coding": [
            {
              "code": "122575003",
              "system": "http://snomed.info/sct",
              "display": "Urine specimen"
            }
          ]
        }
      }
    },
    {
      "fullUrl": "urn:uuid:23f06c03-ae5f-4877-952f-e1a084d040c9",
      "resource": {
        "resourceType": "Specimen",
        "id": "23f06c03-ae5f-4877-952f-e1a084d040c9",
        "meta": {
          "profile": [
            "http://hl7.eu/fhir/laboratory/StructureDefinition/Specimen-eu-lab"
          ]
        },
        "collection": {
          "collectedDateTime": "2024-05-20"
        },
        "text": {
          "status": "generated",
          "div": "<div xmlns=\"http://www.w3.org/1999/xhtml\"><table class=\"hl7__eu__lab__report\"><tr><th>Specimen</th><th>Collection Date</th></tr><tr><td>Whole blood specimen (specimen)</td><td><span class=\"nb\">20-May-2024</span></td></tr></table></div>"
        },
        "type": {
          "coding": [
            {
              "code": "258580003",
              "system": "http://snomed.info/sct",
              "display": "Whole blood specimen (specimen)"
            }
          ]
        }
      }
    },
    {
      "fullUrl": "urn:uuid:0c6858c3-85cc-4ddc-b412-00ee14153ca0",
      "resource": {
        "resourceType": "Observation",
        "id": "0c6858c3-85cc-4ddc-b412-00ee14153ca0",
        "meta": {
          "profile": [
            "http://hl7.eu/fhir/laboratory/StructureDefinition/Observation-resultslab-eu-lab"
          ]
        },
        "performer": [
          {
            "display": "The Central European Lab"
          }
        ],
        "category": [
          {
            "coding": [
              {
                "system": "http://terminology.hl7.org/CodeSystem/observation-category",
                "code": "laboratory"
              }
            ]
          }
        ],
        "code": {
          "coding": [
            {
              "code": "2345-7",
              "system": "http://loinc.org",
              "display": "Glucose [Mass/volume] in Serum or Plasma"
            }
          ],
          "text": "Glucose [Mass/volume] in Serum or Plasma"
        },
        "valueQuantity": {
          "system": "http://unitsofmeasure.org",
          "value": 77.3,
          "unit": "mg/dL",
          "code": "mg/dL"
        },
        "referenceRange": [
          {
            "low": {
              "value": 70,
              "code": "mg/dL",
              "system": "http://unitsofmeasure.org"
            }
          },
          {
            "high": {
              "value": 99,
              "code": "mg/dL",
              "system": "http://unitsofmeasure.org"
            }
          }
        ],
        "text": {
          "status": "generated",
          "div": "<div xmlns=\"http://www.w3.org/1999/xhtml\"><table class=\"hl7__eu__lab__report\"><tr><th>Test</th><th>21-May-2024</th><th>Reference&#xA0;Range</th><th>Unit</th></tr><tr><td>Glucose [Mass/volume] in Serum or Plasma</td><td>77.3</td><td>70 - 99</td><td></td><td>mg/dL</td></tr></table></div>"
        },
        "status": "final",
        "subject": {
          "reference": "urn:uuid:ca783d0d-22a7-4fe4-af27-15e1c8086351",
          "display": "Meaghan Neary"
        },
        "effectiveDateTime": "2024-05-20T22:11:04Z",
        "specimen": {
          "reference": "urn:uuid:752d4bbe-afd2-4dbc-acef-4ec46f34775f"
        }
      }
    },
    {
      "fullUrl": "urn:uuid:af39b246-d69e-4299-9114-9e5d5f7595bf",
      "resource": {
        "resourceType": "Observation",
        "id": "af39b246-d69e-4299-9114-9e5d5f7595bf",
        "meta": {
          "profile": [
            "http://hl7.eu/fhir/laboratory/StructureDefinition/Observation-resultslab-eu-lab"
          ]
        },
        "performer": [
          {
            "display": "The Central European Lab"
          }
        ],
        "category": [
          {
            "coding": [
              {
                "system": "http://terminology.hl7.org/CodeSystem/observation-category",
                "code": "laboratory"
              }
            ]
          }
        ],
        "code": {
          "coding": [
            {
              "code": "3094-0",
              "system": "http://loinc.org",
              "display": "Urea nitrogen [Mass/volume] in Serum or Plasma"
            }
          ],
          "text": "Urea nitrogen [Mass/volume] in Serum or Plasma"
        },
        "valueQuantity": {
          "system": "http://unitsofmeasure.org",
          "value": 15.2,
          "unit": "mg/dL",
          "code": "mg/dL"
        },
        "referenceRange": [
          {
            "low": {
              "value": 7,
              "code": "mg/dL",
              "system": "http://unitsofmeasure.org"
            }
          },
          {
            "high": {
              "value": 50,
              "code": "mg/dL",
              "system": "http://unitsofmeasure.org"
            }
          }
        ],
        "text": {
          "status": "generated",
          "div": "<div xmlns=\"http://www.w3.org/1999/xhtml\"><table class=\"hl7__eu__lab__report\"><tr><th>Test</th><th>21-May-2024</th><th>Reference&#xA0;Range</th><th>Unit</th></tr><tr><td>Urea nitrogen [Mass/volume] in Serum or Plasma</td><td>15.2</td><td>7 - 50</td><td></td><td>mg/dL</td></tr></table></div>"
        },
        "status": "final",
        "subject": {
          "reference": "urn:uuid:ca783d0d-22a7-4fe4-af27-15e1c8086351",
          "display": "Meaghan Neary"
        },
        "effectiveDateTime": "2024-05-20T22:11:04Z",
        "specimen": {
          "reference": "urn:uuid:752d4bbe-afd2-4dbc-acef-4ec46f34775f"
        }
      }
    },
    {
      "fullUrl": "urn:uuid:9837099a-b1a0-4c2e-9fb2-269e72fe4521",
      "resource": {
        "resourceType": "Observation",
        "id": "9837099a-b1a0-4c2e-9fb2-269e72fe4521",
        "meta": {
          "profile": [
            "http://hl7.eu/fhir/laboratory/StructureDefinition/Observation-resultslab-eu-lab"
          ]
        },
        "performer": [
          {
            "display": "The Central European Lab"
          }
        ],
        "category": [
          {
            "coding": [
              {
                "system": "http://terminology.hl7.org/CodeSystem/observation-category",
                "code": "laboratory"
              }
            ]
          }
        ],
        "code": {
          "coding": [
            {
              "code": "2160-0",
              "system": "http://loinc.org",
              "display": "Creatinine [Mass/volume] in Serum or Plasma"
            }
          ],
          "text": "Creatinine [Mass/volume] in Serum or Plasma"
        },
        "valueQuantity": {
          "system": "http://unitsofmeasure.org",
          "value": 2.1,
          "unit": "mg/dL",
          "code": "mg/dL"
        },
        "referenceRange": [
          {
            "low": {
              "value": 0.6,
              "code": "mg/dL",
              "system": "http://unitsofmeasure.org"
            }
          },
          {
            "high": {
              "value": 1.1,
              "code": "mg/dL",
              "system": "http://unitsofmeasure.org"
            }
          }
        ],
        "interpretation": [
          {
            "coding": [
              {
                "code": "H",
                "system": "http://terminology.hl7.org/CodeSystem/v3-ObservationInterpretation",
                "display": "High"
              }
            ]
          }
        ],
        "text": {
          "status": "generated",
          "div": "<div xmlns=\"http://www.w3.org/1999/xhtml\"><table class=\"hl7__eu__lab__report\"><tr><th>Test</th><th>21-May-2024</th><th>Reference&#xA0;Range</th><th>Unit</th></tr><tr><td>Creatinine [Mass/volume] in Serum or Plasma</td><td>2.1</td><td>0.6 - 1.1</td><td>H</td><td>mg/dL</td></tr></table></div>"
        },
        "status": "final",
        "subject": {
          "reference": "urn:uuid:ca783d0d-22a7-4fe4-af27-15e1c8086351",
          "display": "Meaghan Neary"
        },
        "effectiveDateTime": "2024-05-20T22:11:04Z",
        "specimen": {
          "reference": "urn:uuid:752d4bbe-afd2-4dbc-acef-4ec46f34775f"
        }
      }
    },
    {
      "fullUrl": "urn:uuid:7a75730b-76d6-4afa-8c00-f77ce4421baf",
      "resource": {
        "resourceType": "Observation",
        "id": "7a75730b-76d6-4afa-8c00-f77ce4421baf",
        "meta": {
          "profile": [
            "http://hl7.eu/fhir/laboratory/StructureDefinition/Observation-resultslab-eu-lab"
          ]
        },
        "performer": [
          {
            "display": "The Central European Lab"
          }
        ],
        "category": [
          {
            "coding": [
              {
                "system": "http://terminology.hl7.org/CodeSystem/observation-category",
                "code": "laboratory"
              }
            ]
          }
        ],
        "code": {
          "coding": [
            {
              "code": "17861-6",
              "system": "http://loinc.org",
              "display": "Calcium [Mass/volume] in Serum or Plasma"
            }
          ],
          "text": "Calcium [Mass/volume] in Serum or Plasma"
        },
        "valueQuantity": {
          "system": "http://unitsofmeasure.org",
          "value": 9.3,
          "unit": "mg/dL",
          "code": "mg/dL"
        },
        "referenceRange": [
          {
            "low": {
              "value": 8.6,
              "code": "mg/dL",
              "system": "http://unitsofmeasure.org"
            }
          },
          {
            "high": {
              "value": 10.4,
              "code": "mg/dL",
              "system": "http://unitsofmeasure.org"
            }
          }
        ],
        "text": {
          "status": "generated",
          "div": "<div xmlns=\"http://www.w3.org/1999/xhtml\"><table class=\"hl7__eu__lab__report\"><tr><th>Test</th><th>21-May-2024</th><th>Reference&#xA0;Range</th><th>Unit</th></tr><tr><td>Calcium [Mass/volume] in Serum or Plasma</td><td>9.3</td><td>8.6 - 10.4</td><td></td><td>mg/dL</td></tr></table></div>"
        },
        "status": "final",
        "subject": {
          "reference": "urn:uuid:ca783d0d-22a7-4fe4-af27-15e1c8086351",
          "display": "Meaghan Neary"
        },
        "effectiveDateTime": "2024-05-20T22:11:04Z",
        "specimen": {
          "reference": "urn:uuid:752d4bbe-afd2-4dbc-acef-4ec46f34775f"
        }
      }
    },
    {
      "fullUrl": "urn:uuid:d4be026b-8887-422b-b038-acc1ce499337",
      "resource": {
        "resourceType": "Observation",
        "id": "d4be026b-8887-422b-b038-acc1ce499337",
        "meta": {
          "profile": [
            "http://hl7.eu/fhir/laboratory/StructureDefinition/Observation-resultslab-eu-lab"
          ]
        },
        "performer": [
          {
            "display": "The Central European Lab"
          }
        ],
        "category": [
          {
            "coding": [
              {
                "system": "http://terminology.hl7.org/CodeSystem/observation-category",
                "code": "laboratory"
              }
            ]
          }
        ],
        "code": {
          "coding": [
            {
              "code": "2951-2",
              "system": "http://loinc.org",
              "display": "Sodium [Moles/volume] in Serum or Plasma"
            }
          ],
          "text": "Sodium [Moles/volume] in Serum or Plasma"
        },
        "valueQuantity": {
          "system": "http://unitsofmeasure.org",
          "value": 139.6,
          "unit": "mmol/L",
          "code": "mmol/L"
        },
        "referenceRange": [
          {
            "low": {
              "value": 135,
              "code": "mmol/L",
              "system": "http://unitsofmeasure.org"
            }
          },
          {
            "high": {
              "value": 145,
              "code": "mmol/L",
              "system": "http://unitsofmeasure.org"
            }
          }
        ],
        "text": {
          "status": "generated",
          "div": "<div xmlns=\"http://www.w3.org/1999/xhtml\"><table class=\"hl7__eu__lab__report\"><tr><th>Test</th><th>21-May-2024</th><th>Reference&#xA0;Range</th><th>Unit</th></tr><tr><td>Sodium [Moles/volume] in Serum or Plasma</td><td>139.6</td><td>135 - 145</td><td></td><td>mmol/L</td></tr></table></div>"
        },
        "status": "final",
        "subject": {
          "reference": "urn:uuid:ca783d0d-22a7-4fe4-af27-15e1c8086351",
          "display": "Meaghan Neary"
        },
        "effectiveDateTime": "2024-05-20T22:11:04Z",
        "specimen": {
          "reference": "urn:uuid:752d4bbe-afd2-4dbc-acef-4ec46f34775f"
        }
      }
    },
    {
      "fullUrl": "urn:uuid:d3a124d6-4606-455f-aafd-a82ebdb1a65e",
      "resource": {
        "resourceType": "Observation",
        "id": "d3a124d6-4606-455f-aafd-a82ebdb1a65e",
        "meta": {
          "profile": [
            "http://hl7.eu/fhir/laboratory/StructureDefinition/Observation-resultslab-eu-lab"
          ]
        },
        "performer": [
          {
            "display": "The Central European Lab"
          }
        ],
        "category": [
          {
            "coding": [
              {
                "system": "http://terminology.hl7.org/CodeSystem/observation-category",
                "code": "laboratory"
              }
            ]
          }
        ],
        "code": {
          "coding": [
            {
              "code": "2823-3",
              "system": "http://loinc.org",
              "display": "Potassium [Moles/volume] in Serum or Plasma"
            }
          ],
          "text": "Potassium [Moles/volume] in Serum or Plasma"
        },
        "valueQuantity": {
          "system": "http://unitsofmeasure.org",
          "value": 4.6,
          "unit": "mmol/L",
          "code": "mmol/L"
        },
        "referenceRange": [
          {
            "low": {
              "value": 3.5,
              "code": "mmol/L",
              "system": "http://unitsofmeasure.org"
            }
          },
          {
            "high": {
              "value": 5.1,
              "code": "mmol/L",
              "system": "http://unitsofmeasure.org"
            }
          }
        ],
        "text": {
          "status": "generated",
          "div": "<div xmlns=\"http://www.w3.org/1999/xhtml\"><table class=\"hl7__eu__lab__report\"><tr><th>Test</th><th>21-May-2024</th><th>Reference&#xA0;Range</th><th>Unit</th></tr><tr><td>Potassium [Moles/volume] in Serum or Plasma</td><td>4.6</td><td>3.5 - 5.1</td><td></td><td>mmol/L</td></tr></table></div>"
        },
        "status": "final",
        "subject": {
          "reference": "urn:uuid:ca783d0d-22a7-4fe4-af27-15e1c8086351",
          "display": "Meaghan Neary"
        },
        "effectiveDateTime": "2024-05-20T22:11:04Z",
        "specimen": {
          "reference": "urn:uuid:752d4bbe-afd2-4dbc-acef-4ec46f34775f"
        }
      }
    },
    {
      "fullUrl": "urn:uuid:4c25e61a-8b26-4dae-8331-14d3c30698ff",
      "resource": {
        "resourceType": "Observation",
        "id": "4c25e61a-8b26-4dae-8331-14d3c30698ff",
        "meta": {
          "profile": [
            "http://hl7.eu/fhir/laboratory/StructureDefinition/Observation-resultslab-eu-lab"
          ]
        },
        "performer": [
          {
            "display": "The Central European Lab"
          }
        ],
        "category": [
          {
            "coding": [
              {
                "system": "http://terminology.hl7.org/CodeSystem/observation-category",
                "code": "laboratory"
              }
            ]
          }
        ],
        "code": {
          "coding": [
            {
              "code": "2075-0",
              "system": "http://loinc.org",
              "display": "Chloride [Moles/volume] in Serum or Plasma"
            }
          ],
          "text": "Chloride [Moles/volume] in Serum or Plasma"
        },
        "valueQuantity": {
          "system": "http://unitsofmeasure.org",
          "value": 107.9,
          "unit": "mmol/L",
          "code": "mmol/L"
        },
        "referenceRange": [
          {
            "low": {
              "value": 98,
              "code": "mmol/L",
              "system": "http://unitsofmeasure.org"
            }
          },
          {
            "high": {
              "value": 108,
              "code": "mmol/L",
              "system": "http://unitsofmeasure.org"
            }
          }
        ],
        "text": {
          "status": "generated",
          "div": "<div xmlns=\"http://www.w3.org/1999/xhtml\"><table class=\"hl7__eu__lab__report\"><tr><th>Test</th><th>21-May-2024</th><th>Reference&#xA0;Range</th><th>Unit</th></tr><tr><td>Chloride [Moles/volume] in Serum or Plasma</td><td>107.9</td><td>98 - 108</td><td></td><td>mmol/L</td></tr></table></div>"
        },
        "status": "final",
        "subject": {
          "reference": "urn:uuid:ca783d0d-22a7-4fe4-af27-15e1c8086351",
          "display": "Meaghan Neary"
        },
        "effectiveDateTime": "2024-05-20T22:11:04Z",
        "specimen": {
          "reference": "urn:uuid:752d4bbe-afd2-4dbc-acef-4ec46f34775f"
        }
      }
    },
    {
      "fullUrl": "urn:uuid:cdbe6529-2a8c-418f-8b61-42232923201b",
      "resource": {
        "resourceType": "Observation",
        "id": "cdbe6529-2a8c-418f-8b61-42232923201b",
        "meta": {
          "profile": [
            "http://hl7.eu/fhir/laboratory/StructureDefinition/Observation-resultslab-eu-lab"
          ]
        },
        "performer": [
          {
            "display": "The Central European Lab"
          }
        ],
        "category": [
          {
            "coding": [
              {
                "system": "http://terminology.hl7.org/CodeSystem/observation-category",
                "code": "laboratory"
              }
            ]
          }
        ],
        "code": {
          "coding": [
            {
              "code": "2028-9",
              "system": "http://loinc.org",
              "display": "Carbon dioxide, total [Moles/volume] in Serum or Plasma"
            }
          ],
          "text": "Carbon dioxide, total [Moles/volume] in Serum or Plasma"
        },
        "valueQuantity": {
          "system": "http://unitsofmeasure.org",
          "value": 28.2,
          "unit": "mmol/L",
          "code": "mmol/L"
        },
        "referenceRange": [
          {
            "low": {
              "value": 22,
              "code": "mmol/L",
              "system": "http://unitsofmeasure.org"
            }
          },
          {
            "high": {
              "value": 32,
              "code": "mmol/L",
              "system": "http://unitsofmeasure.org"
            }
          }
        ],
        "text": {
          "status": "generated",
          "div": "<div xmlns=\"http://www.w3.org/1999/xhtml\"><table class=\"hl7__eu__lab__report\"><tr><th>Test</th><th>21-May-2024</th><th>Reference&#xA0;Range</th><th>Unit</th></tr><tr><td>Carbon dioxide, total [Moles/volume] in Serum or Plasma</td><td>28.2</td><td>22 - 32</td><td></td><td>mmol/L</td></tr></table></div>"
        },
        "status": "final",
        "subject": {
          "reference": "urn:uuid:ca783d0d-22a7-4fe4-af27-15e1c8086351",
          "display": "Meaghan Neary"
        },
        "effectiveDateTime": "2024-05-20T22:11:04Z",
        "specimen": {
          "reference": "urn:uuid:752d4bbe-afd2-4dbc-acef-4ec46f34775f"
        }
      }
    },
    {
      "fullUrl": "urn:uuid:d5ff7035-b036-4ae6-a793-d610f83b4d9e",
      "resource": {
        "resourceType": "Observation",
        "id": "d5ff7035-b036-4ae6-a793-d610f83b4d9e",
        "meta": {
          "profile": [
            "http://hl7.eu/fhir/laboratory/StructureDefinition/Observation-resultslab-eu-lab"
          ]
        },
        "performer": [
          {
            "display": "The Central European Lab"
          }
        ],
        "category": [
          {
            "coding": [
              {
                "system": "http://terminology.hl7.org/CodeSystem/observation-category",
                "code": "laboratory"
              }
            ]
          }
        ],
        "code": {
          "coding": [
            {
              "code": "5767-9",
              "system": "http://loinc.org",
              "display": "Appearance of Urine"
            }
          ],
          "text": "Appearance of Urine"
        },
        "text": {
          "status": "generated",
          "div": "<div xmlns=\"http://www.w3.org/1999/xhtml\"><table class=\"hl7__eu__lab__report\"><tr><th>Test</th><th>21-May-2024</th><th>Reference&#xA0;Range</th><th>Unit</th></tr><tr><td>Appearance of Urine</td></tr></table></div>"
        },
        "status": "final",
        "subject": {
          "reference": "urn:uuid:ca783d0d-22a7-4fe4-af27-15e1c8086351",
          "display": "Meaghan Neary"
        },
        "effectiveDateTime": "2024-05-20T22:11:04Z",
        "specimen": {
          "reference": "urn:uuid:686e7d3d-4b7f-4f50-bf2d-3cdac840bc2f"
        }
      }
    },
    {
      "fullUrl": "urn:uuid:489c7023-3add-4408-930d-5b28192ea037",
      "resource": {
        "resourceType": "Observation",
        "id": "489c7023-3add-4408-930d-5b28192ea037",
        "meta": {
          "profile": [
            "http://hl7.eu/fhir/laboratory/StructureDefinition/Observation-resultslab-eu-lab"
          ]
        },
        "performer": [
          {
            "display": "The Central European Lab"
          }
        ],
        "category": [
          {
            "coding": [
              {
                "system": "http://terminology.hl7.org/CodeSystem/observation-category",
                "code": "laboratory"
              }
            ]
          }
        ],
        "code": {
          "coding": [
            {
              "code": "34533-0",
              "system": "http://loinc.org",
              "display": "Odor of Urine"
            }
          ],
          "text": "Odor of Urine"
        },
        "text": {
          "status": "generated",
          "div": "<div xmlns=\"http://www.w3.org/1999/xhtml\"><table class=\"hl7__eu__lab__report\"><tr><th>Test</th><th>21-May-2024</th><th>Reference&#xA0;Range</th><th>Unit</th></tr><tr><td>Odor of Urine</td></tr></table></div>"
        },
        "status": "final",
        "subject": {
          "reference": "urn:uuid:ca783d0d-22a7-4fe4-af27-15e1c8086351",
          "display": "Meaghan Neary"
        },
        "effectiveDateTime": "2024-05-20T22:11:04Z",
        "specimen": {
          "reference": "urn:uuid:686e7d3d-4b7f-4f50-bf2d-3cdac840bc2f"
        }
      }
    },
    {
      "fullUrl": "urn:uuid:b0655d1a-393d-4249-8e56-1b42cedbdc5f",
      "resource": {
        "resourceType": "Observation",
        "id": "b0655d1a-393d-4249-8e56-1b42cedbdc5f",
        "meta": {
          "profile": [
            "http://hl7.eu/fhir/laboratory/StructureDefinition/Observation-resultslab-eu-lab"
          ]
        },
        "performer": [
          {
            "display": "The Central European Lab"
          }
        ],
        "category": [
          {
            "coding": [
              {
                "system": "http://terminology.hl7.org/CodeSystem/observation-category",
                "code": "laboratory"
              }
            ]
          }
        ],
        "code": {
          "coding": [
            {
              "code": "32167-9",
              "system": "http://loinc.org",
              "display": "Clarity of Urine"
            }
          ],
          "text": "Clarity of Urine"
        },
        "text": {
          "status": "generated",
          "div": "<div xmlns=\"http://www.w3.org/1999/xhtml\"><table class=\"hl7__eu__lab__report\"><tr><th>Test</th><th>21-May-2024</th><th>Reference&#xA0;Range</th><th>Unit</th></tr><tr><td>Clarity of Urine</td></tr></table></div>"
        },
        "status": "final",
        "subject": {
          "reference": "urn:uuid:ca783d0d-22a7-4fe4-af27-15e1c8086351",
          "display": "Meaghan Neary"
        },
        "effectiveDateTime": "2024-05-20T22:11:04Z",
        "specimen": {
          "reference": "urn:uuid:686e7d3d-4b7f-4f50-bf2d-3cdac840bc2f"
        }
      }
    },
    {
      "fullUrl": "urn:uuid:492413b0-f2c7-4bf7-8d19-6fc4bab3c8d6",
      "resource": {
        "resourceType": "Observation",
        "id": "492413b0-f2c7-4bf7-8d19-6fc4bab3c8d6",
        "meta": {
          "profile": [
            "http://hl7.eu/fhir/laboratory/StructureDefinition/Observation-resultslab-eu-lab"
          ]
        },
        "performer": [
          {
            "display": "The Central European Lab"
          }
        ],
        "category": [
          {
            "coding": [
              {
                "system": "http://terminology.hl7.org/CodeSystem/observation-category",
                "code": "laboratory"
              }
            ]
          }
        ],
        "code": {
          "coding": [
            {
              "code": "5778-6",
              "system": "http://loinc.org",
              "display": "Color of Urine"
            }
          ],
          "text": "Color of Urine"
        },
        "text": {
          "status": "generated",
          "div": "<div xmlns=\"http://www.w3.org/1999/xhtml\"><table class=\"hl7__eu__lab__report\"><tr><th>Test</th><th>21-May-2024</th><th>Reference&#xA0;Range</th><th>Unit</th></tr><tr><td>Color of Urine</td></tr></table></div>"
        },
        "status": "final",
        "subject": {
          "reference": "urn:uuid:ca783d0d-22a7-4fe4-af27-15e1c8086351",
          "display": "Meaghan Neary"
        },
        "effectiveDateTime": "2024-05-20T22:11:04Z",
        "specimen": {
          "reference": "urn:uuid:686e7d3d-4b7f-4f50-bf2d-3cdac840bc2f"
        }
      }
    },
    {
      "fullUrl": "urn:uuid:d42ebe4c-33c6-48c9-bcbc-ebc79e88746d",
      "resource": {
        "resourceType": "Observation",
        "id": "d42ebe4c-33c6-48c9-bcbc-ebc79e88746d",
        "meta": {
          "profile": [
            "http://hl7.eu/fhir/laboratory/StructureDefinition/Observation-resultslab-eu-lab"
          ]
        },
        "performer": [
          {
            "display": "The Central European Lab"
          }
        ],
        "category": [
          {
            "coding": [
              {
                "system": "http://terminology.hl7.org/CodeSystem/observation-category",
                "code": "laboratory"
              }
            ]
          }
        ],
        "code": {
          "coding": [
            {
              "code": "5792-7",
              "system": "http://loinc.org",
              "display": "Glucose [Mass/volume] in Urine by Test strip"
            }
          ],
          "text": "Glucose [Mass/volume] in Urine by Test strip"
        },
        "valueQuantity": {
          "system": "http://unitsofmeasure.org",
          "value": 1.9,
          "unit": "mg/dL",
          "code": "mg/dL"
        },
        "referenceRange": [
          {
            "low": {
              "value": 0.8,
              "code": "mg/dL",
              "system": "http://unitsofmeasure.org"
            }
          },
          {
            "high": {
              "value": 0,
              "code": "mg/dL",
              "system": "http://unitsofmeasure.org"
            }
          }
        ],
        "interpretation": [
          {
            "coding": [
              {
                "code": "H",
                "system": "http://terminology.hl7.org/CodeSystem/v3-ObservationInterpretation",
                "display": "High"
              }
            ]
          }
        ],
        "text": {
          "status": "generated",
          "div": "<div xmlns=\"http://www.w3.org/1999/xhtml\"><table class=\"hl7__eu__lab__report\"><tr><th>Test</th><th>21-May-2024</th><th>Reference&#xA0;Range</th><th>Unit</th></tr><tr><td>Glucose [Mass/volume] in Urine by Test strip</td><td>1.9</td><td>0.8 - 0</td><td>H</td><td>mg/dL</td></tr></table></div>"
        },
        "status": "final",
        "subject": {
          "reference": "urn:uuid:ca783d0d-22a7-4fe4-af27-15e1c8086351",
          "display": "Meaghan Neary"
        },
        "effectiveDateTime": "2024-05-20T22:11:04Z",
        "specimen": {
          "reference": "urn:uuid:686e7d3d-4b7f-4f50-bf2d-3cdac840bc2f"
        }
      }
    },
    {
      "fullUrl": "urn:uuid:680ad791-75b1-4fee-a578-22f779e1189e",
      "resource": {
        "resourceType": "Observation",
        "id": "680ad791-75b1-4fee-a578-22f779e1189e",
        "meta": {
          "profile": [
            "http://hl7.eu/fhir/laboratory/StructureDefinition/Observation-resultslab-eu-lab"
          ]
        },
        "performer": [
          {
            "display": "The Central European Lab"
          }
        ],
        "category": [
          {
            "coding": [
              {
                "system": "http://terminology.hl7.org/CodeSystem/observation-category",
                "code": "laboratory"
              }
            ]
          }
        ],
        "code": {
          "coding": [
            {
              "code": "25428-4",
              "system": "http://loinc.org",
              "display": "Glucose [Presence] in Urine by Test strip"
            }
          ],
          "text": "Glucose [Presence] in Urine by Test strip"
        },
        "text": {
          "status": "generated",
          "div": "<div xmlns=\"http://www.w3.org/1999/xhtml\"><table class=\"hl7__eu__lab__report\"><tr><th>Test</th><th>21-May-2024</th><th>Reference&#xA0;Range</th><th>Unit</th></tr><tr><td>Glucose [Presence] in Urine by Test strip</td></tr></table></div>"
        },
        "status": "final",
        "subject": {
          "reference": "urn:uuid:ca783d0d-22a7-4fe4-af27-15e1c8086351",
          "display": "Meaghan Neary"
        },
        "effectiveDateTime": "2024-05-20T22:11:04Z",
        "specimen": {
          "reference": "urn:uuid:686e7d3d-4b7f-4f50-bf2d-3cdac840bc2f"
        }
      }
    },
    {
      "fullUrl": "urn:uuid:c12e8921-8477-494f-a89f-83e50725ec94",
      "resource": {
        "resourceType": "Observation",
        "id": "c12e8921-8477-494f-a89f-83e50725ec94",
        "meta": {
          "profile": [
            "http://hl7.eu/fhir/laboratory/StructureDefinition/Observation-resultslab-eu-lab"
          ]
        },
        "performer": [
          {
            "display": "The Central European Lab"
          }
        ],
        "category": [
          {
            "coding": [
              {
                "system": "http://terminology.hl7.org/CodeSystem/observation-category",
                "code": "laboratory"
              }
            ]
          }
        ],
        "code": {
          "coding": [
            {
              "code": "20505-4",
              "system": "http://loinc.org",
              "display": "Bilirubin.total [Mass/volume] in Urine by Test strip"
            }
          ],
          "text": "Bilirubin.total [Mass/volume] in Urine by Test strip"
        },
        "valueQuantity": {
          "system": "http://unitsofmeasure.org",
          "value": 1.4,
          "unit": "mg/dL",
          "code": "mg/dL"
        },
        "referenceRange": [
          {
            "low": {
              "value": 0,
              "code": "mg/dL",
              "system": "http://unitsofmeasure.org"
            }
          },
          {
            "high": {
              "value": 1,
              "code": "mg/dL",
              "system": "http://unitsofmeasure.org"
            }
          }
        ],
        "interpretation": [
          {
            "coding": [
              {
                "code": "H",
                "system": "http://terminology.hl7.org/CodeSystem/v3-ObservationInterpretation",
                "display": "High"
              }
            ]
          }
        ],
        "text": {
          "status": "generated",
          "div": "<div xmlns=\"http://www.w3.org/1999/xhtml\"><table class=\"hl7__eu__lab__report\"><tr><th>Test</th><th>21-May-2024</th><th>Reference&#xA0;Range</th><th>Unit</th></tr><tr><td>Bilirubin.total [Mass/volume] in Urine by Test strip</td><td>1.4</td><td>0 - 1</td><td>H</td><td>mg/dL</td></tr></table></div>"
        },
        "status": "final",
        "subject": {
          "reference": "urn:uuid:ca783d0d-22a7-4fe4-af27-15e1c8086351",
          "display": "Meaghan Neary"
        },
        "effectiveDateTime": "2024-05-20T22:11:04Z",
        "specimen": {
          "reference": "urn:uuid:686e7d3d-4b7f-4f50-bf2d-3cdac840bc2f"
        }
      }
    },
    {
      "fullUrl": "urn:uuid:6e077f21-542e-4871-9b7c-3717b08bc7f5",
      "resource": {
        "resourceType": "Observation",
        "id": "6e077f21-542e-4871-9b7c-3717b08bc7f5",
        "meta": {
          "profile": [
            "http://hl7.eu/fhir/laboratory/StructureDefinition/Observation-resultslab-eu-lab"
          ]
        },
        "performer": [
          {
            "display": "The Central European Lab"
          }
        ],
        "category": [
          {
            "coding": [
              {
                "system": "http://terminology.hl7.org/CodeSystem/observation-category",
                "code": "laboratory"
              }
            ]
          }
        ],
        "code": {
          "coding": [
            {
              "code": "5770-3",
              "system": "http://loinc.org",
              "display": "Bilirubin.total [Presence] in Urine by Test strip"
            }
          ],
          "text": "Bilirubin.total [Presence] in Urine by Test strip"
        },
        "text": {
          "status": "generated",
          "div": "<div xmlns=\"http://www.w3.org/1999/xhtml\"><table class=\"hl7__eu__lab__report\"><tr><th>Test</th><th>21-May-2024</th><th>Reference&#xA0;Range</th><th>Unit</th></tr><tr><td>Bilirubin.total [Presence] in Urine by Test strip</td></tr></table></div>"
        },
        "status": "final",
        "subject": {
          "reference": "urn:uuid:ca783d0d-22a7-4fe4-af27-15e1c8086351",
          "display": "Meaghan Neary"
        },
        "effectiveDateTime": "2024-05-20T22:11:04Z",
        "specimen": {
          "reference": "urn:uuid:686e7d3d-4b7f-4f50-bf2d-3cdac840bc2f"
        }
      }
    },
    {
      "fullUrl": "urn:uuid:03dbead8-3629-4fd7-a58c-7e014ff15dac",
      "resource": {
        "resourceType": "Observation",
        "id": "03dbead8-3629-4fd7-a58c-7e014ff15dac",
        "meta": {
          "profile": [
            "http://hl7.eu/fhir/laboratory/StructureDefinition/Observation-resultslab-eu-lab"
          ]
        },
        "performer": [
          {
            "display": "The Central European Lab"
          }
        ],
        "category": [
          {
            "coding": [
              {
                "system": "http://terminology.hl7.org/CodeSystem/observation-category",
                "code": "laboratory"
              }
            ]
          }
        ],
        "code": {
          "coding": [
            {
              "code": "5797-6",
              "system": "http://loinc.org",
              "display": "Ketones [Mass/volume] in Urine by Test strip"
            }
          ],
          "text": "Ketones [Mass/volume] in Urine by Test strip"
        },
        "valueQuantity": {
          "system": "http://unitsofmeasure.org",
          "value": 9.8,
          "unit": "mg/dL",
          "code": "mg/dL"
        },
        "referenceRange": [
          {
            "low": {
              "value": 0,
              "code": "mg/dL",
              "system": "http://unitsofmeasure.org"
            }
          },
          {
            "high": {
              "value": 4,
              "code": "mg/dL",
              "system": "http://unitsofmeasure.org"
            }
          }
        ],
        "interpretation": [
          {
            "coding": [
              {
                "code": "H",
                "system": "http://terminology.hl7.org/CodeSystem/v3-ObservationInterpretation",
                "display": "High"
              }
            ]
          }
        ],
        "text": {
          "status": "generated",
          "div": "<div xmlns=\"http://www.w3.org/1999/xhtml\"><table class=\"hl7__eu__lab__report\"><tr><th>Test</th><th>21-May-2024</th><th>Reference&#xA0;Range</th><th>Unit</th></tr><tr><td>Ketones [Mass/volume] in Urine by Test strip</td><td>9.8</td><td>0 - 4</td><td>H</td><td>mg/dL</td></tr></table></div>"
        },
        "status": "final",
        "subject": {
          "reference": "urn:uuid:ca783d0d-22a7-4fe4-af27-15e1c8086351",
          "display": "Meaghan Neary"
        },
        "effectiveDateTime": "2024-05-20T22:11:04Z",
        "specimen": {
          "reference": "urn:uuid:686e7d3d-4b7f-4f50-bf2d-3cdac840bc2f"
        }
      }
    },
    {
      "fullUrl": "urn:uuid:3909866f-c95f-4771-afe8-0d7d8adaee45",
      "resource": {
        "resourceType": "Observation",
        "id": "3909866f-c95f-4771-afe8-0d7d8adaee45",
        "meta": {
          "profile": [
            "http://hl7.eu/fhir/laboratory/StructureDefinition/Observation-resultslab-eu-lab"
          ]
        },
        "performer": [
          {
            "display": "The Central European Lab"
          }
        ],
        "category": [
          {
            "coding": [
              {
                "system": "http://terminology.hl7.org/CodeSystem/observation-category",
                "code": "laboratory"
              }
            ]
          }
        ],
        "code": {
          "coding": [
            {
              "code": "2514-8",
              "system": "http://loinc.org",
              "display": "Ketones [Presence] in Urine by Test strip"
            }
          ],
          "text": "Ketones [Presence] in Urine by Test strip"
        },
        "text": {
          "status": "generated",
          "div": "<div xmlns=\"http://www.w3.org/1999/xhtml\"><table class=\"hl7__eu__lab__report\"><tr><th>Test</th><th>21-May-2024</th><th>Reference&#xA0;Range</th><th>Unit</th></tr><tr><td>Ketones [Presence] in Urine by Test strip</td></tr></table></div>"
        },
        "status": "final",
        "subject": {
          "reference": "urn:uuid:ca783d0d-22a7-4fe4-af27-15e1c8086351",
          "display": "Meaghan Neary"
        },
        "effectiveDateTime": "2024-05-20T22:11:04Z",
        "specimen": {
          "reference": "urn:uuid:686e7d3d-4b7f-4f50-bf2d-3cdac840bc2f"
        }
      }
    },
    {
      "fullUrl": "urn:uuid:ad7d2fd2-038f-47d7-9df8-e5c7927ad4f0",
      "resource": {
        "resourceType": "Observation",
        "id": "ad7d2fd2-038f-47d7-9df8-e5c7927ad4f0",
        "meta": {
          "profile": [
            "http://hl7.eu/fhir/laboratory/StructureDefinition/Observation-resultslab-eu-lab"
          ]
        },
        "performer": [
          {
            "display": "The Central European Lab"
          }
        ],
        "category": [
          {
            "coding": [
              {
                "system": "http://terminology.hl7.org/CodeSystem/observation-category",
                "code": "laboratory"
              }
            ]
          }
        ],
        "code": {
          "coding": [
            {
              "code": "5811-5",
              "system": "http://loinc.org",
              "display": "Specific gravity of Urine by Test strip"
            }
          ],
          "text": "Specific gravity of Urine by Test strip"
        },
        "valueQuantity": {
          "system": "http://unitsofmeasure.org",
          "value": 1,
          "unit": "{nominal}",
          "code": "{nominal}"
        },
        "referenceRange": [
          {
            "low": {
              "value": 1.005,
              "code": "g/mL",
              "system": "http://unitsofmeasure.org"
            }
          },
          {
            "high": {
              "value": 1.03,
              "code": "g/mL",
              "system": "http://unitsofmeasure.org"
            }
          }
        ],
        "interpretation": [
          {
            "coding": [
              {
                "code": "L",
                "system": "http://terminology.hl7.org/CodeSystem/v3-ObservationInterpretation",
                "display": "Low"
              }
            ]
          }
        ],
        "text": {
          "status": "generated",
          "div": "<div xmlns=\"http://www.w3.org/1999/xhtml\"><table class=\"hl7__eu__lab__report\"><tr><th>Test</th><th>21-May-2024</th><th>Reference&#xA0;Range</th><th>Unit</th></tr><tr><td>Specific gravity of Urine by Test strip</td><td>1.0</td><td>1.005 - 1.03</td><td>L</td><td>{nominal}</td></tr></table></div>"
        },
        "status": "final",
        "subject": {
          "reference": "urn:uuid:ca783d0d-22a7-4fe4-af27-15e1c8086351",
          "display": "Meaghan Neary"
        },
        "effectiveDateTime": "2024-05-20T22:11:04Z",
        "specimen": {
          "reference": "urn:uuid:686e7d3d-4b7f-4f50-bf2d-3cdac840bc2f"
        }
      }
    },
    {
      "fullUrl": "urn:uuid:8ca79247-8837-49ab-a787-f26aba37cd7f",
      "resource": {
        "resourceType": "Observation",
        "id": "8ca79247-8837-49ab-a787-f26aba37cd7f",
        "meta": {
          "profile": [
            "http://hl7.eu/fhir/laboratory/StructureDefinition/Observation-resultslab-eu-lab"
          ]
        },
        "performer": [
          {
            "display": "The Central European Lab"
          }
        ],
        "category": [
          {
            "coding": [
              {
                "system": "http://terminology.hl7.org/CodeSystem/observation-category",
                "code": "laboratory"
              }
            ]
          }
        ],
        "code": {
          "coding": [
            {
              "code": "5803-2",
              "system": "http://loinc.org",
              "display": "pH of Urine by Test strip"
            }
          ],
          "text": "pH of Urine by Test strip"
        },
        "valueQuantity": {
          "system": "http://unitsofmeasure.org",
          "value": 6.8,
          "unit": "pH",
          "code": "pH"
        },
        "referenceRange": [
          {
            "low": {
              "value": 4.6,
              "code": "pH",
              "system": "http://unitsofmeasure.org"
            }
          },
          {
            "high": {
              "value": 7,
              "code": "pH",
              "system": "http://unitsofmeasure.org"
            }
          }
        ],
        "text": {
          "status": "generated",
          "div": "<div xmlns=\"http://www.w3.org/1999/xhtml\"><table class=\"hl7__eu__lab__report\"><tr><th>Test</th><th>21-May-2024</th><th>Reference&#xA0;Range</th><th>Unit</th></tr><tr><td>pH of Urine by Test strip</td><td>6.8</td><td>4.6 - 7</td><td></td><td>pH</td></tr></table></div>"
        },
        "status": "final",
        "subject": {
          "reference": "urn:uuid:ca783d0d-22a7-4fe4-af27-15e1c8086351",
          "display": "Meaghan Neary"
        },
        "effectiveDateTime": "2024-05-20T22:11:04Z",
        "specimen": {
          "reference": "urn:uuid:686e7d3d-4b7f-4f50-bf2d-3cdac840bc2f"
        }
      }
    },
    {
      "fullUrl": "urn:uuid:9724f2e8-f5fd-4135-bb8c-61d449ed8e3c",
      "resource": {
        "resourceType": "Observation",
        "id": "9724f2e8-f5fd-4135-bb8c-61d449ed8e3c",
        "meta": {
          "profile": [
            "http://hl7.eu/fhir/laboratory/StructureDefinition/Observation-resultslab-eu-lab"
          ]
        },
        "performer": [
          {
            "display": "The Central European Lab"
          }
        ],
        "category": [
          {
            "coding": [
              {
                "system": "http://terminology.hl7.org/CodeSystem/observation-category",
                "code": "laboratory"
              }
            ]
          }
        ],
        "code": {
          "coding": [
            {
              "code": "5804-0",
              "system": "http://loinc.org",
              "display": "Protein [Mass/volume] in Urine by Test strip"
            }
          ],
          "text": "Protein [Mass/volume] in Urine by Test strip"
        },
        "valueQuantity": {
          "system": "http://unitsofmeasure.org",
          "value": 385.2,
          "unit": "mg/dL",
          "code": "mg/dL"
        },
        "referenceRange": [
          {
            "low": {
              "value": 0,
              "code": "mg/dL",
              "system": "http://unitsofmeasure.org"
            }
          },
          {
            "high": {
              "value": 14,
              "code": "mg/dL",
              "system": "http://unitsofmeasure.org"
            }
          }
        ],
        "interpretation": [
          {
            "coding": [
              {
                "code": "H",
                "system": "http://terminology.hl7.org/CodeSystem/v3-ObservationInterpretation",
                "display": "High"
              }
            ]
          }
        ],
        "text": {
          "status": "generated",
          "div": "<div xmlns=\"http://www.w3.org/1999/xhtml\"><table class=\"hl7__eu__lab__report\"><tr><th>Test</th><th>21-May-2024</th><th>Reference&#xA0;Range</th><th>Unit</th></tr><tr><td>Protein [Mass/volume] in Urine by Test strip</td><td>385.2</td><td>0 - 14</td><td>H</td><td>mg/dL</td></tr></table></div>"
        },
        "status": "final",
        "subject": {
          "reference": "urn:uuid:ca783d0d-22a7-4fe4-af27-15e1c8086351",
          "display": "Meaghan Neary"
        },
        "effectiveDateTime": "2024-05-20T22:11:04Z",
        "specimen": {
          "reference": "urn:uuid:686e7d3d-4b7f-4f50-bf2d-3cdac840bc2f"
        }
      }
    },
    {
      "fullUrl": "urn:uuid:865c8b57-d8eb-446a-9394-93bbc3cf8044",
      "resource": {
        "resourceType": "Observation",
        "id": "865c8b57-d8eb-446a-9394-93bbc3cf8044",
        "meta": {
          "profile": [
            "http://hl7.eu/fhir/laboratory/StructureDefinition/Observation-resultslab-eu-lab"
          ]
        },
        "performer": [
          {
            "display": "The Central European Lab"
          }
        ],
        "category": [
          {
            "coding": [
              {
                "system": "http://terminology.hl7.org/CodeSystem/observation-category",
                "code": "laboratory"
              }
            ]
          }
        ],
        "code": {
          "coding": [
            {
              "code": "20454-5",
              "system": "http://loinc.org",
              "display": "Protein [Presence] in Urine by Test strip"
            }
          ],
          "text": "Protein [Presence] in Urine by Test strip"
        },
        "text": {
          "status": "generated",
          "div": "<div xmlns=\"http://www.w3.org/1999/xhtml\"><table class=\"hl7__eu__lab__report\"><tr><th>Test</th><th>21-May-2024</th><th>Reference&#xA0;Range</th><th>Unit</th></tr><tr><td>Protein [Presence] in Urine by Test strip</td></tr></table></div>"
        },
        "status": "final",
        "subject": {
          "reference": "urn:uuid:ca783d0d-22a7-4fe4-af27-15e1c8086351",
          "display": "Meaghan Neary"
        },
        "effectiveDateTime": "2024-05-20T22:11:04Z",
        "specimen": {
          "reference": "urn:uuid:686e7d3d-4b7f-4f50-bf2d-3cdac840bc2f"
        }
      }
    },
    {
      "fullUrl": "urn:uuid:58816879-1fac-4d82-a2f6-9b40b2ddff8b",
      "resource": {
        "resourceType": "Observation",
        "id": "58816879-1fac-4d82-a2f6-9b40b2ddff8b",
        "meta": {
          "profile": [
            "http://hl7.eu/fhir/laboratory/StructureDefinition/Observation-resultslab-eu-lab"
          ]
        },
        "performer": [
          {
            "display": "The Central European Lab"
          }
        ],
        "category": [
          {
            "coding": [
              {
                "system": "http://terminology.hl7.org/CodeSystem/observation-category",
                "code": "laboratory"
              }
            ]
          }
        ],
        "code": {
          "coding": [
            {
              "code": "5802-4",
              "system": "http://loinc.org",
              "display": "Nitrite [Presence] in Urine by Test strip"
            }
          ],
          "text": "Nitrite [Presence] in Urine by Test strip"
        },
        "text": {
          "status": "generated",
          "div": "<div xmlns=\"http://www.w3.org/1999/xhtml\"><table class=\"hl7__eu__lab__report\"><tr><th>Test</th><th>21-May-2024</th><th>Reference&#xA0;Range</th><th>Unit</th></tr><tr><td>Nitrite [Presence] in Urine by Test strip</td></tr></table></div>"
        },
        "status": "final",
        "subject": {
          "reference": "urn:uuid:ca783d0d-22a7-4fe4-af27-15e1c8086351",
          "display": "Meaghan Neary"
        },
        "effectiveDateTime": "2024-05-20T22:11:04Z",
        "specimen": {
          "reference": "urn:uuid:686e7d3d-4b7f-4f50-bf2d-3cdac840bc2f"
        }
      }
    },
    {
      "fullUrl": "urn:uuid:b0a04329-3da1-480b-ab89-e02e86fbc389",
      "resource": {
        "resourceType": "Observation",
        "id": "b0a04329-3da1-480b-ab89-e02e86fbc389",
        "meta": {
          "profile": [
            "http://hl7.eu/fhir/laboratory/StructureDefinition/Observation-resultslab-eu-lab"
          ]
        },
        "performer": [
          {
            "display": "The Central European Lab"
          }
        ],
        "category": [
          {
            "coding": [
              {
                "system": "http://terminology.hl7.org/CodeSystem/observation-category",
                "code": "laboratory"
              }
            ]
          }
        ],
        "code": {
          "coding": [
            {
              "code": "5794-3",
              "system": "http://loinc.org",
              "display": "Hemoglobin [Presence] in Urine by Test strip"
            }
          ],
          "text": "Hemoglobin [Presence] in Urine by Test strip"
        },
        "text": {
          "status": "generated",
          "div": "<div xmlns=\"http://www.w3.org/1999/xhtml\"><table class=\"hl7__eu__lab__report\"><tr><th>Test</th><th>21-May-2024</th><th>Reference&#xA0;Range</th><th>Unit</th></tr><tr><td>Hemoglobin [Presence] in Urine by Test strip</td></tr></table></div>"
        },
        "status": "final",
        "subject": {
          "reference": "urn:uuid:ca783d0d-22a7-4fe4-af27-15e1c8086351",
          "display": "Meaghan Neary"
        },
        "effectiveDateTime": "2024-05-20T22:11:04Z",
        "specimen": {
          "reference": "urn:uuid:686e7d3d-4b7f-4f50-bf2d-3cdac840bc2f"
        }
      }
    },
    {
      "fullUrl": "urn:uuid:ddc9e6b9-5af9-438e-901a-58e50169e423",
      "resource": {
        "resourceType": "Observation",
        "id": "ddc9e6b9-5af9-438e-901a-58e50169e423",
        "meta": {
          "profile": [
            "http://hl7.eu/fhir/laboratory/StructureDefinition/Observation-resultslab-eu-lab"
          ]
        },
        "performer": [
          {
            "display": "The Central European Lab"
          }
        ],
        "category": [
          {
            "coding": [
              {
                "system": "http://terminology.hl7.org/CodeSystem/observation-category",
                "code": "laboratory"
              }
            ]
          }
        ],
        "code": {
          "coding": [
            {
              "code": "5799-2",
              "system": "http://loinc.org",
              "display": "Leukocyte esterase [Presence] in Urine by Test strip"
            }
          ],
          "text": "Leukocyte esterase [Presence] in Urine by Test strip"
        },
        "text": {
          "status": "generated",
          "div": "<div xmlns=\"http://www.w3.org/1999/xhtml\"><table class=\"hl7__eu__lab__report\"><tr><th>Test</th><th>21-May-2024</th><th>Reference&#xA0;Range</th><th>Unit</th></tr><tr><td>Leukocyte esterase [Presence] in Urine by Test strip</td></tr></table></div>"
        },
        "status": "final",
        "subject": {
          "reference": "urn:uuid:ca783d0d-22a7-4fe4-af27-15e1c8086351",
          "display": "Meaghan Neary"
        },
        "effectiveDateTime": "2024-05-20T22:11:04Z",
        "specimen": {
          "reference": "urn:uuid:686e7d3d-4b7f-4f50-bf2d-3cdac840bc2f"
        }
      }
    },
    {
      "fullUrl": "urn:uuid:b9aeabae-14d9-49a9-9042-fa926e675421",
      "resource": {
        "resourceType": "Observation",
        "id": "b9aeabae-14d9-49a9-9042-fa926e675421",
        "meta": {
          "profile": [
            "http://hl7.eu/fhir/laboratory/StructureDefinition/Observation-resultslab-eu-lab"
          ]
        },
        "performer": [
          {
            "display": "The Central European Lab"
          }
        ],
        "category": [
          {
            "coding": [
              {
                "system": "http://terminology.hl7.org/CodeSystem/observation-category",
                "code": "laboratory"
              }
            ]
          }
        ],
        "code": {
          "coding": [
            {
              "code": "4548-4",
              "system": "http://loinc.org",
              "display": "Hemoglobin A1c/Hemoglobin.total in Blood"
            }
          ],
          "text": "Hemoglobin A1c/Hemoglobin.total in Blood"
        },
        "valueQuantity": {
          "system": "http://unitsofmeasure.org",
          "value": 4,
          "unit": "%",
          "code": "%"
        },
        "referenceRange": [
          {
            "low": {
              "value": 4,
              "code": "%",
              "system": "http://unitsofmeasure.org"
            }
          },
          {
            "high": {
              "value": 6.4,
              "code": "%",
              "system": "http://unitsofmeasure.org"
            }
          }
        ],
        "text": {
          "status": "generated",
          "div": "<div xmlns=\"http://www.w3.org/1999/xhtml\"><table class=\"hl7__eu__lab__report\"><tr><th>Test</th><th>21-May-2024</th><th>Reference&#xA0;Range</th><th>Unit</th></tr><tr><td>Hemoglobin A1c/Hemoglobin.total in Blood</td><td>4.0</td><td>4 - 6.4</td><td></td><td>%</td></tr></table></div>"
        },
        "status": "final",
        "subject": {
          "reference": "urn:uuid:ca783d0d-22a7-4fe4-af27-15e1c8086351",
          "display": "Meaghan Neary"
        },
        "effectiveDateTime": "2024-05-20T22:11:04Z",
        "specimen": {
          "reference": "urn:uuid:23f06c03-ae5f-4877-952f-e1a084d040c9"
        }
      }
    },
    {
      "fullUrl": "urn:uuid:36cbbd20-0d21-4405-9509-56e8cee4a96f",
      "resource": {
        "resourceType": "Observation",
        "id": "36cbbd20-0d21-4405-9509-56e8cee4a96f",
        "meta": {
          "profile": [
            "http://hl7.eu/fhir/laboratory/StructureDefinition/Observation-resultslab-eu-lab"
          ]
        },
        "performer": [
          {
            "display": "The Central European Lab"
          }
        ],
        "category": [
          {
            "coding": [
              {
                "system": "http://terminology.hl7.org/CodeSystem/observation-category",
                "code": "laboratory"
              }
            ]
          }
        ],
        "code": {
          "coding": [
            {
              "code": "2339-0",
              "system": "http://loinc.org",
              "display": "Glucose [Mass/volume] in Blood"
            }
          ],
          "text": "Glucose [Mass/volume] in Blood"
        },
        "valueQuantity": {
          "system": "http://unitsofmeasure.org",
          "value": 77.3,
          "unit": "mg/dL",
          "code": "mg/dL"
        },
        "referenceRange": [
          {
            "low": {
              "value": 70,
              "code": "mg/dL",
              "system": "http://unitsofmeasure.org"
            }
          },
          {
            "high": {
              "value": 100,
              "code": "mg/dL",
              "system": "http://unitsofmeasure.org"
            }
          }
        ],
        "text": {
          "status": "generated",
          "div": "<div xmlns=\"http://www.w3.org/1999/xhtml\"><table class=\"hl7__eu__lab__report\"><tr><th>Test</th><th>21-May-2024</th><th>Reference&#xA0;Range</th><th>Unit</th></tr><tr><td>Glucose [Mass/volume] in Blood</td><td>77.3</td><td>70 - 100</td><td></td><td>mg/dL</td></tr></table></div>"
        },
        "status": "final",
        "subject": {
          "reference": "urn:uuid:ca783d0d-22a7-4fe4-af27-15e1c8086351",
          "display": "Meaghan Neary"
        },
        "effectiveDateTime": "2024-05-20T22:11:04Z",
        "specimen": {
          "reference": "urn:uuid:23f06c03-ae5f-4877-952f-e1a084d040c9"
        }
      }
    },
    {
      "fullUrl": "urn:uuid:58050974-c8c5-4e50-ac4b-99fff42b7adc",
      "resource": {
        "resourceType": "Observation",
        "id": "58050974-c8c5-4e50-ac4b-99fff42b7adc",
        "meta": {
          "profile": [
            "http://hl7.eu/fhir/laboratory/StructureDefinition/Observation-resultslab-eu-lab"
          ]
        },
        "performer": [
          {
            "display": "The Central European Lab"
          }
        ],
        "category": [
          {
            "coding": [
              {
                "system": "http://terminology.hl7.org/CodeSystem/observation-category",
                "code": "laboratory"
              }
            ]
          }
        ],
        "code": {
          "coding": [
            {
              "code": "6299-2",
              "system": "http://loinc.org",
              "display": "Urea nitrogen [Mass/volume] in Blood"
            }
          ],
          "text": "Urea nitrogen [Mass/volume] in Blood"
        },
        "valueQuantity": {
          "system": "http://unitsofmeasure.org",
          "value": 15.2,
          "unit": "mg/dL",
          "code": "mg/dL"
        },
        "referenceRange": [
          {
            "low": {
              "value": 7,
              "code": "mg/dL",
              "system": "http://unitsofmeasure.org"
            }
          },
          {
            "high": {
              "value": 43,
              "code": "mg/dL",
              "system": "http://unitsofmeasure.org"
            }
          }
        ],
        "text": {
          "status": "generated",
          "div": "<div xmlns=\"http://www.w3.org/1999/xhtml\"><table class=\"hl7__eu__lab__report\"><tr><th>Test</th><th>21-May-2024</th><th>Reference&#xA0;Range</th><th>Unit</th></tr><tr><td>Urea nitrogen [Mass/volume] in Blood</td><td>15.2</td><td>7 - 43</td><td></td><td>mg/dL</td></tr></table></div>"
        },
        "status": "final",
        "subject": {
          "reference": "urn:uuid:ca783d0d-22a7-4fe4-af27-15e1c8086351",
          "display": "Meaghan Neary"
        },
        "effectiveDateTime": "2024-05-20T22:11:04Z",
        "specimen": {
          "reference": "urn:uuid:23f06c03-ae5f-4877-952f-e1a084d040c9"
        }
      }
    },
    {
      "fullUrl": "urn:uuid:a1914d7f-f078-48d5-8b32-ed1b78e113a1",
      "resource": {
        "resourceType": "Observation",
        "id": "a1914d7f-f078-48d5-8b32-ed1b78e113a1",
        "meta": {
          "profile": [
            "http://hl7.eu/fhir/laboratory/StructureDefinition/Observation-resultslab-eu-lab"
          ]
        },
        "performer": [
          {
            "display": "The Central European Lab"
          }
        ],
        "category": [
          {
            "coding": [
              {
                "system": "http://terminology.hl7.org/CodeSystem/observation-category",
                "code": "laboratory"
              }
            ]
          }
        ],
        "code": {
          "coding": [
            {
              "code": "38483-4",
              "system": "http://loinc.org",
              "display": "Creatinine [Mass/volume] in Blood"
            }
          ],
          "text": "Creatinine [Mass/volume] in Blood"
        },
        "valueQuantity": {
          "system": "http://unitsofmeasure.org",
          "value": 2.9,
          "unit": "mg/dL",
          "code": "mg/dL"
        },
        "referenceRange": [
          {
            "low": {
              "value": 0.6,
              "code": "mg/dL",
              "system": "http://unitsofmeasure.org"
            }
          },
          {
            "high": {
              "value": 1.1,
              "code": "mg/dL",
              "system": "http://unitsofmeasure.org"
            }
          }
        ],
        "interpretation": [
          {
            "coding": [
              {
                "code": "H",
                "system": "http://terminology.hl7.org/CodeSystem/v3-ObservationInterpretation",
                "display": "High"
              }
            ]
          }
        ],
        "text": {
          "status": "generated",
          "div": "<div xmlns=\"http://www.w3.org/1999/xhtml\"><table class=\"hl7__eu__lab__report\"><tr><th>Test</th><th>21-May-2024</th><th>Reference&#xA0;Range</th><th>Unit</th></tr><tr><td>Creatinine [Mass/volume] in Blood</td><td>2.9</td><td>0.6 - 1.1</td><td>H</td><td>mg/dL</td></tr></table></div>"
        },
        "status": "final",
        "subject": {
          "reference": "urn:uuid:ca783d0d-22a7-4fe4-af27-15e1c8086351",
          "display": "Meaghan Neary"
        },
        "effectiveDateTime": "2024-05-20T22:11:04Z",
        "specimen": {
          "reference": "urn:uuid:23f06c03-ae5f-4877-952f-e1a084d040c9"
        }
      }
    },
    {
      "fullUrl": "urn:uuid:3c48d116-3895-44ba-92ef-eb9e39113d82",
      "resource": {
        "resourceType": "Observation",
        "id": "3c48d116-3895-44ba-92ef-eb9e39113d82",
        "meta": {
          "profile": [
            "http://hl7.eu/fhir/laboratory/StructureDefinition/Observation-resultslab-eu-lab"
          ]
        },
        "performer": [
          {
            "display": "The Central European Lab"
          }
        ],
        "category": [
          {
            "coding": [
              {
                "system": "http://terminology.hl7.org/CodeSystem/observation-category",
                "code": "laboratory"
              }
            ]
          }
        ],
        "code": {
          "coding": [
            {
              "code": "49765-1",
              "system": "http://loinc.org",
              "display": "Calcium [Mass/volume] in Blood"
            }
          ],
          "text": "Calcium [Mass/volume] in Blood"
        },
        "valueQuantity": {
          "system": "http://unitsofmeasure.org",
          "value": 9.3,
          "unit": "mg/dL",
          "code": "mg/dL"
        },
        "referenceRange": [
          {
            "low": {
              "value": 8.5,
              "code": "mg/dL",
              "system": "http://unitsofmeasure.org"
            }
          },
          {
            "high": {
              "value": 10.5,
              "code": "mg/dL",
              "system": "http://unitsofmeasure.org"
            }
          }
        ],
        "text": {
          "status": "generated",
          "div": "<div xmlns=\"http://www.w3.org/1999/xhtml\"><table class=\"hl7__eu__lab__report\"><tr><th>Test</th><th>21-May-2024</th><th>Reference&#xA0;Range</th><th>Unit</th></tr><tr><td>Calcium [Mass/volume] in Blood</td><td>9.3</td><td>8.5 - 10.5</td><td></td><td>mg/dL</td></tr></table></div>"
        },
        "status": "final",
        "subject": {
          "reference": "urn:uuid:ca783d0d-22a7-4fe4-af27-15e1c8086351",
          "display": "Meaghan Neary"
        },
        "effectiveDateTime": "2024-05-20T22:11:04Z",
        "specimen": {
          "reference": "urn:uuid:23f06c03-ae5f-4877-952f-e1a084d040c9"
        }
      }
    },
    {
      "fullUrl": "urn:uuid:b7c657df-1d24-4bfc-baad-d6632de89106",
      "resource": {
        "resourceType": "Observation",
        "id": "b7c657df-1d24-4bfc-baad-d6632de89106",
        "meta": {
          "profile": [
            "http://hl7.eu/fhir/laboratory/StructureDefinition/Observation-resultslab-eu-lab"
          ]
        },
        "performer": [
          {
            "display": "The Central European Lab"
          }
        ],
        "category": [
          {
            "coding": [
              {
                "system": "http://terminology.hl7.org/CodeSystem/observation-category",
                "code": "laboratory"
              }
            ]
          }
        ],
        "code": {
          "coding": [
            {
              "code": "2947-0",
              "system": "http://loinc.org",
              "display": "Sodium [Moles/volume] in Blood"
            }
          ],
          "text": "Sodium [Moles/volume] in Blood"
        },
        "valueQuantity": {
          "system": "http://unitsofmeasure.org",
          "value": 139.6,
          "unit": "mmol/L",
          "code": "mmol/L"
        },
        "referenceRange": [
          {
            "low": {
              "value": 135,
              "code": "mmol/L",
              "system": "http://unitsofmeasure.org"
            }
          },
          {
            "high": {
              "value": 145,
              "code": "mmol/L",
              "system": "http://unitsofmeasure.org"
            }
          }
        ],
        "text": {
          "status": "generated",
          "div": "<div xmlns=\"http://www.w3.org/1999/xhtml\"><table class=\"hl7__eu__lab__report\"><tr><th>Test</th><th>21-May-2024</th><th>Reference&#xA0;Range</th><th>Unit</th></tr><tr><td>Sodium [Moles/volume] in Blood</td><td>139.6</td><td>135 - 145</td><td></td><td>mmol/L</td></tr></table></div>"
        },
        "status": "final",
        "subject": {
          "reference": "urn:uuid:ca783d0d-22a7-4fe4-af27-15e1c8086351",
          "display": "Meaghan Neary"
        },
        "effectiveDateTime": "2024-05-20T22:11:04Z",
        "specimen": {
          "reference": "urn:uuid:23f06c03-ae5f-4877-952f-e1a084d040c9"
        }
      }
    },
    {
      "fullUrl": "urn:uuid:89ae9df5-8757-4317-a4f3-5b312e568db4",
      "resource": {
        "resourceType": "Observation",
        "id": "89ae9df5-8757-4317-a4f3-5b312e568db4",
        "meta": {
          "profile": [
            "http://hl7.eu/fhir/laboratory/StructureDefinition/Observation-resultslab-eu-lab"
          ]
        },
        "performer": [
          {
            "display": "The Central European Lab"
          }
        ],
        "category": [
          {
            "coding": [
              {
                "system": "http://terminology.hl7.org/CodeSystem/observation-category",
                "code": "laboratory"
              }
            ]
          }
        ],
        "code": {
          "coding": [
            {
              "code": "6298-4",
              "system": "http://loinc.org",
              "display": "Potassium [Moles/volume] in Blood"
            }
          ],
          "text": "Potassium [Moles/volume] in Blood"
        },
        "valueQuantity": {
          "system": "http://unitsofmeasure.org",
          "value": 4.6,
          "unit": "mmol/L",
          "code": "mmol/L"
        },
        "referenceRange": [
          {
            "low": {
              "value": 3.5,
              "code": "mmol/L",
              "system": "http://unitsofmeasure.org"
            }
          },
          {
            "high": {
              "value": 5.1,
              "code": "mmol/L",
              "system": "http://unitsofmeasure.org"
            }
          }
        ],
        "text": {
          "status": "generated",
          "div": "<div xmlns=\"http://www.w3.org/1999/xhtml\"><table class=\"hl7__eu__lab__report\"><tr><th>Test</th><th>21-May-2024</th><th>Reference&#xA0;Range</th><th>Unit</th></tr><tr><td>Potassium [Moles/volume] in Blood</td><td>4.6</td><td>3.5 - 5.1</td><td></td><td>mmol/L</td></tr></table></div>"
        },
        "status": "final",
        "subject": {
          "reference": "urn:uuid:ca783d0d-22a7-4fe4-af27-15e1c8086351",
          "display": "Meaghan Neary"
        },
        "effectiveDateTime": "2024-05-20T22:11:04Z",
        "specimen": {
          "reference": "urn:uuid:23f06c03-ae5f-4877-952f-e1a084d040c9"
        }
      }
    },
    {
      "fullUrl": "urn:uuid:1153b0c1-7425-433c-a2f8-53cf48379a1a",
      "resource": {
        "resourceType": "Observation",
        "id": "1153b0c1-7425-433c-a2f8-53cf48379a1a",
        "meta": {
          "profile": [
            "http://hl7.eu/fhir/laboratory/StructureDefinition/Observation-resultslab-eu-lab"
          ]
        },
        "performer": [
          {
            "display": "The Central European Lab"
          }
        ],
        "category": [
          {
            "coding": [
              {
                "system": "http://terminology.hl7.org/CodeSystem/observation-category",
                "code": "laboratory"
              }
            ]
          }
        ],
        "code": {
          "coding": [
            {
              "code": "2069-3",
              "system": "http://loinc.org",
              "display": "Chloride [Moles/volume] in Blood"
            }
          ],
          "text": "Chloride [Moles/volume] in Blood"
        },
        "valueQuantity": {
          "system": "http://unitsofmeasure.org",
          "value": 107.9,
          "unit": "mmol/L",
          "code": "mmol/L"
        },
        "referenceRange": [
          {
            "low": {
              "value": 98,
              "code": "mmol/L",
              "system": "http://unitsofmeasure.org"
            }
          },
          {
            "high": {
              "value": 108,
              "code": "mmol/L",
              "system": "http://unitsofmeasure.org"
            }
          }
        ],
        "text": {
          "status": "generated",
          "div": "<div xmlns=\"http://www.w3.org/1999/xhtml\"><table class=\"hl7__eu__lab__report\"><tr><th>Test</th><th>21-May-2024</th><th>Reference&#xA0;Range</th><th>Unit</th></tr><tr><td>Chloride [Moles/volume] in Blood</td><td>107.9</td><td>98 - 108</td><td></td><td>mmol/L</td></tr></table></div>"
        },
        "status": "final",
        "subject": {
          "reference": "urn:uuid:ca783d0d-22a7-4fe4-af27-15e1c8086351",
          "display": "Meaghan Neary"
        },
        "effectiveDateTime": "2024-05-20T22:11:04Z",
        "specimen": {
          "reference": "urn:uuid:23f06c03-ae5f-4877-952f-e1a084d040c9"
        }
      }
    },
    {
      "fullUrl": "urn:uuid:07d51235-9add-4b4b-8be5-56b29000f377",
      "resource": {
        "resourceType": "Observation",
        "id": "07d51235-9add-4b4b-8be5-56b29000f377",
        "meta": {
          "profile": [
            "http://hl7.eu/fhir/laboratory/StructureDefinition/Observation-resultslab-eu-lab"
          ]
        },
        "performer": [
          {
            "display": "The Central European Lab"
          }
        ],
        "category": [
          {
            "coding": [
              {
                "system": "http://terminology.hl7.org/CodeSystem/observation-category",
                "code": "laboratory"
              }
            ]
          }
        ],
        "code": {
          "coding": [
            {
              "code": "20565-8",
              "system": "http://loinc.org",
              "display": "Carbon dioxide, total [Moles/volume] in Blood"
            }
          ],
          "text": "Carbon dioxide, total [Moles/volume] in Blood"
        },
        "valueQuantity": {
          "system": "http://unitsofmeasure.org",
          "value": 28.2,
          "unit": "mmol/L",
          "code": "mmol/L"
        },
        "referenceRange": [
          {
            "low": {
              "value": 22,
              "code": "mmol/L",
              "system": "http://unitsofmeasure.org"
            }
          },
          {
            "high": {
              "value": 29,
              "code": "mmol/L",
              "system": "http://unitsofmeasure.org"
            }
          }
        ],
        "text": {
          "status": "generated",
          "div": "<div xmlns=\"http://www.w3.org/1999/xhtml\"><table class=\"hl7__eu__lab__report\"><tr><th>Test</th><th>21-May-2024</th><th>Reference&#xA0;Range</th><th>Unit</th></tr><tr><td>Carbon dioxide, total [Moles/volume] in Blood</td><td>28.2</td><td>22 - 29</td><td></td><td>mmol/L</td></tr></table></div>"
        },
        "status": "final",
        "subject": {
          "reference": "urn:uuid:ca783d0d-22a7-4fe4-af27-15e1c8086351",
          "display": "Meaghan Neary"
        },
        "effectiveDateTime": "2024-05-20T22:11:04Z",
        "specimen": {
          "reference": "urn:uuid:23f06c03-ae5f-4877-952f-e1a084d040c9"
        }
      }
    },
    {
      "fullUrl": "urn:uuid:52496e75-b2c9-4bd0-a55d-235a95320832",
      "resource": {
        "resourceType": "Device",
        "id": "52496e75-b2c9-4bd0-a55d-235a95320832",
        "deviceName": [
          {
            "name": "SYNDERAI Synthetic Generator",
            "type": "manufacturer-name"
          }
        ],
        "version": [
          {
            "value": "5.0"
          }
        ],
        "text": {
          "status": "generated",
          "div": "<div xmlns=\"http://www.w3.org/1999/xhtml\">SYNDERAI Synthetic Generator v5.0</div>"
        },
        "status": "active\"",
        "distinctIdentifier": "synderai-generator-50",
        "manufacturer": "SYNDERAI Project"
      }
    },
    {
      "fullUrl": "urn:uuid:55ac389f-078b-40fa-b786-f976fc650df5",
      "resource": {
        "resourceType": "Provenance",
        "id": "55ac389f-078b-40fa-b786-f976fc650df5",
        "target": [
          {
            "reference": "Patient/ca783d0d-22a7-4fe4-af27-15e1c8086351"
          },
          {
            "reference": "Bundle/4e46174e-7d28-408c-9d0d-7a1212bbc244"
          },
          {
            "reference": "Composition/732bf9f7-b155-4974-a253-5fc110ca1c7d"
          },
          {
            "reference": "PractitionerRole/1aea9157-1a35-4bbb-8a4b-f183a8cb609d"
          },
          {
            "reference": "Practitioner/a5210651-5b35-4776-82b2-3d2871b0a3bc"
          },
          {
            "reference": "PractitionerRole/23317c37-4ad6-454a-b704-17379b156766"
          },
          {
            "reference": "Organization/426d8c58-d139-47bd-91f8-55e413d888a1"
          }
        ],
        "activity": {
          "text": "Synthetic Example Data Generation"
        },
        "policy": [
          "https://synderai.net/synderai-synthetic-data-policy"
        ],
        "agent": [
          {
            "type": {
              "text": "author"
            },
            "who": {
              "reference": "Device/52496e75-b2c9-4bd0-a55d-235a95320832"
            }
          }
        ],
        "reason": [
          {
            "text": "Interoperability Testing and Training (non-clinical use)"
          }
        ],
        "text": {
          "status": "generated",
          "div": "<div xmlns=\"http://www.w3.org/1999/xhtml\">Provenance for SYNDERAI Synthetic Example Data Resource</div>"
        },
        "recorded": "2024-05-21T00:11:04Z"
      }
    },
    {
      "fullUrl": "urn:uuid:1aea9157-1a35-4bbb-8a4b-f183a8cb609d",
      "resource": {
        "resourceType": "PractitionerRole",
        "id": "1aea9157-1a35-4bbb-8a4b-f183a8cb609d",
        "meta": {
          "profile": [
            "http://hl7.eu/fhir/base/StructureDefinition/practitionerRole-eu"
          ]
        },
        "text": {
          "status": "generated",
          "div": "<div xmlns=\"http://www.w3.org/1999/xhtml\">Laboratory Role Id: 1aea9157-1a35-4bbb-8a4b-f183a8cb609d</div>"
        },
        "practitioner": {
          "reference": "urn:uuid:a5210651-5b35-4776-82b2-3d2871b0a3bc"
        }
      }
    },
    {
      "fullUrl": "urn:uuid:a5210651-5b35-4776-82b2-3d2871b0a3bc",
      "resource": {
        "resourceType": "Practitioner",
        "id": "a5210651-5b35-4776-82b2-3d2871b0a3bc",
        "meta": {
          "profile": [
            "http://hl7.eu/fhir/base/StructureDefinition/practitioner-eu"
          ]
        },
        "identifier": [
          {
            "assigner": {
              "display": "HL7 Europe"
            },
            "system": "urn:oid:2.16.840.1.113883.2.51.999",
            "value": "d7339ade-3ac5-4c5f-a815-f042572507e0"
          }
        ],
        "name": [
          {
            "prefix": [
              "dr"
            ],
            "given": [
              "Ex"
            ],
            "family": "Ample"
          }
        ],
        "address": [
          {
            "line": [
              "Laboratoire Central Europenne",
              "Boulevard du Jardin Botanique 32"
            ],
            "postalCode": "1000",
            "city": "Brussels",
            "country": "Belgium"
          }
        ],
        "text": {
          "status": "generated",
          "div": "<div xmlns=\"http://www.w3.org/1999/xhtml\">Laboratory: Laboratoire Central Europenne, 1000 Brussels, Belgium</div>"
        }
      }
    }
  ],
  "type": "document",
  "timestamp": "2024-05-21T00:11:04Z"
}
