{
  "resourceType": "Bundle",
  "id": "1118f9ec-261a-4d02-b2be-3ae8c89bd9f1",
  "meta": {
    "profile": [
      "http://hl7.eu/fhir/laboratory/StructureDefinition/Bundle-eu-lab"
    ]
  },
  "identifier": {
    "assigner": {
      "display": "HL7 Europe"
    },
    "system": "urn:oid:2.16.840.1.113883.2.51.999",
    "value": "30b7f993-87c5-4fd1-ac09-4e42b927bdf2"
  },
  "entry": [
    {
      "fullUrl": "urn:uuid:06b752d9-5b31-433f-896c-638e2708b851",
      "resource": {
        "resourceType": "Composition",
        "id": "06b752d9-5b31-433f-896c-638e2708b851",
        "meta": {
          "profile": [
            "http://hl7.eu/fhir/laboratory/StructureDefinition/Composition-eu-lab"
          ]
        },
        "identifier": {
          "assigner": {
            "display": "HL7 Europe"
          },
          "system": "urn:oid:2.16.840.1.113883.2.51.999",
          "value": "1bf8681a-cd70-48cf-a1de-bc956ed2cd5e"
        },
        "author": [
          {
            "reference": "urn:uuid:0e6ae931-d45c-4899-8bc4-1c1c7cdae2b2"
          }
        ],
        "category": [
          {
            "coding": [
              {
                "code": "26436-6",
                "system": "http://loinc.org",
                "display": "Laboratory studies (set)"
              }
            ]
          }
        ],
        "type": {
          "coding": [
            {
              "code": "11502-2",
              "system": "http://loinc.org",
              "display": "Laboratory report"
            }
          ],
          "text": "Laboratory Report"
        },
        "section": [
          {
            "code": {
              "coding": [
                {
                  "code": "26436-6",
                  "system": "http://loinc.org",
                  "display": "Laboratory studies (set)"
                }
              ],
              "text": "Laboratory studies"
            },
            "section": [
              {
                "code": {
                  "coding": [
                    {
                      "code": "$18719-5",
                      "system": "http://loinc.org",
                      "display": "Chemistry studies (set)"
                    }
                  ],
                  "text": "Chemistry"
                },
                "entry": [
                  {
                    "reference": "urn:uuid:ee9f0385-12cf-4431-a114-921b0b59783d"
                  },
                  {
                    "reference": "urn:uuid:ad7adff1-b18e-45d4-b0e7-c6519e6ecdc5"
                  },
                  {
                    "reference": "urn:uuid:d54623cf-25dd-4788-8b66-3fae29e33511"
                  },
                  {
                    "reference": "urn:uuid:877e8f0e-1ce8-4727-ab41-a7338460d923"
                  },
                  {
                    "reference": "urn:uuid:5f2c818b-e7cb-452a-b2e7-254e1e350a35"
                  },
                  {
                    "reference": "urn:uuid:9ea6b9b3-8000-41ef-8ef2-dc5755a9e6e5"
                  },
                  {
                    "reference": "urn:uuid:22309882-a8fb-45ed-85e7-6ac7ec6d4485"
                  },
                  {
                    "reference": "urn:uuid:78682c89-a09f-4c5b-a1f8-e9fe6ba34e76"
                  },
                  {
                    "reference": "urn:uuid:6653ca9b-c3ec-46dc-8e51-1c197050867f"
                  },
                  {
                    "reference": "urn:uuid:97eeb615-2f93-4b5d-921b-15fc28d03a7e"
                  },
                  {
                    "reference": "urn:uuid:54b4a949-2028-4bf0-8c09-ef74e5eb8cb3"
                  },
                  {
                    "reference": "urn:uuid:4a5fd3b2-b253-4736-bc0a-fb0fcd623392"
                  },
                  {
                    "reference": "urn:uuid:dbc83bb6-6017-47fc-9913-eb8d6b01c30d"
                  },
                  {
                    "reference": "urn:uuid:03dfec3c-0814-40fe-adc7-0ec41c2e5481"
                  },
                  {
                    "reference": "urn:uuid:48bd33f6-c2e7-4da6-8218-b96839a26264"
                  },
                  {
                    "reference": "urn:uuid:ad495d53-21de-4247-96b3-ea9a09c7f804"
                  },
                  {
                    "reference": "urn:uuid:9304b34b-fca2-4a6d-945c-1a9ba93a21d7"
                  },
                  {
                    "reference": "urn:uuid:de323b83-c5d7-4201-bb36-338b42d62c8f"
                  }
                ],
                "text": {
                  "status": "generated",
                  "div": "<div xmlns=\"http://www.w3.org/1999/xhtml\"><h3>Chemistry</h3><table class=\"hl7__eu__lab__report\"><thead><tr><th>Test</th><th>22-MAY-2024</th><th>Reference&#xA0;Range</th><th>Unit</th></tr></thead><tbody><tr><td>Glucose [Mass/volume] in Serum or Plasma</td><td><strong>68.4 L</strong></td><td>70 - 140</td><td>mg/dL</td></tr><tr><td>Urea nitrogen [Mass/volume] in Serum or Plasma</td><td>14.3</td><td>7 - 20</td><td>mg/dL</td></tr><tr><td>Creatinine [Mass/volume] in Serum or Plasma</td><td><strong>1.9 H</strong></td><td>0.9 - 1.3</td><td>mg/dL</td></tr><tr><td>Calcium [Mass/volume] in Serum or Plasma</td><td>9.3</td><td>8.5 - 10.5</td><td>mg/dL</td></tr><tr><td>Sodium [Moles/volume] in Serum or Plasma</td><td>143.1</td><td>135 - 145</td><td>mmol/L</td></tr><tr><td>Potassium [Moles/volume] in Serum or Plasma</td><td>4.7</td><td>3.5 - 5</td><td>mmol/L</td></tr><tr><td>Chloride [Moles/volume] in Serum or Plasma</td><td>104.7</td><td>98 - 108</td><td>mmol/L</td></tr><tr><td>Carbon dioxide, total [Moles/volume] in Serum or Plasma</td><td>28.9</td><td>22 - 29</td><td>mmol/L</td></tr><tr><td>Ketones [Presence] in Urine by Test strip</td><td>Urine ketone test = ++</td><td></td><td></td></tr><tr><td>Hemoglobin A1c/Hemoglobin.total in Blood</td><td><strong>2.9 L</strong></td><td>4.3 - 6.4</td><td>%</td></tr><tr><td>Glucose [Mass/volume] in Blood</td><td><strong>68.4 L</strong></td><td>70 - 140</td><td>mg/dL</td></tr><tr><td>Urea nitrogen [Mass/volume] in Blood</td><td>14.3</td><td>7 - 20</td><td>mg/dL</td></tr><tr><td>Creatinine [Mass/volume] in Blood</td><td><strong>5.6 H</strong></td><td>0.6 - 1.3</td><td>mg/dL</td></tr><tr><td>Calcium [Mass/volume] in Blood</td><td>9.3</td><td>8.5 - 10.5</td><td>mg/dL</td></tr><tr><td>Sodium [Moles/volume] in Blood</td><td>143.1</td><td>135 - 145</td><td>mmol/L</td></tr><tr><td>Potassium [Moles/volume] in Blood</td><td>4.7</td><td>3.5 - 5.3</td><td>mmol/L</td></tr><tr><td>Chloride [Moles/volume] in Blood</td><td>104.7</td><td>98 - 110</td><td>mmol/L</td></tr><tr><td>Carbon dioxide, total [Moles/volume] in Blood</td><td>28.9</td><td>22 - 29</td><td>mmol/L</td></tr></tbody></table></div>"
                },
                "title": "Chemistry"
              },
              {
                "code": {
                  "coding": [
                    {
                      "code": "$18729-4",
                      "system": "http://loinc.org",
                      "display": "Urinalysis studies (set)"
                    }
                  ],
                  "text": "Urinalysis"
                },
                "entry": [
                  {
                    "reference": "urn:uuid:abe4ed11-2eb2-424f-8e2f-05174d8497c7"
                  },
                  {
                    "reference": "urn:uuid:6f7e5060-3375-4f77-9aa6-5b2240664aa4"
                  },
                  {
                    "reference": "urn:uuid:7ce18784-97ab-46dd-aa2e-c038d7c48ddf"
                  },
                  {
                    "reference": "urn:uuid:c85331f3-ea3f-4c4f-9dbf-37dc0a7d9f78"
                  },
                  {
                    "reference": "urn:uuid:a0c5e0ed-9822-4d32-9fc1-cd1c90287f21"
                  },
                  {
                    "reference": "urn:uuid:5d1fe01e-8095-4fb7-ac74-35fcafa0b323"
                  },
                  {
                    "reference": "urn:uuid:e312032c-d613-4b5d-b65a-90a7778afa5e"
                  },
                  {
                    "reference": "urn:uuid:b103c74e-a653-4a3d-9957-59da00af9106"
                  },
                  {
                    "reference": "urn:uuid:7a4cf648-5922-48ba-a816-8e29a64b07ec"
                  },
                  {
                    "reference": "urn:uuid:73d4f1a4-fcb2-4099-819c-69216b28a42c"
                  },
                  {
                    "reference": "urn:uuid:573b5346-d5f3-466c-a96c-2d189f39acbb"
                  },
                  {
                    "reference": "urn:uuid:973d1ae3-93c7-4b49-a3ee-fbf3f1afeae9"
                  }
                ],
                "text": {
                  "status": "generated",
                  "div": "<div xmlns=\"http://www.w3.org/1999/xhtml\"><h3>Urinalysis</h3><table class=\"hl7__eu__lab__report\"><thead><tr><th>Test</th><th>22-MAY-2024</th><th>Reference&#xA0;Range</th><th>Unit</th></tr></thead><tbody><tr><td>Glucose [Mass/volume] in Urine by Test strip</td><td><strong>2.4 H</strong></td><td>0 - 0.8</td><td>mg/dL</td></tr><tr><td>Glucose [Presence] in Urine by Test strip</td><td>++</td><td></td><td></td></tr><tr><td>Bilirubin.total [Mass/volume] in Urine by Test strip</td><td><strong>1.4 H</strong></td><td>0.2 - 1</td><td>mg/dL</td></tr><tr><td>Bilirubin.total [Presence] in Urine by Test strip</td><td>Finding of bilirubin in urine</td><td></td><td></td></tr><tr><td>Ketones [Mass/volume] in Urine by Test strip</td><td><strong>14.4 H</strong></td><td>0 - 5</td><td>mg/dL</td></tr><tr><td>Specific gravity of Urine by Test strip</td><td><strong>1.0 L</strong></td><td>1.005 - 1.03</td><td>{nominal}</td></tr><tr><td>pH of Urine by Test strip</td><td>5.5</td><td>4.6 - 7</td><td>pH</td></tr><tr><td>Protein [Mass/volume] in Urine by Test strip</td><td><strong>237.6 H</strong></td><td>0 - 150</td><td>mg/dL</td></tr><tr><td>Protein [Presence] in Urine by Test strip</td><td>Urine protein test = ++</td><td></td><td></td></tr><tr><td>Nitrite [Presence] in Urine by Test strip</td><td>Urine nitrite negative</td><td></td><td></td></tr><tr><td>Hemoglobin [Presence] in Urine by Test strip</td><td>Urine blood test = negative</td><td></td><td></td></tr><tr><td>Leukocyte esterase [Presence] in Urine by Test strip</td><td>Urine leukocyte test negative</td><td></td><td></td></tr></tbody></table></div>"
                },
                "title": "Urinalysis"
              },
              {
                "code": {
                  "coding": [
                    {
                      "code": "$LP7846-1",
                      "system": "http://loinc.org",
                      "display": "Specimen information"
                    }
                  ],
                  "text": "Specimen information"
                },
                "entry": [
                  {
                    "reference": "urn:uuid:340dbc98-460f-40d8-8153-8dacc95cd6af"
                  },
                  {
                    "reference": "urn:uuid:6545f0b9-ae7a-4464-b0d6-3304bd16718a"
                  },
                  {
                    "reference": "urn:uuid:7d50952f-f115-4ee0-8c70-3b12c4165b0d"
                  },
                  {
                    "reference": "urn:uuid:4e0291e2-3a8b-4d42-9440-f6aa71aa260f"
                  }
                ],
                "text": {
                  "status": "generated",
                  "div": "<div xmlns=\"http://www.w3.org/1999/xhtml\"><h3>Specimen information</h3><table class=\"hl7__eu__lab__report\"><thead><tr><th>Test</th><th>22-MAY-2024</th><th>Specimen</th><th></th></tr></thead><tbody><tr><td>Appearance of Urine</td><td>Cloudy urine</td><td>Urine</td><td></td></tr><tr><td>Odor of Urine</td><td>Urine smell ammoniacal</td><td>Urine</td><td></td></tr><tr><td>Clarity of Urine</td><td>Translucent</td><td>Urine</td><td></td></tr><tr><td>Color of Urine</td><td>Brown color</td><td>Urine</td><td></td></tr></tbody></table></div>"
                },
                "title": "Specimen information"
              }
            ],
            "title": "Laboratory Report"
          },
          {
            "text": {
              "status": "generated",
              "div": "<div xmlns=\"http://www.w3.org/1999/xhtml\"><h3>Annotation</h3><table class=\"hl7__eu__lab__report\"><tr><th>Conclusion and Recommendations based on this report and previous findings known to us</th></tr><tr><td>The patient shows significant renal impairment (markedly elevated creatinine), proteinuria, glucosuria, ketonuria, and abnormal urine appearance, suggesting possible acute or chronic kidney disease with glycosuria not explained by diabetes (very low HbA1c and blood glucose). Urine findings (brown, cloudy, ammoniacal) may indicate underlying renal or urinary tract pathology. Immediate nephrology evaluation is recommended.</td></tr></table></div>"
            },
            "code": {
              "coding": [
                {
                  "system": "http://loinc.org",
                  "code": "48767-8",
                  "display": "Annotation comment"
                }
              ]
            },
            "title": "Annotation comment"
          }
        ],
        "status": "final",
        "subject": {
          "reference": "urn:uuid:fbead9da-da76-4a1c-9c77-97af68766e44",
          "display": "Θεμιστοκλής Λιναρδάκη"
        },
        "date": "2024-05-22T08:16:00Z",
        "title": "Laboratory Report",
        "confidentiality": "N"
      }
    },
    {
      "fullUrl": "urn:uuid:e3031769-d4d4-444c-b562-a16f05ac9036",
      "resource": {
        "resourceType": "DiagnosticReport",
        "id": "e3031769-d4d4-444c-b562-a16f05ac9036",
        "meta": {
          "profile": [
            "http://hl7.eu/fhir/laboratory/StructureDefinition/DiagnosticReport-eu-lab"
          ]
        },
        "identifier": [
          {
            "assigner": {
              "display": "HL7 Europe"
            },
            "system": "urn:oid:2.16.840.1.113883.2.51.999",
            "value": "1293058a-5968-4c5e-9cb2-ebc0401120f1"
          }
        ],
        "extension": [
          {
            "url": "http://hl7.org/fhir/5.0/StructureDefinition/extension-DiagnosticReport.composition",
            "valueReference": {
              "reference": "urn:uuid:1bf8681a-cd70-48cf-a1de-bc956ed2cd5e"
            }
          }
        ],
        "category": [
          {
            "coding": [
              {
                "code": "26436-6",
                "system": "http://loinc.org",
                "display": "Laboratory studies (set)"
              }
            ]
          }
        ],
        "specimen": [
          {
            "reference": "urn:uuid:2230a0c5-4a59-4508-af27-105a11351010"
          },
          {
            "reference": "urn:uuid:447e5160-1d34-4cec-87d4-ad834bbebc69"
          },
          {
            "reference": "urn:uuid:dfdd2816-8272-4e52-8f14-00981f9f6286"
          }
        ],
        "result": [
          {
            "reference": "urn:uuid:ee9f0385-12cf-4431-a114-921b0b59783d"
          },
          {
            "reference": "urn:uuid:ad7adff1-b18e-45d4-b0e7-c6519e6ecdc5"
          },
          {
            "reference": "urn:uuid:d54623cf-25dd-4788-8b66-3fae29e33511"
          },
          {
            "reference": "urn:uuid:877e8f0e-1ce8-4727-ab41-a7338460d923"
          },
          {
            "reference": "urn:uuid:5f2c818b-e7cb-452a-b2e7-254e1e350a35"
          },
          {
            "reference": "urn:uuid:9ea6b9b3-8000-41ef-8ef2-dc5755a9e6e5"
          },
          {
            "reference": "urn:uuid:22309882-a8fb-45ed-85e7-6ac7ec6d4485"
          },
          {
            "reference": "urn:uuid:78682c89-a09f-4c5b-a1f8-e9fe6ba34e76"
          },
          {
            "reference": "urn:uuid:340dbc98-460f-40d8-8153-8dacc95cd6af"
          },
          {
            "reference": "urn:uuid:6545f0b9-ae7a-4464-b0d6-3304bd16718a"
          },
          {
            "reference": "urn:uuid:7d50952f-f115-4ee0-8c70-3b12c4165b0d"
          },
          {
            "reference": "urn:uuid:4e0291e2-3a8b-4d42-9440-f6aa71aa260f"
          },
          {
            "reference": "urn:uuid:abe4ed11-2eb2-424f-8e2f-05174d8497c7"
          },
          {
            "reference": "urn:uuid:6f7e5060-3375-4f77-9aa6-5b2240664aa4"
          },
          {
            "reference": "urn:uuid:7ce18784-97ab-46dd-aa2e-c038d7c48ddf"
          },
          {
            "reference": "urn:uuid:c85331f3-ea3f-4c4f-9dbf-37dc0a7d9f78"
          },
          {
            "reference": "urn:uuid:a0c5e0ed-9822-4d32-9fc1-cd1c90287f21"
          },
          {
            "reference": "urn:uuid:6653ca9b-c3ec-46dc-8e51-1c197050867f"
          },
          {
            "reference": "urn:uuid:5d1fe01e-8095-4fb7-ac74-35fcafa0b323"
          },
          {
            "reference": "urn:uuid:e312032c-d613-4b5d-b65a-90a7778afa5e"
          },
          {
            "reference": "urn:uuid:b103c74e-a653-4a3d-9957-59da00af9106"
          },
          {
            "reference": "urn:uuid:7a4cf648-5922-48ba-a816-8e29a64b07ec"
          },
          {
            "reference": "urn:uuid:73d4f1a4-fcb2-4099-819c-69216b28a42c"
          },
          {
            "reference": "urn:uuid:573b5346-d5f3-466c-a96c-2d189f39acbb"
          },
          {
            "reference": "urn:uuid:973d1ae3-93c7-4b49-a3ee-fbf3f1afeae9"
          },
          {
            "reference": "urn:uuid:97eeb615-2f93-4b5d-921b-15fc28d03a7e"
          },
          {
            "reference": "urn:uuid:54b4a949-2028-4bf0-8c09-ef74e5eb8cb3"
          },
          {
            "reference": "urn:uuid:4a5fd3b2-b253-4736-bc0a-fb0fcd623392"
          },
          {
            "reference": "urn:uuid:dbc83bb6-6017-47fc-9913-eb8d6b01c30d"
          },
          {
            "reference": "urn:uuid:03dfec3c-0814-40fe-adc7-0ec41c2e5481"
          },
          {
            "reference": "urn:uuid:48bd33f6-c2e7-4da6-8218-b96839a26264"
          },
          {
            "reference": "urn:uuid:ad495d53-21de-4247-96b3-ea9a09c7f804"
          },
          {
            "reference": "urn:uuid:9304b34b-fca2-4a6d-945c-1a9ba93a21d7"
          },
          {
            "reference": "urn:uuid:de323b83-c5d7-4201-bb36-338b42d62c8f"
          }
        ],
        "status": "registered",
        "code": {
          "coding": [
            {
              "code": "11502-2",
              "system": "http://loinc.org",
              "display": "Laboratory report"
            }
          ]
        },
        "subject": {
          "reference": "urn:uuid:fbead9da-da76-4a1c-9c77-97af68766e44",
          "display": "Θεμιστοκλής Λιναρδάκη"
        }
      }
    },
    {
      "fullUrl": "urn:uuid:fbead9da-da76-4a1c-9c77-97af68766e44",
      "resource": {
        "resourceType": "Patient",
        "id": "fbead9da-da76-4a1c-9c77-97af68766e44",
        "meta": {
          "security": [
            {
              "system": "http://terminology.hl7.org/CodeSystem/v3-ActReason",
              "code": "HTEST"
            },
            {
              "system": "http://terminology.hl7.org/CodeSystem/v3-ActReason",
              "code": "TRAIN"
            }
          ],
          "tag": [
            {
              "system": "https://synderai.net/fhir/CodeSystem/tags",
              "code": "synthetic",
              "display": "SYNDERAI Synthetic data"
            }
          ],
          "profile": [
            "http://hl7.eu/fhir/base/StructureDefinition/patient-eu-core"
          ]
        },
        "identifier": [
          {
            "type": {
              "coding": [
                {
                  "code": "PT",
                  "system": "http://terminology.hl7.org/CodeSystem/v2-0203"
                }
              ]
            },
            "system": "http://ec.europa.eu/identifier/eci",
            "value": "5962-476889-7"
          },
          {
            "type": {
              "coding": [
                {
                  "code": "MR",
                  "system": "http://terminology.hl7.org/CodeSystem/v2-0203"
                }
              ]
            },
            "system": "http://local.setting.eu/identifier",
            "value": "925e2603-2ef9-6bdf-1330-2ebf526636c4"
          }
        ],
        "name": [
          {
            "family": "Λιναρδάκη"
          },
          {
            "given": [
              "Θεμιστοκλής"
            ]
          },
          {
            "text": "Θεμιστοκλής Λιναρδάκη"
          }
        ],
        "address": [
          {
            "line": [
              "Αμαρύνθου 54-58"
            ],
            "use": "home",
            "type": "physical",
            "postalCode": "262 21",
            "city": "Πάτρα",
            "country": "Greece"
          }
        ],
        "telecom": [
          {
            "system": "phone",
            "value": "+302226364480"
          }
        ],
        "extension": [
          {
            "url": "http://hl7.org/fhir/StructureDefinition/patient-nationality",
            "valueCodeableConcept": {
              "coding": [
                {
                  "code": "GR",
                  "system": "http://hl7.org/fhir/ValueSet/country"
                }
              ]
            }
          }
        ],
        "text": {
          "status": "generated",
          "div": "<div xmlns=\"http://www.w3.org/1999/xhtml\"><table class=\"hl7__ips\"><tr><td>Θεμιστοκλής Λιναρδάκη</td><td>male</td><td>21-Jan-1974</td></tr></table></div>"
        },
        "gender": "male",
        "birthDate": "1974-01-21"
      }
    },
    {
      "fullUrl": "urn:uuid:b95a755a-6226-4806-ba17-e4885b90b926",
      "resource": {
        "resourceType": "ServiceRequest",
        "id": "b95a755a-6226-4806-ba17-e4885b90b926",
        "meta": {
          "profile": [
            "http://hl7.eu/fhir/laboratory/StructureDefinition/ServiceRequest-eu-lab"
          ]
        },
        "identifier": [
          {
            "system": "http://example.org",
            "value": "31a1d18f-d0ae-45ef-b136-569f5aa3cf82"
          }
        ],
        "specimen": [
          {
            "reference": "urn:uuid:2230a0c5-4a59-4508-af27-105a11351010"
          },
          {
            "reference": "urn:uuid:447e5160-1d34-4cec-87d4-ad834bbebc69"
          },
          {
            "reference": "urn:uuid:dfdd2816-8272-4e52-8f14-00981f9f6286"
          }
        ],
        "reasonCode": [
          {
            "coding": [
              {
                "code": "237602007",
                "system": "http://snomed.info/sct",
                "display": "Metabolic syndrome X"
              }
            ]
          },
          {
            "coding": [
              {
                "code": "433144002",
                "system": "http://snomed.info/sct",
                "display": "Chronic kidney disease stage 3"
              }
            ]
          },
          {
            "coding": [
              {
                "code": "157141000119108",
                "system": "http://snomed.info/sct",
                "display": "Proteinuria due to type 2 diabetes mellitus"
              }
            ]
          },
          {
            "coding": [
              {
                "code": "431856006",
                "system": "http://snomed.info/sct",
                "display": "Chronic kidney disease stage 2"
              }
            ]
          },
          {
            "coding": [
              {
                "code": "90781000119102",
                "system": "http://snomed.info/sct",
                "display": "Microalbuminuria due to type 2 diabetes mellitus"
              }
            ]
          },
          {
            "coding": [
              {
                "code": "127013003",
                "system": "http://snomed.info/sct",
                "display": "Disorder of kidney due to diabetes mellitus"
              }
            ]
          },
          {
            "coding": [
              {
                "code": "431855005",
                "system": "http://snomed.info/sct",
                "display": "Chronic kidney disease stage 1"
              }
            ]
          },
          {
            "coding": [
              {
                "code": "59621000",
                "system": "http://snomed.info/sct",
                "display": "Essential hypertension"
              }
            ]
          },
          {
            "coding": [
              {
                "code": "15777000",
                "system": "http://snomed.info/sct",
                "display": "Prediabetes"
              }
            ]
          },
          {
            "coding": [
              {
                "code": "271737000",
                "system": "http://snomed.info/sct",
                "display": "Anemia"
              }
            ]
          }
        ],
        "status": "active",
        "intent": "order",
        "code": {
          "coding": [
            {
              "code": "108252007",
              "system": "http://snomed.info/sct",
              "display": "Laboratory procedure"
            }
          ]
        },
        "subject": {
          "reference": "urn:uuid:fbead9da-da76-4a1c-9c77-97af68766e44",
          "display": "Θεμιστοκλής Λιναρδάκη"
        },
        "requester": {
          "reference": "urn:uuid:76a9871e-4544-479b-940d-0b92ac305f6b"
        }
      }
    },
    {
      "fullUrl": "urn:uuid:76a9871e-4544-479b-940d-0b92ac305f6b",
      "resource": {
        "resourceType": "PractitionerRole",
        "id": "76a9871e-4544-479b-940d-0b92ac305f6b",
        "meta": {
          "profile": [
            "http://hl7.eu/fhir/base/StructureDefinition/practitionerRole-eu"
          ]
        },
        "text": {
          "status": "generated",
          "div": "<div xmlns=\"http://www.w3.org/1999/xhtml\">Provider Role Id: 76a9871e-4544-479b-940d-0b92ac305f6b</div>"
        },
        "organization": {
          "reference": "urn:uuid:4129f15e-6ab8-4f2d-a137-873c93b6100c"
        }
      }
    },
    {
      "fullUrl": "urn:uuid:4129f15e-6ab8-4f2d-a137-873c93b6100c",
      "resource": {
        "resourceType": "Organization",
        "id": "4129f15e-6ab8-4f2d-a137-873c93b6100c",
        "meta": {
          "profile": [
            "http://hl7.eu/fhir/base/StructureDefinition/organization-eu"
          ]
        },
        "identifier": [
          {
            "assigner": {
              "display": "HL7 Europe"
            },
            "system": "urn:oid:2.16.840.1.113883.2.51.999",
            "value": "0bf2832c-426d-499e-91a6-69f1d7ac73f5"
          }
        ],
        "address": [
          {
            "line": [
              "211 Odós Filellinon"
            ],
            "city": "Patras",
            "postalCode": "262 21",
            "country": "Greece"
          }
        ],
        "text": {
          "status": "generated",
          "div": "<div xmlns=\"http://www.w3.org/1999/xhtml\">Provider Organization: Dr. Dimitris Economou</div>"
        },
        "name": "Dr. Dimitris Economou"
      }
    },
    {
      "fullUrl": "urn:uuid:2230a0c5-4a59-4508-af27-105a11351010",
      "resource": {
        "resourceType": "Specimen",
        "id": "2230a0c5-4a59-4508-af27-105a11351010",
        "meta": {
          "profile": [
            "http://hl7.eu/fhir/laboratory/StructureDefinition/Specimen-eu-lab"
          ]
        },
        "collection": {
          "collectedDateTime": "2024-05-22"
        },
        "text": {
          "status": "generated",
          "div": "<div xmlns=\"http://www.w3.org/1999/xhtml\"><table class=\"hl7__eu__lab__report\"><tr><th>Specimen</th><th>Collection Date</th></tr><tr><td>Acellular blood (serum or plasma) specimen</td><td><span class=\"nb\">22-May-2024</span></td></tr></table></div>"
        },
        "type": {
          "coding": [
            {
              "code": "122592007",
              "system": "http://snomed.info/sct",
              "display": "Acellular blood (serum or plasma) specimen"
            }
          ]
        }
      }
    },
    {
      "fullUrl": "urn:uuid:447e5160-1d34-4cec-87d4-ad834bbebc69",
      "resource": {
        "resourceType": "Specimen",
        "id": "447e5160-1d34-4cec-87d4-ad834bbebc69",
        "meta": {
          "profile": [
            "http://hl7.eu/fhir/laboratory/StructureDefinition/Specimen-eu-lab"
          ]
        },
        "collection": {
          "collectedDateTime": "2024-05-22"
        },
        "text": {
          "status": "generated",
          "div": "<div xmlns=\"http://www.w3.org/1999/xhtml\"><table class=\"hl7__eu__lab__report\"><tr><th>Specimen</th><th>Collection Date</th></tr><tr><td>Urine specimen</td><td><span class=\"nb\">22-May-2024</span></td></tr></table></div>"
        },
        "type": {
          "coding": [
            {
              "code": "122575003",
              "system": "http://snomed.info/sct",
              "display": "Urine specimen"
            }
          ]
        }
      }
    },
    {
      "fullUrl": "urn:uuid:dfdd2816-8272-4e52-8f14-00981f9f6286",
      "resource": {
        "resourceType": "Specimen",
        "id": "dfdd2816-8272-4e52-8f14-00981f9f6286",
        "meta": {
          "profile": [
            "http://hl7.eu/fhir/laboratory/StructureDefinition/Specimen-eu-lab"
          ]
        },
        "collection": {
          "collectedDateTime": "2024-05-22"
        },
        "text": {
          "status": "generated",
          "div": "<div xmlns=\"http://www.w3.org/1999/xhtml\"><table class=\"hl7__eu__lab__report\"><tr><th>Specimen</th><th>Collection Date</th></tr><tr><td>Whole blood specimen (specimen)</td><td><span class=\"nb\">22-May-2024</span></td></tr></table></div>"
        },
        "type": {
          "coding": [
            {
              "code": "258580003",
              "system": "http://snomed.info/sct",
              "display": "Whole blood specimen (specimen)"
            }
          ]
        }
      }
    },
    {
      "fullUrl": "urn:uuid:ee9f0385-12cf-4431-a114-921b0b59783d",
      "resource": {
        "resourceType": "Observation",
        "id": "ee9f0385-12cf-4431-a114-921b0b59783d",
        "meta": {
          "profile": [
            "http://hl7.eu/fhir/laboratory/StructureDefinition/Observation-resultslab-eu-lab"
          ]
        },
        "performer": [
          {
            "display": "The Central European Lab"
          }
        ],
        "category": [
          {
            "coding": [
              {
                "system": "http://terminology.hl7.org/CodeSystem/observation-category",
                "code": "laboratory"
              }
            ]
          }
        ],
        "code": {
          "coding": [
            {
              "code": "2345-7",
              "system": "http://loinc.org",
              "display": "Glucose [Mass/volume] in Serum or Plasma"
            }
          ],
          "text": "Glucose [Mass/volume] in Serum or Plasma"
        },
        "valueQuantity": {
          "system": "http://unitsofmeasure.org",
          "value": 68.4,
          "unit": "mg/dL",
          "code": "mg/dL"
        },
        "referenceRange": [
          {
            "low": {
              "value": 70,
              "code": "mg/dL",
              "system": "http://unitsofmeasure.org"
            }
          },
          {
            "high": {
              "value": 140,
              "code": "mg/dL",
              "system": "http://unitsofmeasure.org"
            }
          }
        ],
        "interpretation": [
          {
            "coding": [
              {
                "code": "L",
                "system": "http://terminology.hl7.org/CodeSystem/v3-ObservationInterpretation",
                "display": "Low"
              }
            ]
          }
        ],
        "text": {
          "status": "generated",
          "div": "<div xmlns=\"http://www.w3.org/1999/xhtml\"><table class=\"hl7__eu__lab__report\"><tr><th>Test</th><th>22-May-2024</th><th>Reference&#xA0;Range</th><th>Unit</th></tr><tr><td>Glucose [Mass/volume] in Serum or Plasma</td><td>68.4</td><td>70 - 140</td><td>L</td><td>mg/dL</td></tr></table></div>"
        },
        "status": "final",
        "subject": {
          "reference": "urn:uuid:fbead9da-da76-4a1c-9c77-97af68766e44",
          "display": "Θεμιστοκλής Λιναρδάκη"
        },
        "effectiveDateTime": "2024-05-22T06:16:00Z",
        "specimen": {
          "reference": "urn:uuid:2230a0c5-4a59-4508-af27-105a11351010"
        }
      }
    },
    {
      "fullUrl": "urn:uuid:ad7adff1-b18e-45d4-b0e7-c6519e6ecdc5",
      "resource": {
        "resourceType": "Observation",
        "id": "ad7adff1-b18e-45d4-b0e7-c6519e6ecdc5",
        "meta": {
          "profile": [
            "http://hl7.eu/fhir/laboratory/StructureDefinition/Observation-resultslab-eu-lab"
          ]
        },
        "performer": [
          {
            "display": "The Central European Lab"
          }
        ],
        "category": [
          {
            "coding": [
              {
                "system": "http://terminology.hl7.org/CodeSystem/observation-category",
                "code": "laboratory"
              }
            ]
          }
        ],
        "code": {
          "coding": [
            {
              "code": "3094-0",
              "system": "http://loinc.org",
              "display": "Urea nitrogen [Mass/volume] in Serum or Plasma"
            }
          ],
          "text": "Urea nitrogen [Mass/volume] in Serum or Plasma"
        },
        "valueQuantity": {
          "system": "http://unitsofmeasure.org",
          "value": 14.3,
          "unit": "mg/dL",
          "code": "mg/dL"
        },
        "referenceRange": [
          {
            "low": {
              "value": 7,
              "code": "mg/dL",
              "system": "http://unitsofmeasure.org"
            }
          },
          {
            "high": {
              "value": 20,
              "code": "mg/dL",
              "system": "http://unitsofmeasure.org"
            }
          }
        ],
        "text": {
          "status": "generated",
          "div": "<div xmlns=\"http://www.w3.org/1999/xhtml\"><table class=\"hl7__eu__lab__report\"><tr><th>Test</th><th>22-May-2024</th><th>Reference&#xA0;Range</th><th>Unit</th></tr><tr><td>Urea nitrogen [Mass/volume] in Serum or Plasma</td><td>14.3</td><td>7 - 20</td><td></td><td>mg/dL</td></tr></table></div>"
        },
        "status": "final",
        "subject": {
          "reference": "urn:uuid:fbead9da-da76-4a1c-9c77-97af68766e44",
          "display": "Θεμιστοκλής Λιναρδάκη"
        },
        "effectiveDateTime": "2024-05-22T06:16:00Z",
        "specimen": {
          "reference": "urn:uuid:2230a0c5-4a59-4508-af27-105a11351010"
        }
      }
    },
    {
      "fullUrl": "urn:uuid:d54623cf-25dd-4788-8b66-3fae29e33511",
      "resource": {
        "resourceType": "Observation",
        "id": "d54623cf-25dd-4788-8b66-3fae29e33511",
        "meta": {
          "profile": [
            "http://hl7.eu/fhir/laboratory/StructureDefinition/Observation-resultslab-eu-lab"
          ]
        },
        "performer": [
          {
            "display": "The Central European Lab"
          }
        ],
        "category": [
          {
            "coding": [
              {
                "system": "http://terminology.hl7.org/CodeSystem/observation-category",
                "code": "laboratory"
              }
            ]
          }
        ],
        "code": {
          "coding": [
            {
              "code": "2160-0",
              "system": "http://loinc.org",
              "display": "Creatinine [Mass/volume] in Serum or Plasma"
            }
          ],
          "text": "Creatinine [Mass/volume] in Serum or Plasma"
        },
        "valueQuantity": {
          "system": "http://unitsofmeasure.org",
          "value": 1.9,
          "unit": "mg/dL",
          "code": "mg/dL"
        },
        "referenceRange": [
          {
            "low": {
              "value": 0.9,
              "code": "mg/dL",
              "system": "http://unitsofmeasure.org"
            }
          },
          {
            "high": {
              "value": 1.3,
              "code": "mg/dL",
              "system": "http://unitsofmeasure.org"
            }
          }
        ],
        "interpretation": [
          {
            "coding": [
              {
                "code": "H",
                "system": "http://terminology.hl7.org/CodeSystem/v3-ObservationInterpretation",
                "display": "High"
              }
            ]
          }
        ],
        "text": {
          "status": "generated",
          "div": "<div xmlns=\"http://www.w3.org/1999/xhtml\"><table class=\"hl7__eu__lab__report\"><tr><th>Test</th><th>22-May-2024</th><th>Reference&#xA0;Range</th><th>Unit</th></tr><tr><td>Creatinine [Mass/volume] in Serum or Plasma</td><td>1.9</td><td>0.9 - 1.3</td><td>H</td><td>mg/dL</td></tr></table></div>"
        },
        "status": "final",
        "subject": {
          "reference": "urn:uuid:fbead9da-da76-4a1c-9c77-97af68766e44",
          "display": "Θεμιστοκλής Λιναρδάκη"
        },
        "effectiveDateTime": "2024-05-22T06:16:00Z",
        "specimen": {
          "reference": "urn:uuid:2230a0c5-4a59-4508-af27-105a11351010"
        }
      }
    },
    {
      "fullUrl": "urn:uuid:877e8f0e-1ce8-4727-ab41-a7338460d923",
      "resource": {
        "resourceType": "Observation",
        "id": "877e8f0e-1ce8-4727-ab41-a7338460d923",
        "meta": {
          "profile": [
            "http://hl7.eu/fhir/laboratory/StructureDefinition/Observation-resultslab-eu-lab"
          ]
        },
        "performer": [
          {
            "display": "The Central European Lab"
          }
        ],
        "category": [
          {
            "coding": [
              {
                "system": "http://terminology.hl7.org/CodeSystem/observation-category",
                "code": "laboratory"
              }
            ]
          }
        ],
        "code": {
          "coding": [
            {
              "code": "17861-6",
              "system": "http://loinc.org",
              "display": "Calcium [Mass/volume] in Serum or Plasma"
            }
          ],
          "text": "Calcium [Mass/volume] in Serum or Plasma"
        },
        "valueQuantity": {
          "system": "http://unitsofmeasure.org",
          "value": 9.3,
          "unit": "mg/dL",
          "code": "mg/dL"
        },
        "referenceRange": [
          {
            "low": {
              "value": 8.5,
              "code": "mg/dL",
              "system": "http://unitsofmeasure.org"
            }
          },
          {
            "high": {
              "value": 10.5,
              "code": "mg/dL",
              "system": "http://unitsofmeasure.org"
            }
          }
        ],
        "text": {
          "status": "generated",
          "div": "<div xmlns=\"http://www.w3.org/1999/xhtml\"><table class=\"hl7__eu__lab__report\"><tr><th>Test</th><th>22-May-2024</th><th>Reference&#xA0;Range</th><th>Unit</th></tr><tr><td>Calcium [Mass/volume] in Serum or Plasma</td><td>9.3</td><td>8.5 - 10.5</td><td></td><td>mg/dL</td></tr></table></div>"
        },
        "status": "final",
        "subject": {
          "reference": "urn:uuid:fbead9da-da76-4a1c-9c77-97af68766e44",
          "display": "Θεμιστοκλής Λιναρδάκη"
        },
        "effectiveDateTime": "2024-05-22T06:16:00Z",
        "specimen": {
          "reference": "urn:uuid:2230a0c5-4a59-4508-af27-105a11351010"
        }
      }
    },
    {
      "fullUrl": "urn:uuid:5f2c818b-e7cb-452a-b2e7-254e1e350a35",
      "resource": {
        "resourceType": "Observation",
        "id": "5f2c818b-e7cb-452a-b2e7-254e1e350a35",
        "meta": {
          "profile": [
            "http://hl7.eu/fhir/laboratory/StructureDefinition/Observation-resultslab-eu-lab"
          ]
        },
        "performer": [
          {
            "display": "The Central European Lab"
          }
        ],
        "category": [
          {
            "coding": [
              {
                "system": "http://terminology.hl7.org/CodeSystem/observation-category",
                "code": "laboratory"
              }
            ]
          }
        ],
        "code": {
          "coding": [
            {
              "code": "2951-2",
              "system": "http://loinc.org",
              "display": "Sodium [Moles/volume] in Serum or Plasma"
            }
          ],
          "text": "Sodium [Moles/volume] in Serum or Plasma"
        },
        "valueQuantity": {
          "system": "http://unitsofmeasure.org",
          "value": 143.1,
          "unit": "mmol/L",
          "code": "mmol/L"
        },
        "referenceRange": [
          {
            "low": {
              "value": 135,
              "code": "mmol/L",
              "system": "http://unitsofmeasure.org"
            }
          },
          {
            "high": {
              "value": 145,
              "code": "mmol/L",
              "system": "http://unitsofmeasure.org"
            }
          }
        ],
        "text": {
          "status": "generated",
          "div": "<div xmlns=\"http://www.w3.org/1999/xhtml\"><table class=\"hl7__eu__lab__report\"><tr><th>Test</th><th>22-May-2024</th><th>Reference&#xA0;Range</th><th>Unit</th></tr><tr><td>Sodium [Moles/volume] in Serum or Plasma</td><td>143.1</td><td>135 - 145</td><td></td><td>mmol/L</td></tr></table></div>"
        },
        "status": "final",
        "subject": {
          "reference": "urn:uuid:fbead9da-da76-4a1c-9c77-97af68766e44",
          "display": "Θεμιστοκλής Λιναρδάκη"
        },
        "effectiveDateTime": "2024-05-22T06:16:00Z",
        "specimen": {
          "reference": "urn:uuid:2230a0c5-4a59-4508-af27-105a11351010"
        }
      }
    },
    {
      "fullUrl": "urn:uuid:9ea6b9b3-8000-41ef-8ef2-dc5755a9e6e5",
      "resource": {
        "resourceType": "Observation",
        "id": "9ea6b9b3-8000-41ef-8ef2-dc5755a9e6e5",
        "meta": {
          "profile": [
            "http://hl7.eu/fhir/laboratory/StructureDefinition/Observation-resultslab-eu-lab"
          ]
        },
        "performer": [
          {
            "display": "The Central European Lab"
          }
        ],
        "category": [
          {
            "coding": [
              {
                "system": "http://terminology.hl7.org/CodeSystem/observation-category",
                "code": "laboratory"
              }
            ]
          }
        ],
        "code": {
          "coding": [
            {
              "code": "2823-3",
              "system": "http://loinc.org",
              "display": "Potassium [Moles/volume] in Serum or Plasma"
            }
          ],
          "text": "Potassium [Moles/volume] in Serum or Plasma"
        },
        "valueQuantity": {
          "system": "http://unitsofmeasure.org",
          "value": 4.7,
          "unit": "mmol/L",
          "code": "mmol/L"
        },
        "referenceRange": [
          {
            "low": {
              "value": 3.5,
              "code": "mmol/L",
              "system": "http://unitsofmeasure.org"
            }
          },
          {
            "high": {
              "value": 5,
              "code": "mmol/L",
              "system": "http://unitsofmeasure.org"
            }
          }
        ],
        "text": {
          "status": "generated",
          "div": "<div xmlns=\"http://www.w3.org/1999/xhtml\"><table class=\"hl7__eu__lab__report\"><tr><th>Test</th><th>22-May-2024</th><th>Reference&#xA0;Range</th><th>Unit</th></tr><tr><td>Potassium [Moles/volume] in Serum or Plasma</td><td>4.7</td><td>3.5 - 5</td><td></td><td>mmol/L</td></tr></table></div>"
        },
        "status": "final",
        "subject": {
          "reference": "urn:uuid:fbead9da-da76-4a1c-9c77-97af68766e44",
          "display": "Θεμιστοκλής Λιναρδάκη"
        },
        "effectiveDateTime": "2024-05-22T06:16:00Z",
        "specimen": {
          "reference": "urn:uuid:2230a0c5-4a59-4508-af27-105a11351010"
        }
      }
    },
    {
      "fullUrl": "urn:uuid:22309882-a8fb-45ed-85e7-6ac7ec6d4485",
      "resource": {
        "resourceType": "Observation",
        "id": "22309882-a8fb-45ed-85e7-6ac7ec6d4485",
        "meta": {
          "profile": [
            "http://hl7.eu/fhir/laboratory/StructureDefinition/Observation-resultslab-eu-lab"
          ]
        },
        "performer": [
          {
            "display": "The Central European Lab"
          }
        ],
        "category": [
          {
            "coding": [
              {
                "system": "http://terminology.hl7.org/CodeSystem/observation-category",
                "code": "laboratory"
              }
            ]
          }
        ],
        "code": {
          "coding": [
            {
              "code": "2075-0",
              "system": "http://loinc.org",
              "display": "Chloride [Moles/volume] in Serum or Plasma"
            }
          ],
          "text": "Chloride [Moles/volume] in Serum or Plasma"
        },
        "valueQuantity": {
          "system": "http://unitsofmeasure.org",
          "value": 104.7,
          "unit": "mmol/L",
          "code": "mmol/L"
        },
        "referenceRange": [
          {
            "low": {
              "value": 98,
              "code": "mmol/L",
              "system": "http://unitsofmeasure.org"
            }
          },
          {
            "high": {
              "value": 108,
              "code": "mmol/L",
              "system": "http://unitsofmeasure.org"
            }
          }
        ],
        "text": {
          "status": "generated",
          "div": "<div xmlns=\"http://www.w3.org/1999/xhtml\"><table class=\"hl7__eu__lab__report\"><tr><th>Test</th><th>22-May-2024</th><th>Reference&#xA0;Range</th><th>Unit</th></tr><tr><td>Chloride [Moles/volume] in Serum or Plasma</td><td>104.7</td><td>98 - 108</td><td></td><td>mmol/L</td></tr></table></div>"
        },
        "status": "final",
        "subject": {
          "reference": "urn:uuid:fbead9da-da76-4a1c-9c77-97af68766e44",
          "display": "Θεμιστοκλής Λιναρδάκη"
        },
        "effectiveDateTime": "2024-05-22T06:16:00Z",
        "specimen": {
          "reference": "urn:uuid:2230a0c5-4a59-4508-af27-105a11351010"
        }
      }
    },
    {
      "fullUrl": "urn:uuid:78682c89-a09f-4c5b-a1f8-e9fe6ba34e76",
      "resource": {
        "resourceType": "Observation",
        "id": "78682c89-a09f-4c5b-a1f8-e9fe6ba34e76",
        "meta": {
          "profile": [
            "http://hl7.eu/fhir/laboratory/StructureDefinition/Observation-resultslab-eu-lab"
          ]
        },
        "performer": [
          {
            "display": "The Central European Lab"
          }
        ],
        "category": [
          {
            "coding": [
              {
                "system": "http://terminology.hl7.org/CodeSystem/observation-category",
                "code": "laboratory"
              }
            ]
          }
        ],
        "code": {
          "coding": [
            {
              "code": "2028-9",
              "system": "http://loinc.org",
              "display": "Carbon dioxide, total [Moles/volume] in Serum or Plasma"
            }
          ],
          "text": "Carbon dioxide, total [Moles/volume] in Serum or Plasma"
        },
        "valueQuantity": {
          "system": "http://unitsofmeasure.org",
          "value": 28.9,
          "unit": "mmol/L",
          "code": "mmol/L"
        },
        "referenceRange": [
          {
            "low": {
              "value": 22,
              "code": "mmol/L",
              "system": "http://unitsofmeasure.org"
            }
          },
          {
            "high": {
              "value": 29,
              "code": "mmol/L",
              "system": "http://unitsofmeasure.org"
            }
          }
        ],
        "text": {
          "status": "generated",
          "div": "<div xmlns=\"http://www.w3.org/1999/xhtml\"><table class=\"hl7__eu__lab__report\"><tr><th>Test</th><th>22-May-2024</th><th>Reference&#xA0;Range</th><th>Unit</th></tr><tr><td>Carbon dioxide, total [Moles/volume] in Serum or Plasma</td><td>28.9</td><td>22 - 29</td><td></td><td>mmol/L</td></tr></table></div>"
        },
        "status": "final",
        "subject": {
          "reference": "urn:uuid:fbead9da-da76-4a1c-9c77-97af68766e44",
          "display": "Θεμιστοκλής Λιναρδάκη"
        },
        "effectiveDateTime": "2024-05-22T06:16:00Z",
        "specimen": {
          "reference": "urn:uuid:2230a0c5-4a59-4508-af27-105a11351010"
        }
      }
    },
    {
      "fullUrl": "urn:uuid:340dbc98-460f-40d8-8153-8dacc95cd6af",
      "resource": {
        "resourceType": "Observation",
        "id": "340dbc98-460f-40d8-8153-8dacc95cd6af",
        "meta": {
          "profile": [
            "http://hl7.eu/fhir/laboratory/StructureDefinition/Observation-resultslab-eu-lab"
          ]
        },
        "performer": [
          {
            "display": "The Central European Lab"
          }
        ],
        "category": [
          {
            "coding": [
              {
                "system": "http://terminology.hl7.org/CodeSystem/observation-category",
                "code": "laboratory"
              }
            ]
          }
        ],
        "code": {
          "coding": [
            {
              "code": "5767-9",
              "system": "http://loinc.org",
              "display": "Appearance of Urine"
            }
          ],
          "text": "Appearance of Urine"
        },
        "text": {
          "status": "generated",
          "div": "<div xmlns=\"http://www.w3.org/1999/xhtml\"><table class=\"hl7__eu__lab__report\"><tr><th>Test</th><th>22-May-2024</th><th>Reference&#xA0;Range</th><th>Unit</th></tr><tr><td>Appearance of Urine</td></tr></table></div>"
        },
        "status": "final",
        "subject": {
          "reference": "urn:uuid:fbead9da-da76-4a1c-9c77-97af68766e44",
          "display": "Θεμιστοκλής Λιναρδάκη"
        },
        "effectiveDateTime": "2024-05-22T06:16:00Z",
        "specimen": {
          "reference": "urn:uuid:447e5160-1d34-4cec-87d4-ad834bbebc69"
        }
      }
    },
    {
      "fullUrl": "urn:uuid:6545f0b9-ae7a-4464-b0d6-3304bd16718a",
      "resource": {
        "resourceType": "Observation",
        "id": "6545f0b9-ae7a-4464-b0d6-3304bd16718a",
        "meta": {
          "profile": [
            "http://hl7.eu/fhir/laboratory/StructureDefinition/Observation-resultslab-eu-lab"
          ]
        },
        "performer": [
          {
            "display": "The Central European Lab"
          }
        ],
        "category": [
          {
            "coding": [
              {
                "system": "http://terminology.hl7.org/CodeSystem/observation-category",
                "code": "laboratory"
              }
            ]
          }
        ],
        "code": {
          "coding": [
            {
              "code": "34533-0",
              "system": "http://loinc.org",
              "display": "Odor of Urine"
            }
          ],
          "text": "Odor of Urine"
        },
        "text": {
          "status": "generated",
          "div": "<div xmlns=\"http://www.w3.org/1999/xhtml\"><table class=\"hl7__eu__lab__report\"><tr><th>Test</th><th>22-May-2024</th><th>Reference&#xA0;Range</th><th>Unit</th></tr><tr><td>Odor of Urine</td></tr></table></div>"
        },
        "status": "final",
        "subject": {
          "reference": "urn:uuid:fbead9da-da76-4a1c-9c77-97af68766e44",
          "display": "Θεμιστοκλής Λιναρδάκη"
        },
        "effectiveDateTime": "2024-05-22T06:16:00Z",
        "specimen": {
          "reference": "urn:uuid:447e5160-1d34-4cec-87d4-ad834bbebc69"
        }
      }
    },
    {
      "fullUrl": "urn:uuid:7d50952f-f115-4ee0-8c70-3b12c4165b0d",
      "resource": {
        "resourceType": "Observation",
        "id": "7d50952f-f115-4ee0-8c70-3b12c4165b0d",
        "meta": {
          "profile": [
            "http://hl7.eu/fhir/laboratory/StructureDefinition/Observation-resultslab-eu-lab"
          ]
        },
        "performer": [
          {
            "display": "The Central European Lab"
          }
        ],
        "category": [
          {
            "coding": [
              {
                "system": "http://terminology.hl7.org/CodeSystem/observation-category",
                "code": "laboratory"
              }
            ]
          }
        ],
        "code": {
          "coding": [
            {
              "code": "32167-9",
              "system": "http://loinc.org",
              "display": "Clarity of Urine"
            }
          ],
          "text": "Clarity of Urine"
        },
        "text": {
          "status": "generated",
          "div": "<div xmlns=\"http://www.w3.org/1999/xhtml\"><table class=\"hl7__eu__lab__report\"><tr><th>Test</th><th>22-May-2024</th><th>Reference&#xA0;Range</th><th>Unit</th></tr><tr><td>Clarity of Urine</td></tr></table></div>"
        },
        "status": "final",
        "subject": {
          "reference": "urn:uuid:fbead9da-da76-4a1c-9c77-97af68766e44",
          "display": "Θεμιστοκλής Λιναρδάκη"
        },
        "effectiveDateTime": "2024-05-22T06:16:00Z",
        "specimen": {
          "reference": "urn:uuid:447e5160-1d34-4cec-87d4-ad834bbebc69"
        }
      }
    },
    {
      "fullUrl": "urn:uuid:4e0291e2-3a8b-4d42-9440-f6aa71aa260f",
      "resource": {
        "resourceType": "Observation",
        "id": "4e0291e2-3a8b-4d42-9440-f6aa71aa260f",
        "meta": {
          "profile": [
            "http://hl7.eu/fhir/laboratory/StructureDefinition/Observation-resultslab-eu-lab"
          ]
        },
        "performer": [
          {
            "display": "The Central European Lab"
          }
        ],
        "category": [
          {
            "coding": [
              {
                "system": "http://terminology.hl7.org/CodeSystem/observation-category",
                "code": "laboratory"
              }
            ]
          }
        ],
        "code": {
          "coding": [
            {
              "code": "5778-6",
              "system": "http://loinc.org",
              "display": "Color of Urine"
            }
          ],
          "text": "Color of Urine"
        },
        "text": {
          "status": "generated",
          "div": "<div xmlns=\"http://www.w3.org/1999/xhtml\"><table class=\"hl7__eu__lab__report\"><tr><th>Test</th><th>22-May-2024</th><th>Reference&#xA0;Range</th><th>Unit</th></tr><tr><td>Color of Urine</td></tr></table></div>"
        },
        "status": "final",
        "subject": {
          "reference": "urn:uuid:fbead9da-da76-4a1c-9c77-97af68766e44",
          "display": "Θεμιστοκλής Λιναρδάκη"
        },
        "effectiveDateTime": "2024-05-22T06:16:00Z",
        "specimen": {
          "reference": "urn:uuid:447e5160-1d34-4cec-87d4-ad834bbebc69"
        }
      }
    },
    {
      "fullUrl": "urn:uuid:abe4ed11-2eb2-424f-8e2f-05174d8497c7",
      "resource": {
        "resourceType": "Observation",
        "id": "abe4ed11-2eb2-424f-8e2f-05174d8497c7",
        "meta": {
          "profile": [
            "http://hl7.eu/fhir/laboratory/StructureDefinition/Observation-resultslab-eu-lab"
          ]
        },
        "performer": [
          {
            "display": "The Central European Lab"
          }
        ],
        "category": [
          {
            "coding": [
              {
                "system": "http://terminology.hl7.org/CodeSystem/observation-category",
                "code": "laboratory"
              }
            ]
          }
        ],
        "code": {
          "coding": [
            {
              "code": "5792-7",
              "system": "http://loinc.org",
              "display": "Glucose [Mass/volume] in Urine by Test strip"
            }
          ],
          "text": "Glucose [Mass/volume] in Urine by Test strip"
        },
        "valueQuantity": {
          "system": "http://unitsofmeasure.org",
          "value": 2.4,
          "unit": "mg/dL",
          "code": "mg/dL"
        },
        "referenceRange": [
          {
            "low": {
              "value": 0,
              "code": "mg/dL",
              "system": "http://unitsofmeasure.org"
            }
          },
          {
            "high": {
              "value": 0.8,
              "code": "mg/dL",
              "system": "http://unitsofmeasure.org"
            }
          }
        ],
        "interpretation": [
          {
            "coding": [
              {
                "code": "H",
                "system": "http://terminology.hl7.org/CodeSystem/v3-ObservationInterpretation",
                "display": "High"
              }
            ]
          }
        ],
        "text": {
          "status": "generated",
          "div": "<div xmlns=\"http://www.w3.org/1999/xhtml\"><table class=\"hl7__eu__lab__report\"><tr><th>Test</th><th>22-May-2024</th><th>Reference&#xA0;Range</th><th>Unit</th></tr><tr><td>Glucose [Mass/volume] in Urine by Test strip</td><td>2.4</td><td>0 - 0.8</td><td>H</td><td>mg/dL</td></tr></table></div>"
        },
        "status": "final",
        "subject": {
          "reference": "urn:uuid:fbead9da-da76-4a1c-9c77-97af68766e44",
          "display": "Θεμιστοκλής Λιναρδάκη"
        },
        "effectiveDateTime": "2024-05-22T06:16:00Z",
        "specimen": {
          "reference": "urn:uuid:447e5160-1d34-4cec-87d4-ad834bbebc69"
        }
      }
    },
    {
      "fullUrl": "urn:uuid:6f7e5060-3375-4f77-9aa6-5b2240664aa4",
      "resource": {
        "resourceType": "Observation",
        "id": "6f7e5060-3375-4f77-9aa6-5b2240664aa4",
        "meta": {
          "profile": [
            "http://hl7.eu/fhir/laboratory/StructureDefinition/Observation-resultslab-eu-lab"
          ]
        },
        "performer": [
          {
            "display": "The Central European Lab"
          }
        ],
        "category": [
          {
            "coding": [
              {
                "system": "http://terminology.hl7.org/CodeSystem/observation-category",
                "code": "laboratory"
              }
            ]
          }
        ],
        "code": {
          "coding": [
            {
              "code": "25428-4",
              "system": "http://loinc.org",
              "display": "Glucose [Presence] in Urine by Test strip"
            }
          ],
          "text": "Glucose [Presence] in Urine by Test strip"
        },
        "text": {
          "status": "generated",
          "div": "<div xmlns=\"http://www.w3.org/1999/xhtml\"><table class=\"hl7__eu__lab__report\"><tr><th>Test</th><th>22-May-2024</th><th>Reference&#xA0;Range</th><th>Unit</th></tr><tr><td>Glucose [Presence] in Urine by Test strip</td></tr></table></div>"
        },
        "status": "final",
        "subject": {
          "reference": "urn:uuid:fbead9da-da76-4a1c-9c77-97af68766e44",
          "display": "Θεμιστοκλής Λιναρδάκη"
        },
        "effectiveDateTime": "2024-05-22T06:16:00Z",
        "specimen": {
          "reference": "urn:uuid:447e5160-1d34-4cec-87d4-ad834bbebc69"
        }
      }
    },
    {
      "fullUrl": "urn:uuid:7ce18784-97ab-46dd-aa2e-c038d7c48ddf",
      "resource": {
        "resourceType": "Observation",
        "id": "7ce18784-97ab-46dd-aa2e-c038d7c48ddf",
        "meta": {
          "profile": [
            "http://hl7.eu/fhir/laboratory/StructureDefinition/Observation-resultslab-eu-lab"
          ]
        },
        "performer": [
          {
            "display": "The Central European Lab"
          }
        ],
        "category": [
          {
            "coding": [
              {
                "system": "http://terminology.hl7.org/CodeSystem/observation-category",
                "code": "laboratory"
              }
            ]
          }
        ],
        "code": {
          "coding": [
            {
              "code": "20505-4",
              "system": "http://loinc.org",
              "display": "Bilirubin.total [Mass/volume] in Urine by Test strip"
            }
          ],
          "text": "Bilirubin.total [Mass/volume] in Urine by Test strip"
        },
        "valueQuantity": {
          "system": "http://unitsofmeasure.org",
          "value": 1.4,
          "unit": "mg/dL",
          "code": "mg/dL"
        },
        "referenceRange": [
          {
            "low": {
              "value": 0.2,
              "code": "mg/dL",
              "system": "http://unitsofmeasure.org"
            }
          },
          {
            "high": {
              "value": 1,
              "code": "mg/dL",
              "system": "http://unitsofmeasure.org"
            }
          }
        ],
        "interpretation": [
          {
            "coding": [
              {
                "code": "H",
                "system": "http://terminology.hl7.org/CodeSystem/v3-ObservationInterpretation",
                "display": "High"
              }
            ]
          }
        ],
        "text": {
          "status": "generated",
          "div": "<div xmlns=\"http://www.w3.org/1999/xhtml\"><table class=\"hl7__eu__lab__report\"><tr><th>Test</th><th>22-May-2024</th><th>Reference&#xA0;Range</th><th>Unit</th></tr><tr><td>Bilirubin.total [Mass/volume] in Urine by Test strip</td><td>1.4</td><td>0.2 - 1</td><td>H</td><td>mg/dL</td></tr></table></div>"
        },
        "status": "final",
        "subject": {
          "reference": "urn:uuid:fbead9da-da76-4a1c-9c77-97af68766e44",
          "display": "Θεμιστοκλής Λιναρδάκη"
        },
        "effectiveDateTime": "2024-05-22T06:16:00Z",
        "specimen": {
          "reference": "urn:uuid:447e5160-1d34-4cec-87d4-ad834bbebc69"
        }
      }
    },
    {
      "fullUrl": "urn:uuid:c85331f3-ea3f-4c4f-9dbf-37dc0a7d9f78",
      "resource": {
        "resourceType": "Observation",
        "id": "c85331f3-ea3f-4c4f-9dbf-37dc0a7d9f78",
        "meta": {
          "profile": [
            "http://hl7.eu/fhir/laboratory/StructureDefinition/Observation-resultslab-eu-lab"
          ]
        },
        "performer": [
          {
            "display": "The Central European Lab"
          }
        ],
        "category": [
          {
            "coding": [
              {
                "system": "http://terminology.hl7.org/CodeSystem/observation-category",
                "code": "laboratory"
              }
            ]
          }
        ],
        "code": {
          "coding": [
            {
              "code": "5770-3",
              "system": "http://loinc.org",
              "display": "Bilirubin.total [Presence] in Urine by Test strip"
            }
          ],
          "text": "Bilirubin.total [Presence] in Urine by Test strip"
        },
        "text": {
          "status": "generated",
          "div": "<div xmlns=\"http://www.w3.org/1999/xhtml\"><table class=\"hl7__eu__lab__report\"><tr><th>Test</th><th>22-May-2024</th><th>Reference&#xA0;Range</th><th>Unit</th></tr><tr><td>Bilirubin.total [Presence] in Urine by Test strip</td></tr></table></div>"
        },
        "status": "final",
        "subject": {
          "reference": "urn:uuid:fbead9da-da76-4a1c-9c77-97af68766e44",
          "display": "Θεμιστοκλής Λιναρδάκη"
        },
        "effectiveDateTime": "2024-05-22T06:16:00Z",
        "specimen": {
          "reference": "urn:uuid:447e5160-1d34-4cec-87d4-ad834bbebc69"
        }
      }
    },
    {
      "fullUrl": "urn:uuid:a0c5e0ed-9822-4d32-9fc1-cd1c90287f21",
      "resource": {
        "resourceType": "Observation",
        "id": "a0c5e0ed-9822-4d32-9fc1-cd1c90287f21",
        "meta": {
          "profile": [
            "http://hl7.eu/fhir/laboratory/StructureDefinition/Observation-resultslab-eu-lab"
          ]
        },
        "performer": [
          {
            "display": "The Central European Lab"
          }
        ],
        "category": [
          {
            "coding": [
              {
                "system": "http://terminology.hl7.org/CodeSystem/observation-category",
                "code": "laboratory"
              }
            ]
          }
        ],
        "code": {
          "coding": [
            {
              "code": "5797-6",
              "system": "http://loinc.org",
              "display": "Ketones [Mass/volume] in Urine by Test strip"
            }
          ],
          "text": "Ketones [Mass/volume] in Urine by Test strip"
        },
        "valueQuantity": {
          "system": "http://unitsofmeasure.org",
          "value": 14.4,
          "unit": "mg/dL",
          "code": "mg/dL"
        },
        "referenceRange": [
          {
            "low": {
              "value": 0,
              "code": "mg/dL",
              "system": "http://unitsofmeasure.org"
            }
          },
          {
            "high": {
              "value": 5,
              "code": "mg/dL",
              "system": "http://unitsofmeasure.org"
            }
          }
        ],
        "interpretation": [
          {
            "coding": [
              {
                "code": "H",
                "system": "http://terminology.hl7.org/CodeSystem/v3-ObservationInterpretation",
                "display": "High"
              }
            ]
          }
        ],
        "text": {
          "status": "generated",
          "div": "<div xmlns=\"http://www.w3.org/1999/xhtml\"><table class=\"hl7__eu__lab__report\"><tr><th>Test</th><th>22-May-2024</th><th>Reference&#xA0;Range</th><th>Unit</th></tr><tr><td>Ketones [Mass/volume] in Urine by Test strip</td><td>14.4</td><td>0 - 5</td><td>H</td><td>mg/dL</td></tr></table></div>"
        },
        "status": "final",
        "subject": {
          "reference": "urn:uuid:fbead9da-da76-4a1c-9c77-97af68766e44",
          "display": "Θεμιστοκλής Λιναρδάκη"
        },
        "effectiveDateTime": "2024-05-22T06:16:00Z",
        "specimen": {
          "reference": "urn:uuid:447e5160-1d34-4cec-87d4-ad834bbebc69"
        }
      }
    },
    {
      "fullUrl": "urn:uuid:6653ca9b-c3ec-46dc-8e51-1c197050867f",
      "resource": {
        "resourceType": "Observation",
        "id": "6653ca9b-c3ec-46dc-8e51-1c197050867f",
        "meta": {
          "profile": [
            "http://hl7.eu/fhir/laboratory/StructureDefinition/Observation-resultslab-eu-lab"
          ]
        },
        "performer": [
          {
            "display": "The Central European Lab"
          }
        ],
        "category": [
          {
            "coding": [
              {
                "system": "http://terminology.hl7.org/CodeSystem/observation-category",
                "code": "laboratory"
              }
            ]
          }
        ],
        "code": {
          "coding": [
            {
              "code": "2514-8",
              "system": "http://loinc.org",
              "display": "Ketones [Presence] in Urine by Test strip"
            }
          ],
          "text": "Ketones [Presence] in Urine by Test strip"
        },
        "text": {
          "status": "generated",
          "div": "<div xmlns=\"http://www.w3.org/1999/xhtml\"><table class=\"hl7__eu__lab__report\"><tr><th>Test</th><th>22-May-2024</th><th>Reference&#xA0;Range</th><th>Unit</th></tr><tr><td>Ketones [Presence] in Urine by Test strip</td></tr></table></div>"
        },
        "status": "final",
        "subject": {
          "reference": "urn:uuid:fbead9da-da76-4a1c-9c77-97af68766e44",
          "display": "Θεμιστοκλής Λιναρδάκη"
        },
        "effectiveDateTime": "2024-05-22T06:16:00Z",
        "specimen": {
          "reference": "urn:uuid:447e5160-1d34-4cec-87d4-ad834bbebc69"
        }
      }
    },
    {
      "fullUrl": "urn:uuid:5d1fe01e-8095-4fb7-ac74-35fcafa0b323",
      "resource": {
        "resourceType": "Observation",
        "id": "5d1fe01e-8095-4fb7-ac74-35fcafa0b323",
        "meta": {
          "profile": [
            "http://hl7.eu/fhir/laboratory/StructureDefinition/Observation-resultslab-eu-lab"
          ]
        },
        "performer": [
          {
            "display": "The Central European Lab"
          }
        ],
        "category": [
          {
            "coding": [
              {
                "system": "http://terminology.hl7.org/CodeSystem/observation-category",
                "code": "laboratory"
              }
            ]
          }
        ],
        "code": {
          "coding": [
            {
              "code": "5811-5",
              "system": "http://loinc.org",
              "display": "Specific gravity of Urine by Test strip"
            }
          ],
          "text": "Specific gravity of Urine by Test strip"
        },
        "valueQuantity": {
          "system": "http://unitsofmeasure.org",
          "value": 1,
          "unit": "{nominal}",
          "code": "{nominal}"
        },
        "referenceRange": [
          {
            "low": {
              "value": 1.005,
              "code": "g/mL",
              "system": "http://unitsofmeasure.org"
            }
          },
          {
            "high": {
              "value": 1.03,
              "code": "g/mL",
              "system": "http://unitsofmeasure.org"
            }
          }
        ],
        "interpretation": [
          {
            "coding": [
              {
                "code": "L",
                "system": "http://terminology.hl7.org/CodeSystem/v3-ObservationInterpretation",
                "display": "Low"
              }
            ]
          }
        ],
        "text": {
          "status": "generated",
          "div": "<div xmlns=\"http://www.w3.org/1999/xhtml\"><table class=\"hl7__eu__lab__report\"><tr><th>Test</th><th>22-May-2024</th><th>Reference&#xA0;Range</th><th>Unit</th></tr><tr><td>Specific gravity of Urine by Test strip</td><td>1.0</td><td>1.005 - 1.03</td><td>L</td><td>{nominal}</td></tr></table></div>"
        },
        "status": "final",
        "subject": {
          "reference": "urn:uuid:fbead9da-da76-4a1c-9c77-97af68766e44",
          "display": "Θεμιστοκλής Λιναρδάκη"
        },
        "effectiveDateTime": "2024-05-22T06:16:00Z",
        "specimen": {
          "reference": "urn:uuid:447e5160-1d34-4cec-87d4-ad834bbebc69"
        }
      }
    },
    {
      "fullUrl": "urn:uuid:e312032c-d613-4b5d-b65a-90a7778afa5e",
      "resource": {
        "resourceType": "Observation",
        "id": "e312032c-d613-4b5d-b65a-90a7778afa5e",
        "meta": {
          "profile": [
            "http://hl7.eu/fhir/laboratory/StructureDefinition/Observation-resultslab-eu-lab"
          ]
        },
        "performer": [
          {
            "display": "The Central European Lab"
          }
        ],
        "category": [
          {
            "coding": [
              {
                "system": "http://terminology.hl7.org/CodeSystem/observation-category",
                "code": "laboratory"
              }
            ]
          }
        ],
        "code": {
          "coding": [
            {
              "code": "5803-2",
              "system": "http://loinc.org",
              "display": "pH of Urine by Test strip"
            }
          ],
          "text": "pH of Urine by Test strip"
        },
        "valueQuantity": {
          "system": "http://unitsofmeasure.org",
          "value": 5.5,
          "unit": "pH",
          "code": "pH"
        },
        "referenceRange": [
          {
            "low": {
              "value": 4.6,
              "code": "pH",
              "system": "http://unitsofmeasure.org"
            }
          },
          {
            "high": {
              "value": 7,
              "code": "pH",
              "system": "http://unitsofmeasure.org"
            }
          }
        ],
        "text": {
          "status": "generated",
          "div": "<div xmlns=\"http://www.w3.org/1999/xhtml\"><table class=\"hl7__eu__lab__report\"><tr><th>Test</th><th>22-May-2024</th><th>Reference&#xA0;Range</th><th>Unit</th></tr><tr><td>pH of Urine by Test strip</td><td>5.5</td><td>4.6 - 7</td><td></td><td>pH</td></tr></table></div>"
        },
        "status": "final",
        "subject": {
          "reference": "urn:uuid:fbead9da-da76-4a1c-9c77-97af68766e44",
          "display": "Θεμιστοκλής Λιναρδάκη"
        },
        "effectiveDateTime": "2024-05-22T06:16:00Z",
        "specimen": {
          "reference": "urn:uuid:447e5160-1d34-4cec-87d4-ad834bbebc69"
        }
      }
    },
    {
      "fullUrl": "urn:uuid:b103c74e-a653-4a3d-9957-59da00af9106",
      "resource": {
        "resourceType": "Observation",
        "id": "b103c74e-a653-4a3d-9957-59da00af9106",
        "meta": {
          "profile": [
            "http://hl7.eu/fhir/laboratory/StructureDefinition/Observation-resultslab-eu-lab"
          ]
        },
        "performer": [
          {
            "display": "The Central European Lab"
          }
        ],
        "category": [
          {
            "coding": [
              {
                "system": "http://terminology.hl7.org/CodeSystem/observation-category",
                "code": "laboratory"
              }
            ]
          }
        ],
        "code": {
          "coding": [
            {
              "code": "5804-0",
              "system": "http://loinc.org",
              "display": "Protein [Mass/volume] in Urine by Test strip"
            }
          ],
          "text": "Protein [Mass/volume] in Urine by Test strip"
        },
        "valueQuantity": {
          "system": "http://unitsofmeasure.org",
          "value": 237.6,
          "unit": "mg/dL",
          "code": "mg/dL"
        },
        "referenceRange": [
          {
            "low": {
              "value": 0,
              "code": "mg/dL",
              "system": "http://unitsofmeasure.org"
            }
          },
          {
            "high": {
              "value": 150,
              "code": "mg/dL",
              "system": "http://unitsofmeasure.org"
            }
          }
        ],
        "interpretation": [
          {
            "coding": [
              {
                "code": "H",
                "system": "http://terminology.hl7.org/CodeSystem/v3-ObservationInterpretation",
                "display": "High"
              }
            ]
          }
        ],
        "text": {
          "status": "generated",
          "div": "<div xmlns=\"http://www.w3.org/1999/xhtml\"><table class=\"hl7__eu__lab__report\"><tr><th>Test</th><th>22-May-2024</th><th>Reference&#xA0;Range</th><th>Unit</th></tr><tr><td>Protein [Mass/volume] in Urine by Test strip</td><td>237.6</td><td>0 - 150</td><td>H</td><td>mg/dL</td></tr></table></div>"
        },
        "status": "final",
        "subject": {
          "reference": "urn:uuid:fbead9da-da76-4a1c-9c77-97af68766e44",
          "display": "Θεμιστοκλής Λιναρδάκη"
        },
        "effectiveDateTime": "2024-05-22T06:16:00Z",
        "specimen": {
          "reference": "urn:uuid:447e5160-1d34-4cec-87d4-ad834bbebc69"
        }
      }
    },
    {
      "fullUrl": "urn:uuid:7a4cf648-5922-48ba-a816-8e29a64b07ec",
      "resource": {
        "resourceType": "Observation",
        "id": "7a4cf648-5922-48ba-a816-8e29a64b07ec",
        "meta": {
          "profile": [
            "http://hl7.eu/fhir/laboratory/StructureDefinition/Observation-resultslab-eu-lab"
          ]
        },
        "performer": [
          {
            "display": "The Central European Lab"
          }
        ],
        "category": [
          {
            "coding": [
              {
                "system": "http://terminology.hl7.org/CodeSystem/observation-category",
                "code": "laboratory"
              }
            ]
          }
        ],
        "code": {
          "coding": [
            {
              "code": "20454-5",
              "system": "http://loinc.org",
              "display": "Protein [Presence] in Urine by Test strip"
            }
          ],
          "text": "Protein [Presence] in Urine by Test strip"
        },
        "text": {
          "status": "generated",
          "div": "<div xmlns=\"http://www.w3.org/1999/xhtml\"><table class=\"hl7__eu__lab__report\"><tr><th>Test</th><th>22-May-2024</th><th>Reference&#xA0;Range</th><th>Unit</th></tr><tr><td>Protein [Presence] in Urine by Test strip</td></tr></table></div>"
        },
        "status": "final",
        "subject": {
          "reference": "urn:uuid:fbead9da-da76-4a1c-9c77-97af68766e44",
          "display": "Θεμιστοκλής Λιναρδάκη"
        },
        "effectiveDateTime": "2024-05-22T06:16:00Z",
        "specimen": {
          "reference": "urn:uuid:447e5160-1d34-4cec-87d4-ad834bbebc69"
        }
      }
    },
    {
      "fullUrl": "urn:uuid:73d4f1a4-fcb2-4099-819c-69216b28a42c",
      "resource": {
        "resourceType": "Observation",
        "id": "73d4f1a4-fcb2-4099-819c-69216b28a42c",
        "meta": {
          "profile": [
            "http://hl7.eu/fhir/laboratory/StructureDefinition/Observation-resultslab-eu-lab"
          ]
        },
        "performer": [
          {
            "display": "The Central European Lab"
          }
        ],
        "category": [
          {
            "coding": [
              {
                "system": "http://terminology.hl7.org/CodeSystem/observation-category",
                "code": "laboratory"
              }
            ]
          }
        ],
        "code": {
          "coding": [
            {
              "code": "5802-4",
              "system": "http://loinc.org",
              "display": "Nitrite [Presence] in Urine by Test strip"
            }
          ],
          "text": "Nitrite [Presence] in Urine by Test strip"
        },
        "text": {
          "status": "generated",
          "div": "<div xmlns=\"http://www.w3.org/1999/xhtml\"><table class=\"hl7__eu__lab__report\"><tr><th>Test</th><th>22-May-2024</th><th>Reference&#xA0;Range</th><th>Unit</th></tr><tr><td>Nitrite [Presence] in Urine by Test strip</td></tr></table></div>"
        },
        "status": "final",
        "subject": {
          "reference": "urn:uuid:fbead9da-da76-4a1c-9c77-97af68766e44",
          "display": "Θεμιστοκλής Λιναρδάκη"
        },
        "effectiveDateTime": "2024-05-22T06:16:00Z",
        "specimen": {
          "reference": "urn:uuid:447e5160-1d34-4cec-87d4-ad834bbebc69"
        }
      }
    },
    {
      "fullUrl": "urn:uuid:573b5346-d5f3-466c-a96c-2d189f39acbb",
      "resource": {
        "resourceType": "Observation",
        "id": "573b5346-d5f3-466c-a96c-2d189f39acbb",
        "meta": {
          "profile": [
            "http://hl7.eu/fhir/laboratory/StructureDefinition/Observation-resultslab-eu-lab"
          ]
        },
        "performer": [
          {
            "display": "The Central European Lab"
          }
        ],
        "category": [
          {
            "coding": [
              {
                "system": "http://terminology.hl7.org/CodeSystem/observation-category",
                "code": "laboratory"
              }
            ]
          }
        ],
        "code": {
          "coding": [
            {
              "code": "5794-3",
              "system": "http://loinc.org",
              "display": "Hemoglobin [Presence] in Urine by Test strip"
            }
          ],
          "text": "Hemoglobin [Presence] in Urine by Test strip"
        },
        "text": {
          "status": "generated",
          "div": "<div xmlns=\"http://www.w3.org/1999/xhtml\"><table class=\"hl7__eu__lab__report\"><tr><th>Test</th><th>22-May-2024</th><th>Reference&#xA0;Range</th><th>Unit</th></tr><tr><td>Hemoglobin [Presence] in Urine by Test strip</td></tr></table></div>"
        },
        "status": "final",
        "subject": {
          "reference": "urn:uuid:fbead9da-da76-4a1c-9c77-97af68766e44",
          "display": "Θεμιστοκλής Λιναρδάκη"
        },
        "effectiveDateTime": "2024-05-22T06:16:00Z",
        "specimen": {
          "reference": "urn:uuid:447e5160-1d34-4cec-87d4-ad834bbebc69"
        }
      }
    },
    {
      "fullUrl": "urn:uuid:973d1ae3-93c7-4b49-a3ee-fbf3f1afeae9",
      "resource": {
        "resourceType": "Observation",
        "id": "973d1ae3-93c7-4b49-a3ee-fbf3f1afeae9",
        "meta": {
          "profile": [
            "http://hl7.eu/fhir/laboratory/StructureDefinition/Observation-resultslab-eu-lab"
          ]
        },
        "performer": [
          {
            "display": "The Central European Lab"
          }
        ],
        "category": [
          {
            "coding": [
              {
                "system": "http://terminology.hl7.org/CodeSystem/observation-category",
                "code": "laboratory"
              }
            ]
          }
        ],
        "code": {
          "coding": [
            {
              "code": "5799-2",
              "system": "http://loinc.org",
              "display": "Leukocyte esterase [Presence] in Urine by Test strip"
            }
          ],
          "text": "Leukocyte esterase [Presence] in Urine by Test strip"
        },
        "text": {
          "status": "generated",
          "div": "<div xmlns=\"http://www.w3.org/1999/xhtml\"><table class=\"hl7__eu__lab__report\"><tr><th>Test</th><th>22-May-2024</th><th>Reference&#xA0;Range</th><th>Unit</th></tr><tr><td>Leukocyte esterase [Presence] in Urine by Test strip</td></tr></table></div>"
        },
        "status": "final",
        "subject": {
          "reference": "urn:uuid:fbead9da-da76-4a1c-9c77-97af68766e44",
          "display": "Θεμιστοκλής Λιναρδάκη"
        },
        "effectiveDateTime": "2024-05-22T06:16:00Z",
        "specimen": {
          "reference": "urn:uuid:447e5160-1d34-4cec-87d4-ad834bbebc69"
        }
      }
    },
    {
      "fullUrl": "urn:uuid:97eeb615-2f93-4b5d-921b-15fc28d03a7e",
      "resource": {
        "resourceType": "Observation",
        "id": "97eeb615-2f93-4b5d-921b-15fc28d03a7e",
        "meta": {
          "profile": [
            "http://hl7.eu/fhir/laboratory/StructureDefinition/Observation-resultslab-eu-lab"
          ]
        },
        "performer": [
          {
            "display": "The Central European Lab"
          }
        ],
        "category": [
          {
            "coding": [
              {
                "system": "http://terminology.hl7.org/CodeSystem/observation-category",
                "code": "laboratory"
              }
            ]
          }
        ],
        "code": {
          "coding": [
            {
              "code": "4548-4",
              "system": "http://loinc.org",
              "display": "Hemoglobin A1c/Hemoglobin.total in Blood"
            }
          ],
          "text": "Hemoglobin A1c/Hemoglobin.total in Blood"
        },
        "valueQuantity": {
          "system": "http://unitsofmeasure.org",
          "value": 2.9,
          "unit": "%",
          "code": "%"
        },
        "referenceRange": [
          {
            "low": {
              "value": 4.3,
              "code": "%",
              "system": "http://unitsofmeasure.org"
            }
          },
          {
            "high": {
              "value": 6.4,
              "code": "%",
              "system": "http://unitsofmeasure.org"
            }
          }
        ],
        "interpretation": [
          {
            "coding": [
              {
                "code": "L",
                "system": "http://terminology.hl7.org/CodeSystem/v3-ObservationInterpretation",
                "display": "Low"
              }
            ]
          }
        ],
        "text": {
          "status": "generated",
          "div": "<div xmlns=\"http://www.w3.org/1999/xhtml\"><table class=\"hl7__eu__lab__report\"><tr><th>Test</th><th>22-May-2024</th><th>Reference&#xA0;Range</th><th>Unit</th></tr><tr><td>Hemoglobin A1c/Hemoglobin.total in Blood</td><td>2.9</td><td>4.3 - 6.4</td><td>L</td><td>%</td></tr></table></div>"
        },
        "status": "final",
        "subject": {
          "reference": "urn:uuid:fbead9da-da76-4a1c-9c77-97af68766e44",
          "display": "Θεμιστοκλής Λιναρδάκη"
        },
        "effectiveDateTime": "2024-05-22T06:16:00Z",
        "specimen": {
          "reference": "urn:uuid:dfdd2816-8272-4e52-8f14-00981f9f6286"
        }
      }
    },
    {
      "fullUrl": "urn:uuid:54b4a949-2028-4bf0-8c09-ef74e5eb8cb3",
      "resource": {
        "resourceType": "Observation",
        "id": "54b4a949-2028-4bf0-8c09-ef74e5eb8cb3",
        "meta": {
          "profile": [
            "http://hl7.eu/fhir/laboratory/StructureDefinition/Observation-resultslab-eu-lab"
          ]
        },
        "performer": [
          {
            "display": "The Central European Lab"
          }
        ],
        "category": [
          {
            "coding": [
              {
                "system": "http://terminology.hl7.org/CodeSystem/observation-category",
                "code": "laboratory"
              }
            ]
          }
        ],
        "code": {
          "coding": [
            {
              "code": "2339-0",
              "system": "http://loinc.org",
              "display": "Glucose [Mass/volume] in Blood"
            }
          ],
          "text": "Glucose [Mass/volume] in Blood"
        },
        "valueQuantity": {
          "system": "http://unitsofmeasure.org",
          "value": 68.4,
          "unit": "mg/dL",
          "code": "mg/dL"
        },
        "referenceRange": [
          {
            "low": {
              "value": 70,
              "code": "mg/dL",
              "system": "http://unitsofmeasure.org"
            }
          },
          {
            "high": {
              "value": 140,
              "code": "mg/dL",
              "system": "http://unitsofmeasure.org"
            }
          }
        ],
        "interpretation": [
          {
            "coding": [
              {
                "code": "L",
                "system": "http://terminology.hl7.org/CodeSystem/v3-ObservationInterpretation",
                "display": "Low"
              }
            ]
          }
        ],
        "text": {
          "status": "generated",
          "div": "<div xmlns=\"http://www.w3.org/1999/xhtml\"><table class=\"hl7__eu__lab__report\"><tr><th>Test</th><th>22-May-2024</th><th>Reference&#xA0;Range</th><th>Unit</th></tr><tr><td>Glucose [Mass/volume] in Blood</td><td>68.4</td><td>70 - 140</td><td>L</td><td>mg/dL</td></tr></table></div>"
        },
        "status": "final",
        "subject": {
          "reference": "urn:uuid:fbead9da-da76-4a1c-9c77-97af68766e44",
          "display": "Θεμιστοκλής Λιναρδάκη"
        },
        "effectiveDateTime": "2024-05-22T06:16:00Z",
        "specimen": {
          "reference": "urn:uuid:dfdd2816-8272-4e52-8f14-00981f9f6286"
        }
      }
    },
    {
      "fullUrl": "urn:uuid:4a5fd3b2-b253-4736-bc0a-fb0fcd623392",
      "resource": {
        "resourceType": "Observation",
        "id": "4a5fd3b2-b253-4736-bc0a-fb0fcd623392",
        "meta": {
          "profile": [
            "http://hl7.eu/fhir/laboratory/StructureDefinition/Observation-resultslab-eu-lab"
          ]
        },
        "performer": [
          {
            "display": "The Central European Lab"
          }
        ],
        "category": [
          {
            "coding": [
              {
                "system": "http://terminology.hl7.org/CodeSystem/observation-category",
                "code": "laboratory"
              }
            ]
          }
        ],
        "code": {
          "coding": [
            {
              "code": "6299-2",
              "system": "http://loinc.org",
              "display": "Urea nitrogen [Mass/volume] in Blood"
            }
          ],
          "text": "Urea nitrogen [Mass/volume] in Blood"
        },
        "valueQuantity": {
          "system": "http://unitsofmeasure.org",
          "value": 14.3,
          "unit": "mg/dL",
          "code": "mg/dL"
        },
        "referenceRange": [
          {
            "low": {
              "value": 7,
              "code": "mg/dL",
              "system": "http://unitsofmeasure.org"
            }
          },
          {
            "high": {
              "value": 20,
              "code": "mg/dL",
              "system": "http://unitsofmeasure.org"
            }
          }
        ],
        "text": {
          "status": "generated",
          "div": "<div xmlns=\"http://www.w3.org/1999/xhtml\"><table class=\"hl7__eu__lab__report\"><tr><th>Test</th><th>22-May-2024</th><th>Reference&#xA0;Range</th><th>Unit</th></tr><tr><td>Urea nitrogen [Mass/volume] in Blood</td><td>14.3</td><td>7 - 20</td><td></td><td>mg/dL</td></tr></table></div>"
        },
        "status": "final",
        "subject": {
          "reference": "urn:uuid:fbead9da-da76-4a1c-9c77-97af68766e44",
          "display": "Θεμιστοκλής Λιναρδάκη"
        },
        "effectiveDateTime": "2024-05-22T06:16:00Z",
        "specimen": {
          "reference": "urn:uuid:dfdd2816-8272-4e52-8f14-00981f9f6286"
        }
      }
    },
    {
      "fullUrl": "urn:uuid:dbc83bb6-6017-47fc-9913-eb8d6b01c30d",
      "resource": {
        "resourceType": "Observation",
        "id": "dbc83bb6-6017-47fc-9913-eb8d6b01c30d",
        "meta": {
          "profile": [
            "http://hl7.eu/fhir/laboratory/StructureDefinition/Observation-resultslab-eu-lab"
          ]
        },
        "performer": [
          {
            "display": "The Central European Lab"
          }
        ],
        "category": [
          {
            "coding": [
              {
                "system": "http://terminology.hl7.org/CodeSystem/observation-category",
                "code": "laboratory"
              }
            ]
          }
        ],
        "code": {
          "coding": [
            {
              "code": "38483-4",
              "system": "http://loinc.org",
              "display": "Creatinine [Mass/volume] in Blood"
            }
          ],
          "text": "Creatinine [Mass/volume] in Blood"
        },
        "valueQuantity": {
          "system": "http://unitsofmeasure.org",
          "value": 5.6,
          "unit": "mg/dL",
          "code": "mg/dL"
        },
        "referenceRange": [
          {
            "low": {
              "value": 0.6,
              "code": "mg/dL",
              "system": "http://unitsofmeasure.org"
            }
          },
          {
            "high": {
              "value": 1.3,
              "code": "mg/dL",
              "system": "http://unitsofmeasure.org"
            }
          }
        ],
        "interpretation": [
          {
            "coding": [
              {
                "code": "H",
                "system": "http://terminology.hl7.org/CodeSystem/v3-ObservationInterpretation",
                "display": "High"
              }
            ]
          }
        ],
        "text": {
          "status": "generated",
          "div": "<div xmlns=\"http://www.w3.org/1999/xhtml\"><table class=\"hl7__eu__lab__report\"><tr><th>Test</th><th>22-May-2024</th><th>Reference&#xA0;Range</th><th>Unit</th></tr><tr><td>Creatinine [Mass/volume] in Blood</td><td>5.6</td><td>0.6 - 1.3</td><td>H</td><td>mg/dL</td></tr></table></div>"
        },
        "status": "final",
        "subject": {
          "reference": "urn:uuid:fbead9da-da76-4a1c-9c77-97af68766e44",
          "display": "Θεμιστοκλής Λιναρδάκη"
        },
        "effectiveDateTime": "2024-05-22T06:16:00Z",
        "specimen": {
          "reference": "urn:uuid:dfdd2816-8272-4e52-8f14-00981f9f6286"
        }
      }
    },
    {
      "fullUrl": "urn:uuid:03dfec3c-0814-40fe-adc7-0ec41c2e5481",
      "resource": {
        "resourceType": "Observation",
        "id": "03dfec3c-0814-40fe-adc7-0ec41c2e5481",
        "meta": {
          "profile": [
            "http://hl7.eu/fhir/laboratory/StructureDefinition/Observation-resultslab-eu-lab"
          ]
        },
        "performer": [
          {
            "display": "The Central European Lab"
          }
        ],
        "category": [
          {
            "coding": [
              {
                "system": "http://terminology.hl7.org/CodeSystem/observation-category",
                "code": "laboratory"
              }
            ]
          }
        ],
        "code": {
          "coding": [
            {
              "code": "49765-1",
              "system": "http://loinc.org",
              "display": "Calcium [Mass/volume] in Blood"
            }
          ],
          "text": "Calcium [Mass/volume] in Blood"
        },
        "valueQuantity": {
          "system": "http://unitsofmeasure.org",
          "value": 9.3,
          "unit": "mg/dL",
          "code": "mg/dL"
        },
        "referenceRange": [
          {
            "low": {
              "value": 8.5,
              "code": "mg/dL",
              "system": "http://unitsofmeasure.org"
            }
          },
          {
            "high": {
              "value": 10.5,
              "code": "mg/dL",
              "system": "http://unitsofmeasure.org"
            }
          }
        ],
        "text": {
          "status": "generated",
          "div": "<div xmlns=\"http://www.w3.org/1999/xhtml\"><table class=\"hl7__eu__lab__report\"><tr><th>Test</th><th>22-May-2024</th><th>Reference&#xA0;Range</th><th>Unit</th></tr><tr><td>Calcium [Mass/volume] in Blood</td><td>9.3</td><td>8.5 - 10.5</td><td></td><td>mg/dL</td></tr></table></div>"
        },
        "status": "final",
        "subject": {
          "reference": "urn:uuid:fbead9da-da76-4a1c-9c77-97af68766e44",
          "display": "Θεμιστοκλής Λιναρδάκη"
        },
        "effectiveDateTime": "2024-05-22T06:16:00Z",
        "specimen": {
          "reference": "urn:uuid:dfdd2816-8272-4e52-8f14-00981f9f6286"
        }
      }
    },
    {
      "fullUrl": "urn:uuid:48bd33f6-c2e7-4da6-8218-b96839a26264",
      "resource": {
        "resourceType": "Observation",
        "id": "48bd33f6-c2e7-4da6-8218-b96839a26264",
        "meta": {
          "profile": [
            "http://hl7.eu/fhir/laboratory/StructureDefinition/Observation-resultslab-eu-lab"
          ]
        },
        "performer": [
          {
            "display": "The Central European Lab"
          }
        ],
        "category": [
          {
            "coding": [
              {
                "system": "http://terminology.hl7.org/CodeSystem/observation-category",
                "code": "laboratory"
              }
            ]
          }
        ],
        "code": {
          "coding": [
            {
              "code": "2947-0",
              "system": "http://loinc.org",
              "display": "Sodium [Moles/volume] in Blood"
            }
          ],
          "text": "Sodium [Moles/volume] in Blood"
        },
        "valueQuantity": {
          "system": "http://unitsofmeasure.org",
          "value": 143.1,
          "unit": "mmol/L",
          "code": "mmol/L"
        },
        "referenceRange": [
          {
            "low": {
              "value": 135,
              "code": "mmol/L",
              "system": "http://unitsofmeasure.org"
            }
          },
          {
            "high": {
              "value": 145,
              "code": "mmol/L",
              "system": "http://unitsofmeasure.org"
            }
          }
        ],
        "text": {
          "status": "generated",
          "div": "<div xmlns=\"http://www.w3.org/1999/xhtml\"><table class=\"hl7__eu__lab__report\"><tr><th>Test</th><th>22-May-2024</th><th>Reference&#xA0;Range</th><th>Unit</th></tr><tr><td>Sodium [Moles/volume] in Blood</td><td>143.1</td><td>135 - 145</td><td></td><td>mmol/L</td></tr></table></div>"
        },
        "status": "final",
        "subject": {
          "reference": "urn:uuid:fbead9da-da76-4a1c-9c77-97af68766e44",
          "display": "Θεμιστοκλής Λιναρδάκη"
        },
        "effectiveDateTime": "2024-05-22T06:16:00Z",
        "specimen": {
          "reference": "urn:uuid:dfdd2816-8272-4e52-8f14-00981f9f6286"
        }
      }
    },
    {
      "fullUrl": "urn:uuid:ad495d53-21de-4247-96b3-ea9a09c7f804",
      "resource": {
        "resourceType": "Observation",
        "id": "ad495d53-21de-4247-96b3-ea9a09c7f804",
        "meta": {
          "profile": [
            "http://hl7.eu/fhir/laboratory/StructureDefinition/Observation-resultslab-eu-lab"
          ]
        },
        "performer": [
          {
            "display": "The Central European Lab"
          }
        ],
        "category": [
          {
            "coding": [
              {
                "system": "http://terminology.hl7.org/CodeSystem/observation-category",
                "code": "laboratory"
              }
            ]
          }
        ],
        "code": {
          "coding": [
            {
              "code": "6298-4",
              "system": "http://loinc.org",
              "display": "Potassium [Moles/volume] in Blood"
            }
          ],
          "text": "Potassium [Moles/volume] in Blood"
        },
        "valueQuantity": {
          "system": "http://unitsofmeasure.org",
          "value": 4.7,
          "unit": "mmol/L",
          "code": "mmol/L"
        },
        "referenceRange": [
          {
            "low": {
              "value": 3.5,
              "code": "mmol/L",
              "system": "http://unitsofmeasure.org"
            }
          },
          {
            "high": {
              "value": 5.3,
              "code": "mmol/L",
              "system": "http://unitsofmeasure.org"
            }
          }
        ],
        "text": {
          "status": "generated",
          "div": "<div xmlns=\"http://www.w3.org/1999/xhtml\"><table class=\"hl7__eu__lab__report\"><tr><th>Test</th><th>22-May-2024</th><th>Reference&#xA0;Range</th><th>Unit</th></tr><tr><td>Potassium [Moles/volume] in Blood</td><td>4.7</td><td>3.5 - 5.3</td><td></td><td>mmol/L</td></tr></table></div>"
        },
        "status": "final",
        "subject": {
          "reference": "urn:uuid:fbead9da-da76-4a1c-9c77-97af68766e44",
          "display": "Θεμιστοκλής Λιναρδάκη"
        },
        "effectiveDateTime": "2024-05-22T06:16:00Z",
        "specimen": {
          "reference": "urn:uuid:dfdd2816-8272-4e52-8f14-00981f9f6286"
        }
      }
    },
    {
      "fullUrl": "urn:uuid:9304b34b-fca2-4a6d-945c-1a9ba93a21d7",
      "resource": {
        "resourceType": "Observation",
        "id": "9304b34b-fca2-4a6d-945c-1a9ba93a21d7",
        "meta": {
          "profile": [
            "http://hl7.eu/fhir/laboratory/StructureDefinition/Observation-resultslab-eu-lab"
          ]
        },
        "performer": [
          {
            "display": "The Central European Lab"
          }
        ],
        "category": [
          {
            "coding": [
              {
                "system": "http://terminology.hl7.org/CodeSystem/observation-category",
                "code": "laboratory"
              }
            ]
          }
        ],
        "code": {
          "coding": [
            {
              "code": "2069-3",
              "system": "http://loinc.org",
              "display": "Chloride [Moles/volume] in Blood"
            }
          ],
          "text": "Chloride [Moles/volume] in Blood"
        },
        "valueQuantity": {
          "system": "http://unitsofmeasure.org",
          "value": 104.7,
          "unit": "mmol/L",
          "code": "mmol/L"
        },
        "referenceRange": [
          {
            "low": {
              "value": 98,
              "code": "mmol/L",
              "system": "http://unitsofmeasure.org"
            }
          },
          {
            "high": {
              "value": 110,
              "code": "mmol/L",
              "system": "http://unitsofmeasure.org"
            }
          }
        ],
        "text": {
          "status": "generated",
          "div": "<div xmlns=\"http://www.w3.org/1999/xhtml\"><table class=\"hl7__eu__lab__report\"><tr><th>Test</th><th>22-May-2024</th><th>Reference&#xA0;Range</th><th>Unit</th></tr><tr><td>Chloride [Moles/volume] in Blood</td><td>104.7</td><td>98 - 110</td><td></td><td>mmol/L</td></tr></table></div>"
        },
        "status": "final",
        "subject": {
          "reference": "urn:uuid:fbead9da-da76-4a1c-9c77-97af68766e44",
          "display": "Θεμιστοκλής Λιναρδάκη"
        },
        "effectiveDateTime": "2024-05-22T06:16:00Z",
        "specimen": {
          "reference": "urn:uuid:dfdd2816-8272-4e52-8f14-00981f9f6286"
        }
      }
    },
    {
      "fullUrl": "urn:uuid:de323b83-c5d7-4201-bb36-338b42d62c8f",
      "resource": {
        "resourceType": "Observation",
        "id": "de323b83-c5d7-4201-bb36-338b42d62c8f",
        "meta": {
          "profile": [
            "http://hl7.eu/fhir/laboratory/StructureDefinition/Observation-resultslab-eu-lab"
          ]
        },
        "performer": [
          {
            "display": "The Central European Lab"
          }
        ],
        "category": [
          {
            "coding": [
              {
                "system": "http://terminology.hl7.org/CodeSystem/observation-category",
                "code": "laboratory"
              }
            ]
          }
        ],
        "code": {
          "coding": [
            {
              "code": "20565-8",
              "system": "http://loinc.org",
              "display": "Carbon dioxide, total [Moles/volume] in Blood"
            }
          ],
          "text": "Carbon dioxide, total [Moles/volume] in Blood"
        },
        "valueQuantity": {
          "system": "http://unitsofmeasure.org",
          "value": 28.9,
          "unit": "mmol/L",
          "code": "mmol/L"
        },
        "referenceRange": [
          {
            "low": {
              "value": 22,
              "code": "mmol/L",
              "system": "http://unitsofmeasure.org"
            }
          },
          {
            "high": {
              "value": 29,
              "code": "mmol/L",
              "system": "http://unitsofmeasure.org"
            }
          }
        ],
        "text": {
          "status": "generated",
          "div": "<div xmlns=\"http://www.w3.org/1999/xhtml\"><table class=\"hl7__eu__lab__report\"><tr><th>Test</th><th>22-May-2024</th><th>Reference&#xA0;Range</th><th>Unit</th></tr><tr><td>Carbon dioxide, total [Moles/volume] in Blood</td><td>28.9</td><td>22 - 29</td><td></td><td>mmol/L</td></tr></table></div>"
        },
        "status": "final",
        "subject": {
          "reference": "urn:uuid:fbead9da-da76-4a1c-9c77-97af68766e44",
          "display": "Θεμιστοκλής Λιναρδάκη"
        },
        "effectiveDateTime": "2024-05-22T06:16:00Z",
        "specimen": {
          "reference": "urn:uuid:dfdd2816-8272-4e52-8f14-00981f9f6286"
        }
      }
    },
    {
      "fullUrl": "urn:uuid:b3131e6c-3761-4071-94cf-fb827c869465",
      "resource": {
        "resourceType": "Device",
        "id": "b3131e6c-3761-4071-94cf-fb827c869465",
        "deviceName": [
          {
            "name": "SYNDERAI Synthetic Generator",
            "type": "manufacturer-name"
          }
        ],
        "version": [
          {
            "value": "5.0"
          }
        ],
        "text": {
          "status": "generated",
          "div": "<div xmlns=\"http://www.w3.org/1999/xhtml\">SYNDERAI Synthetic Generator v5.0</div>"
        },
        "status": "active\"",
        "distinctIdentifier": "synderai-generator-50",
        "manufacturer": "SYNDERAI Project"
      }
    },
    {
      "fullUrl": "urn:uuid:1a473b20-229e-42f7-b184-4c8270488f1e",
      "resource": {
        "resourceType": "Provenance",
        "id": "1a473b20-229e-42f7-b184-4c8270488f1e",
        "target": [
          {
            "reference": "Patient/fbead9da-da76-4a1c-9c77-97af68766e44"
          },
          {
            "reference": "Bundle/1118f9ec-261a-4d02-b2be-3ae8c89bd9f1"
          },
          {
            "reference": "Composition/06b752d9-5b31-433f-896c-638e2708b851"
          },
          {
            "reference": "PractitionerRole/0e6ae931-d45c-4899-8bc4-1c1c7cdae2b2"
          },
          {
            "reference": "Practitioner/9bfa5dec-c98f-4e45-b752-a9660f8e65e1"
          },
          {
            "reference": "PractitionerRole/76a9871e-4544-479b-940d-0b92ac305f6b"
          },
          {
            "reference": "Organization/4129f15e-6ab8-4f2d-a137-873c93b6100c"
          }
        ],
        "activity": {
          "text": "Synthetic Example Data Generation"
        },
        "policy": [
          "https://synderai.net/synderai-synthetic-data-policy"
        ],
        "agent": [
          {
            "type": {
              "text": "author"
            },
            "who": {
              "reference": "Device/b3131e6c-3761-4071-94cf-fb827c869465"
            }
          }
        ],
        "reason": [
          {
            "text": "Interoperability Testing and Training (non-clinical use)"
          }
        ],
        "text": {
          "status": "generated",
          "div": "<div xmlns=\"http://www.w3.org/1999/xhtml\">Provenance for SYNDERAI Synthetic Example Data Resource</div>"
        },
        "recorded": "2024-05-22T08:16:00Z"
      }
    },
    {
      "fullUrl": "urn:uuid:0e6ae931-d45c-4899-8bc4-1c1c7cdae2b2",
      "resource": {
        "resourceType": "PractitionerRole",
        "id": "0e6ae931-d45c-4899-8bc4-1c1c7cdae2b2",
        "meta": {
          "profile": [
            "http://hl7.eu/fhir/base/StructureDefinition/practitionerRole-eu"
          ]
        },
        "text": {
          "status": "generated",
          "div": "<div xmlns=\"http://www.w3.org/1999/xhtml\">Laboratory Role Id: 0e6ae931-d45c-4899-8bc4-1c1c7cdae2b2</div>"
        },
        "practitioner": {
          "reference": "urn:uuid:9bfa5dec-c98f-4e45-b752-a9660f8e65e1"
        }
      }
    },
    {
      "fullUrl": "urn:uuid:9bfa5dec-c98f-4e45-b752-a9660f8e65e1",
      "resource": {
        "resourceType": "Practitioner",
        "id": "9bfa5dec-c98f-4e45-b752-a9660f8e65e1",
        "meta": {
          "profile": [
            "http://hl7.eu/fhir/base/StructureDefinition/practitioner-eu"
          ]
        },
        "identifier": [
          {
            "assigner": {
              "display": "HL7 Europe"
            },
            "system": "urn:oid:2.16.840.1.113883.2.51.999",
            "value": "3d6f8d3f-3a62-46e6-9969-6e515960f66d"
          }
        ],
        "name": [
          {
            "prefix": [
              "dr"
            ],
            "given": [
              "Ex"
            ],
            "family": "Ample"
          }
        ],
        "address": [
          {
            "line": [
              "Laboratoire Central Européenne",
              "Boulevard du Jardin Botanique 32"
            ],
            "postalCode": "1000",
            "city": "Brussels",
            "country": "Belgium"
          }
        ],
        "text": {
          "status": "generated",
          "div": "<div xmlns=\"http://www.w3.org/1999/xhtml\">Laboratory: Laboratoire Central Européenne, 1000 Brussels, Belgium</div>"
        }
      }
    }
  ],
  "type": "document",
  "timestamp": "2024-05-22T08:16:00Z"
}
