{
  "resourceType": "Bundle",
  "id": "641741f0-eaa2-47bc-830e-e4d7a6b21353",
  "meta": {
    "profile": [
      "http://hl7.eu/fhir/laboratory/StructureDefinition/Bundle-eu-lab"
    ]
  },
  "identifier": {
    "assigner": {
      "display": "HL7 Europe"
    },
    "system": "urn:oid:2.16.840.1.113883.2.51.999",
    "value": "a334bf60-fc6e-4b80-b460-576a306b4eef"
  },
  "entry": [
    {
      "fullUrl": "urn:uuid:5f68cff0-f61c-4202-979d-afd1d5e5b7dd",
      "resource": {
        "resourceType": "Composition",
        "id": "5f68cff0-f61c-4202-979d-afd1d5e5b7dd",
        "meta": {
          "profile": [
            "http://hl7.eu/fhir/laboratory/StructureDefinition/Composition-eu-lab"
          ]
        },
        "identifier": {
          "assigner": {
            "display": "HL7 Europe"
          },
          "system": "urn:oid:2.16.840.1.113883.2.51.999",
          "value": "b63e61c2-caf2-4448-a5c3-1ad07b9a9295"
        },
        "author": [
          {
            "reference": "urn:uuid:1ad41593-0a87-4ac9-b35e-0bbbb89418da"
          }
        ],
        "category": [
          {
            "coding": [
              {
                "code": "26436-6",
                "system": "http://loinc.org",
                "display": "Laboratory studies (set)"
              }
            ]
          }
        ],
        "type": {
          "coding": [
            {
              "code": "11502-2",
              "system": "http://loinc.org",
              "display": "Laboratory report"
            }
          ],
          "text": "Laboratory Report"
        },
        "section": [
          {
            "code": {
              "coding": [
                {
                  "code": "26436-6",
                  "system": "http://loinc.org",
                  "display": "Laboratory studies (set)"
                }
              ],
              "text": "Laboratory studies"
            },
            "section": [
              {
                "code": {
                  "coding": [
                    {
                      "code": "$18719-5",
                      "system": "http://loinc.org",
                      "display": "Chemistry studies (set)"
                    }
                  ],
                  "text": "Chemistry"
                },
                "entry": [
                  {
                    "reference": "urn:uuid:a5877ac0-09c1-4d84-85db-9e976facdb83"
                  },
                  {
                    "reference": "urn:uuid:cd0a0f28-78a5-4e95-a6f2-61c8be545d9b"
                  },
                  {
                    "reference": "urn:uuid:fc63f256-5207-4cc6-8917-192cb1b31e82"
                  },
                  {
                    "reference": "urn:uuid:9acf7900-7a6a-4a77-a475-8e6ca67dca7e"
                  },
                  {
                    "reference": "urn:uuid:807bc5db-8eeb-4dca-9b4f-ddb81577b272"
                  },
                  {
                    "reference": "urn:uuid:ec233d52-6b95-4b7b-83fa-8eb766050ead"
                  },
                  {
                    "reference": "urn:uuid:28796667-bff3-47db-9514-0a587560f9c7"
                  },
                  {
                    "reference": "urn:uuid:8723ae65-c90a-4a7e-a916-94449ed1d7a1"
                  },
                  {
                    "reference": "urn:uuid:dbca93a9-ed85-4ab0-945d-f9ae5a20f9c8"
                  },
                  {
                    "reference": "urn:uuid:ea9f3963-d2bf-42ea-9f8a-1b9b1b80060b"
                  },
                  {
                    "reference": "urn:uuid:9aea07bb-756b-4d23-85fa-5da55ced1051"
                  },
                  {
                    "reference": "urn:uuid:65128130-8452-41b5-95bf-dd891c2394c4"
                  },
                  {
                    "reference": "urn:uuid:8741f3f1-96d5-43a3-a96b-f7d328cafffa"
                  },
                  {
                    "reference": "urn:uuid:0e7914cf-35d3-4f91-a038-cb62808ca9cb"
                  },
                  {
                    "reference": "urn:uuid:97a821a4-0d64-42ec-ae19-c5407ab37c72"
                  },
                  {
                    "reference": "urn:uuid:5b577c7c-c874-44d3-b92d-a6e37b32e1fe"
                  },
                  {
                    "reference": "urn:uuid:64872b39-86b7-47b5-9015-2f2d32972f6b"
                  },
                  {
                    "reference": "urn:uuid:c7899707-8b60-402a-ac95-8200d754949c"
                  },
                  {
                    "reference": "urn:uuid:09c44d7d-86d5-4058-8b06-b15afa99aef0"
                  },
                  {
                    "reference": "urn:uuid:3e6b413c-14d0-4e2a-a6a6-498a57ac542b"
                  },
                  {
                    "reference": "urn:uuid:620e404e-bc7c-4d08-b807-500f75a1457a"
                  },
                  {
                    "reference": "urn:uuid:be4e63f4-cf59-4b0b-b082-d1fddb6b511e"
                  },
                  {
                    "reference": "urn:uuid:45df1e36-3a4c-4ef2-bed9-c8186abe2ec5"
                  },
                  {
                    "reference": "urn:uuid:bc6ea6f6-c2e4-433e-bf22-153de42725c3"
                  },
                  {
                    "reference": "urn:uuid:2676428d-3e57-4de8-8a42-d249d92b8e9d"
                  },
                  {
                    "reference": "urn:uuid:225629df-206a-42ea-b1de-58594f6a4ed8"
                  },
                  {
                    "reference": "urn:uuid:597e0311-f745-4219-88c8-a7937ee8c066"
                  },
                  {
                    "reference": "urn:uuid:1b5caec0-0531-43b9-b20a-635c07e7d9a9"
                  }
                ],
                "text": {
                  "status": "generated",
                  "div": "<div xmlns=\"http://www.w3.org/1999/xhtml\"><h3>Chemistry</h3><table class=\"hl7__eu__lab__report\"><thead><tr><th>Test</th><th>12-APR-2024</th><th>Reference&#xA0;Range</th><th>Unit</th></tr></thead><tbody><tr><td>Hemoglobin A1c/Hemoglobin.total in Blood</td><td><strong>6.1 H</strong></td><td>4.8 - 5.7</td><td>%</td></tr><tr><td>Cholesterol [Mass/volume] in Serum or Plasma</td><td><strong>210.5 H</strong></td><td>125 - 200</td><td>mg/dL</td></tr><tr><td>Triglyceride [Mass/volume] in Serum or Plasma</td><td><strong>174.1 H</strong></td><td>35 - 150</td><td>mg/dL</td></tr><tr><td>Cholesterol in LDL [Mass/volume] in Serum or Plasma by Direct assay</td><td>101.3</td><td>0 - 130</td><td>mg/dL</td></tr><tr><td>Cholesterol in HDL [Mass/volume] in Serum or Plasma</td><td>45.8</td><td>40 - 60</td><td>mg/dL</td></tr><tr><td>Glucose [Mass/volume] in Blood</td><td>94.9</td><td>70 - 140</td><td>mg/dL</td></tr><tr><td>Urea nitrogen [Mass/volume] in Blood</td><td>17.3</td><td>7 - 25</td><td>mg/dL</td></tr><tr><td>Creatinine [Mass/volume] in Blood</td><td><strong>3.2 H</strong></td><td>0.6 - 1.3</td><td>mg/dL</td></tr><tr><td>Calcium [Mass/volume] in Blood</td><td>8.8</td><td>8.5 - 10.5</td><td>mg/dL</td></tr><tr><td>Sodium [Moles/volume] in Blood</td><td>142.0</td><td>135 - 145</td><td>mmol/L</td></tr><tr><td>Potassium [Moles/volume] in Blood</td><td>4.7</td><td>3.5 - 5.1</td><td>mmol/L</td></tr><tr><td>Chloride [Moles/volume] in Blood</td><td>101.7</td><td>98 - 108</td><td>mmol/L</td></tr><tr><td>Carbon dioxide, total [Moles/volume] in Blood</td><td>26.6</td><td>22 - 29</td><td>mmol/L</td></tr><tr><td>Protein [Mass/volume] in Serum or Plasma</td><td><strong>6.0 L</strong></td><td>6.3 - 8.3</td><td>g/dL</td></tr><tr><td>Albumin [Mass/volume] in Serum or Plasma</td><td>4.6</td><td>3.5 - 5.5</td><td>g/dL</td></tr><tr><td>Globulin [Mass/volume] in Serum by calculation</td><td>3.4</td><td>2 - 3.9</td><td>g/L</td></tr><tr><td>Bilirubin.total [Mass/volume] in Serum or Plasma</td><td>0.6</td><td>0.3 - 1.2</td><td>mg/dL</td></tr><tr><td>Alkaline phosphatase [Enzymatic activity/volume] in Serum or Plasma</td><td>76.9</td><td>32 - 104</td><td>U/L</td></tr><tr><td>Alanine aminotransferase [Enzymatic activity/volume] in Serum or Plasma</td><td>29.4</td><td>7 - 55</td><td>U/L</td></tr><tr><td>Aspartate aminotransferase [Enzymatic activity/volume] in Serum or Plasma</td><td>25.7</td><td>10 - 40</td><td>U/L</td></tr><tr><td>Glucose [Mass/volume] in Blood</td><td>94.9</td><td>70 - 140</td><td>mg/dL</td></tr><tr><td>Urea nitrogen [Mass/volume] in Blood</td><td>17.3</td><td>7 - 25</td><td>mg/dL</td></tr><tr><td>Creatinine [Mass/volume] in Blood</td><td>1.0</td><td>0.6 - 1.3</td><td>mg/dL</td></tr><tr><td>Calcium [Mass/volume] in Blood</td><td>8.8</td><td>8.5 - 10.5</td><td>mg/dL</td></tr><tr><td>Sodium [Moles/volume] in Blood</td><td>142.0</td><td>135 - 145</td><td>mmol/L</td></tr><tr><td>Potassium [Moles/volume] in Blood</td><td>4.7</td><td>3.5 - 5.1</td><td>mmol/L</td></tr><tr><td>Chloride [Moles/volume] in Blood</td><td>101.7</td><td>98 - 108</td><td>mmol/L</td></tr><tr><td>Carbon dioxide, total [Moles/volume] in Blood</td><td>26.6</td><td>22 - 29</td><td>mmol/L</td></tr></tbody></table></div>"
                },
                "title": "Chemistry"
              }
            ],
            "title": "Laboratory Report"
          },
          {
            "text": {
              "status": "generated",
              "div": "<div xmlns=\"http://www.w3.org/1999/xhtml\"><h3>Annotation</h3><table class=\"hl7__eu__lab__report\"><tr><th>Conclusion and Recommendations based on this report and previous findings known to us</th></tr><tr><td>The patient shows mildly elevated HbA1c, cholesterol, and triglycerides, suggesting impaired glucose tolerance and dyslipidemia. One creatinine value is markedly elevated (3.2 mg/dL), but another is normal (1.0 mg/dL); this discrepancy may indicate a lab error or acute kidney issue-clinical correlation is advised. Total protein is slightly low. Liver enzymes and electrolytes are within normal limits. Recommend further evaluation of renal function and metabolic risk factors.</td></tr></table></div>"
            },
            "code": {
              "coding": [
                {
                  "system": "http://loinc.org",
                  "code": "48767-8",
                  "display": "Annotation comment"
                }
              ]
            },
            "title": "Annotation comment"
          }
        ],
        "status": "final",
        "subject": {
          "reference": "urn:uuid:dcba9565-6c75-4640-a524-dbe1ba30a75a",
          "display": "Bethany Begum"
        },
        "date": "2024-04-12T13:40:40Z",
        "title": "Laboratory Report",
        "confidentiality": "N"
      }
    },
    {
      "fullUrl": "urn:uuid:3e0dbfc4-bce8-469c-9c60-e284aa568e74",
      "resource": {
        "resourceType": "DiagnosticReport",
        "id": "3e0dbfc4-bce8-469c-9c60-e284aa568e74",
        "meta": {
          "profile": [
            "http://hl7.eu/fhir/laboratory/StructureDefinition/DiagnosticReport-eu-lab"
          ]
        },
        "identifier": [
          {
            "assigner": {
              "display": "HL7 Europe"
            },
            "system": "urn:oid:2.16.840.1.113883.2.51.999",
            "value": "09fa42fb-f678-4e57-a20c-9c31726387a2"
          }
        ],
        "extension": [
          {
            "url": "http://hl7.org/fhir/5.0/StructureDefinition/extension-DiagnosticReport.composition",
            "valueReference": {
              "reference": "urn:uuid:b63e61c2-caf2-4448-a5c3-1ad07b9a9295"
            }
          }
        ],
        "category": [
          {
            "coding": [
              {
                "code": "26436-6",
                "system": "http://loinc.org",
                "display": "Laboratory studies (set)"
              }
            ]
          }
        ],
        "specimen": [
          {
            "reference": "urn:uuid:400824b5-3397-4221-aed0-d73394458a8b"
          },
          {
            "reference": "urn:uuid:ae476f80-a271-4982-a84c-8b016f1d8b07"
          },
          {
            "reference": "urn:uuid:21872f54-0e20-46fb-9c07-c8edabd184b5"
          }
        ],
        "result": [
          {
            "reference": "urn:uuid:a5877ac0-09c1-4d84-85db-9e976facdb83"
          },
          {
            "reference": "urn:uuid:cd0a0f28-78a5-4e95-a6f2-61c8be545d9b"
          },
          {
            "reference": "urn:uuid:fc63f256-5207-4cc6-8917-192cb1b31e82"
          },
          {
            "reference": "urn:uuid:9acf7900-7a6a-4a77-a475-8e6ca67dca7e"
          },
          {
            "reference": "urn:uuid:807bc5db-8eeb-4dca-9b4f-ddb81577b272"
          },
          {
            "reference": "urn:uuid:ec233d52-6b95-4b7b-83fa-8eb766050ead"
          },
          {
            "reference": "urn:uuid:28796667-bff3-47db-9514-0a587560f9c7"
          },
          {
            "reference": "urn:uuid:8723ae65-c90a-4a7e-a916-94449ed1d7a1"
          },
          {
            "reference": "urn:uuid:dbca93a9-ed85-4ab0-945d-f9ae5a20f9c8"
          },
          {
            "reference": "urn:uuid:ea9f3963-d2bf-42ea-9f8a-1b9b1b80060b"
          },
          {
            "reference": "urn:uuid:9aea07bb-756b-4d23-85fa-5da55ced1051"
          },
          {
            "reference": "urn:uuid:65128130-8452-41b5-95bf-dd891c2394c4"
          },
          {
            "reference": "urn:uuid:8741f3f1-96d5-43a3-a96b-f7d328cafffa"
          },
          {
            "reference": "urn:uuid:0e7914cf-35d3-4f91-a038-cb62808ca9cb"
          },
          {
            "reference": "urn:uuid:97a821a4-0d64-42ec-ae19-c5407ab37c72"
          },
          {
            "reference": "urn:uuid:5b577c7c-c874-44d3-b92d-a6e37b32e1fe"
          },
          {
            "reference": "urn:uuid:64872b39-86b7-47b5-9015-2f2d32972f6b"
          },
          {
            "reference": "urn:uuid:c7899707-8b60-402a-ac95-8200d754949c"
          },
          {
            "reference": "urn:uuid:09c44d7d-86d5-4058-8b06-b15afa99aef0"
          },
          {
            "reference": "urn:uuid:3e6b413c-14d0-4e2a-a6a6-498a57ac542b"
          },
          {
            "reference": "urn:uuid:620e404e-bc7c-4d08-b807-500f75a1457a"
          },
          {
            "reference": "urn:uuid:be4e63f4-cf59-4b0b-b082-d1fddb6b511e"
          },
          {
            "reference": "urn:uuid:45df1e36-3a4c-4ef2-bed9-c8186abe2ec5"
          },
          {
            "reference": "urn:uuid:bc6ea6f6-c2e4-433e-bf22-153de42725c3"
          },
          {
            "reference": "urn:uuid:2676428d-3e57-4de8-8a42-d249d92b8e9d"
          },
          {
            "reference": "urn:uuid:225629df-206a-42ea-b1de-58594f6a4ed8"
          },
          {
            "reference": "urn:uuid:597e0311-f745-4219-88c8-a7937ee8c066"
          },
          {
            "reference": "urn:uuid:1b5caec0-0531-43b9-b20a-635c07e7d9a9"
          }
        ],
        "status": "registered",
        "code": {
          "coding": [
            {
              "code": "11502-2",
              "system": "http://loinc.org",
              "display": "Laboratory report"
            }
          ]
        },
        "subject": {
          "reference": "urn:uuid:dcba9565-6c75-4640-a524-dbe1ba30a75a",
          "display": "Bethany Begum"
        }
      }
    },
    {
      "fullUrl": "urn:uuid:dcba9565-6c75-4640-a524-dbe1ba30a75a",
      "resource": {
        "resourceType": "Patient",
        "id": "dcba9565-6c75-4640-a524-dbe1ba30a75a",
        "meta": {
          "security": [
            {
              "system": "http://terminology.hl7.org/CodeSystem/v3-ActReason",
              "code": "HTEST"
            },
            {
              "system": "http://terminology.hl7.org/CodeSystem/v3-ActReason",
              "code": "TRAIN"
            }
          ],
          "tag": [
            {
              "system": "https://synderai.net/fhir/CodeSystem/tags",
              "code": "synthetic",
              "display": "SYNDERAI Synthetic data"
            }
          ],
          "profile": [
            "http://hl7.eu/fhir/base/StructureDefinition/patient-eu-core"
          ]
        },
        "identifier": [
          {
            "type": {
              "coding": [
                {
                  "code": "PT",
                  "system": "http://terminology.hl7.org/CodeSystem/v2-0203"
                }
              ]
            },
            "system": "http://ec.europa.eu/identifier/eci",
            "value": "2365-936148-1"
          },
          {
            "type": {
              "coding": [
                {
                  "code": "MR",
                  "system": "http://terminology.hl7.org/CodeSystem/v2-0203"
                }
              ]
            },
            "system": "http://local.setting.eu/identifier",
            "value": "853b213b-8bf3-d90f-2018-79d547156fd7"
          }
        ],
        "name": [
          {
            "family": "Begum"
          },
          {
            "given": [
              "Bethany"
            ]
          },
          {
            "text": "Bethany Begum"
          }
        ],
        "address": [
          {
            "line": [
              "Studio 22e",
              "Joe unions"
            ],
            "use": "home",
            "type": "physical",
            "postalCode": "M1",
            "city": "Manchester",
            "country": "United Kingdom"
          }
        ],
        "telecom": [
          {
            "system": "phone",
            "value": "(029) 2018200"
          }
        ],
        "extension": [
          {
            "url": "http://hl7.org/fhir/StructureDefinition/patient-nationality",
            "valueCodeableConcept": {
              "coding": [
                {
                  "code": "GB",
                  "system": "http://hl7.org/fhir/ValueSet/country"
                }
              ]
            }
          }
        ],
        "text": {
          "status": "generated",
          "div": "<div xmlns=\"http://www.w3.org/1999/xhtml\"><table class=\"hl7__ips\"><tr><td>Bethany Begum</td><td>female</td><td>19-Jan-1976</td></tr></table></div>"
        },
        "gender": "female",
        "birthDate": "1976-01-19"
      }
    },
    {
      "fullUrl": "urn:uuid:0b9f5fd2-3ccc-4db3-8684-e4edf53c545b",
      "resource": {
        "resourceType": "ServiceRequest",
        "id": "0b9f5fd2-3ccc-4db3-8684-e4edf53c545b",
        "meta": {
          "profile": [
            "http://hl7.eu/fhir/laboratory/StructureDefinition/ServiceRequest-eu-lab"
          ]
        },
        "identifier": [
          {
            "system": "http://example.org",
            "value": "1543203d-c5a3-461c-9147-e9a1d6775450"
          }
        ],
        "specimen": [
          {
            "reference": "urn:uuid:400824b5-3397-4221-aed0-d73394458a8b"
          },
          {
            "reference": "urn:uuid:ae476f80-a271-4982-a84c-8b016f1d8b07"
          },
          {
            "reference": "urn:uuid:21872f54-0e20-46fb-9c07-c8edabd184b5"
          }
        ],
        "reasonCode": [
          {
            "coding": [
              {
                "code": "55822004",
                "system": "http://snomed.info/sct",
                "display": "Hyperlipidemia"
              }
            ]
          },
          {
            "coding": [
              {
                "code": "15777000",
                "system": "http://snomed.info/sct",
                "display": "Prediabetes"
              }
            ]
          },
          {
            "coding": [
              {
                "code": "40055000",
                "system": "http://snomed.info/sct",
                "display": "Chronic sinusitis"
              }
            ]
          }
        ],
        "status": "active",
        "intent": "order",
        "code": {
          "coding": [
            {
              "code": "108252007",
              "system": "http://snomed.info/sct",
              "display": "Laboratory procedure"
            }
          ]
        },
        "subject": {
          "reference": "urn:uuid:dcba9565-6c75-4640-a524-dbe1ba30a75a",
          "display": "Bethany Begum"
        },
        "requester": {
          "reference": "urn:uuid:0e0a62b8-58d5-4168-8cbe-7a6eeec8db3f"
        }
      }
    },
    {
      "fullUrl": "urn:uuid:0e0a62b8-58d5-4168-8cbe-7a6eeec8db3f",
      "resource": {
        "resourceType": "PractitionerRole",
        "id": "0e0a62b8-58d5-4168-8cbe-7a6eeec8db3f",
        "meta": {
          "profile": [
            "http://hl7.eu/fhir/base/StructureDefinition/practitionerRole-eu"
          ]
        },
        "text": {
          "status": "generated",
          "div": "<div xmlns=\"http://www.w3.org/1999/xhtml\">Provider Role Id: 0e0a62b8-58d5-4168-8cbe-7a6eeec8db3f</div>"
        },
        "organization": {
          "reference": "urn:uuid:7e3f39fe-b4c7-49ae-8552-2a076d303c67"
        }
      }
    },
    {
      "fullUrl": "urn:uuid:7e3f39fe-b4c7-49ae-8552-2a076d303c67",
      "resource": {
        "resourceType": "Organization",
        "id": "7e3f39fe-b4c7-49ae-8552-2a076d303c67",
        "meta": {
          "profile": [
            "http://hl7.eu/fhir/base/StructureDefinition/organization-eu"
          ]
        },
        "identifier": [
          {
            "assigner": {
              "display": "HL7 Europe"
            },
            "system": "urn:oid:2.16.840.1.113883.2.51.999",
            "value": "1f5b92d1-f18d-4956-8985-7b2ebd23a63d"
          }
        ],
        "address": [
          {
            "line": [
              "City Road 204"
            ],
            "city": "Manchester",
            "postalCode": "M3 3",
            "country": "United Kingdom"
          }
        ],
        "text": {
          "status": "generated",
          "div": "<div xmlns=\"http://www.w3.org/1999/xhtml\">Provider Organization: Cornbrook Medical Practice</div>"
        },
        "name": "Cornbrook Medical Practice"
      }
    },
    {
      "fullUrl": "urn:uuid:400824b5-3397-4221-aed0-d73394458a8b",
      "resource": {
        "resourceType": "Specimen",
        "id": "400824b5-3397-4221-aed0-d73394458a8b",
        "meta": {
          "profile": [
            "http://hl7.eu/fhir/laboratory/StructureDefinition/Specimen-eu-lab"
          ]
        },
        "collection": {
          "collectedDateTime": "2024-04-12"
        },
        "text": {
          "status": "generated",
          "div": "<div xmlns=\"http://www.w3.org/1999/xhtml\"><table class=\"hl7__eu__lab__report\"><tr><th>Specimen</th><th>Collection Date</th></tr><tr><td>Whole blood specimen (specimen)</td><td><span class=\"nb\">12-Apr-2024</span></td></tr></table></div>"
        },
        "type": {
          "coding": [
            {
              "code": "258580003",
              "system": "http://snomed.info/sct",
              "display": "Whole blood specimen (specimen)"
            }
          ]
        }
      }
    },
    {
      "fullUrl": "urn:uuid:ae476f80-a271-4982-a84c-8b016f1d8b07",
      "resource": {
        "resourceType": "Specimen",
        "id": "ae476f80-a271-4982-a84c-8b016f1d8b07",
        "meta": {
          "profile": [
            "http://hl7.eu/fhir/laboratory/StructureDefinition/Specimen-eu-lab"
          ]
        },
        "collection": {
          "collectedDateTime": "2024-04-12"
        },
        "text": {
          "status": "generated",
          "div": "<div xmlns=\"http://www.w3.org/1999/xhtml\"><table class=\"hl7__eu__lab__report\"><tr><th>Specimen</th><th>Collection Date</th></tr><tr><td>Acellular blood (serum or plasma) specimen</td><td><span class=\"nb\">12-Apr-2024</span></td></tr></table></div>"
        },
        "type": {
          "coding": [
            {
              "code": "122592007",
              "system": "http://snomed.info/sct",
              "display": "Acellular blood (serum or plasma) specimen"
            }
          ]
        }
      }
    },
    {
      "fullUrl": "urn:uuid:21872f54-0e20-46fb-9c07-c8edabd184b5",
      "resource": {
        "resourceType": "Specimen",
        "id": "21872f54-0e20-46fb-9c07-c8edabd184b5",
        "meta": {
          "profile": [
            "http://hl7.eu/fhir/laboratory/StructureDefinition/Specimen-eu-lab"
          ]
        },
        "collection": {
          "collectedDateTime": "2024-04-12"
        },
        "text": {
          "status": "generated",
          "div": "<div xmlns=\"http://www.w3.org/1999/xhtml\"><table class=\"hl7__eu__lab__report\"><tr><th>Specimen</th><th>Collection Date</th></tr><tr><td>Serum specimen</td><td><span class=\"nb\">12-Apr-2024</span></td></tr></table></div>"
        },
        "type": {
          "coding": [
            {
              "code": "119364003",
              "system": "http://snomed.info/sct",
              "display": "Serum specimen"
            }
          ]
        }
      }
    },
    {
      "fullUrl": "urn:uuid:a5877ac0-09c1-4d84-85db-9e976facdb83",
      "resource": {
        "resourceType": "Observation",
        "id": "a5877ac0-09c1-4d84-85db-9e976facdb83",
        "meta": {
          "profile": [
            "http://hl7.eu/fhir/laboratory/StructureDefinition/Observation-resultslab-eu-lab"
          ]
        },
        "performer": [
          {
            "display": "The Central European Lab"
          }
        ],
        "category": [
          {
            "coding": [
              {
                "system": "http://terminology.hl7.org/CodeSystem/observation-category",
                "code": "laboratory"
              }
            ]
          }
        ],
        "code": {
          "coding": [
            {
              "code": "4548-4",
              "system": "http://loinc.org",
              "display": "Hemoglobin A1c/Hemoglobin.total in Blood"
            }
          ],
          "text": "Hemoglobin A1c/Hemoglobin.total in Blood"
        },
        "valueQuantity": {
          "system": "http://unitsofmeasure.org",
          "value": 6.1,
          "unit": "%",
          "code": "%"
        },
        "referenceRange": [
          {
            "low": {
              "value": 4.8,
              "code": "%",
              "system": "http://unitsofmeasure.org"
            }
          },
          {
            "high": {
              "value": 5.7,
              "code": "%",
              "system": "http://unitsofmeasure.org"
            }
          }
        ],
        "interpretation": [
          {
            "coding": [
              {
                "code": "H",
                "system": "http://terminology.hl7.org/CodeSystem/v3-ObservationInterpretation",
                "display": "High"
              }
            ]
          }
        ],
        "text": {
          "status": "generated",
          "div": "<div xmlns=\"http://www.w3.org/1999/xhtml\"><table class=\"hl7__eu__lab__report\"><tr><th>Test</th><th>12-Apr-2024</th><th>Reference&#xA0;Range</th><th>Unit</th></tr><tr><td>Hemoglobin A1c/Hemoglobin.total in Blood</td><td>6.1</td><td>4.8 - 5.7</td><td>H</td><td>%</td></tr></table></div>"
        },
        "status": "final",
        "subject": {
          "reference": "urn:uuid:dcba9565-6c75-4640-a524-dbe1ba30a75a",
          "display": "Bethany Begum"
        },
        "effectiveDateTime": "2024-04-12T11:40:40Z",
        "specimen": {
          "reference": "urn:uuid:400824b5-3397-4221-aed0-d73394458a8b"
        }
      }
    },
    {
      "fullUrl": "urn:uuid:cd0a0f28-78a5-4e95-a6f2-61c8be545d9b",
      "resource": {
        "resourceType": "Observation",
        "id": "cd0a0f28-78a5-4e95-a6f2-61c8be545d9b",
        "meta": {
          "profile": [
            "http://hl7.eu/fhir/laboratory/StructureDefinition/Observation-resultslab-eu-lab"
          ]
        },
        "performer": [
          {
            "display": "The Central European Lab"
          }
        ],
        "category": [
          {
            "coding": [
              {
                "system": "http://terminology.hl7.org/CodeSystem/observation-category",
                "code": "laboratory"
              }
            ]
          }
        ],
        "code": {
          "coding": [
            {
              "code": "2093-3",
              "system": "http://loinc.org",
              "display": "Cholesterol [Mass/volume] in Serum or Plasma"
            }
          ],
          "text": "Cholesterol [Mass/volume] in Serum or Plasma"
        },
        "valueQuantity": {
          "system": "http://unitsofmeasure.org",
          "value": 210.5,
          "unit": "mg/dL",
          "code": "mg/dL"
        },
        "referenceRange": [
          {
            "low": {
              "value": 125,
              "code": "mg/dL",
              "system": "http://unitsofmeasure.org"
            }
          },
          {
            "high": {
              "value": 200,
              "code": "mg/dL",
              "system": "http://unitsofmeasure.org"
            }
          }
        ],
        "interpretation": [
          {
            "coding": [
              {
                "code": "H",
                "system": "http://terminology.hl7.org/CodeSystem/v3-ObservationInterpretation",
                "display": "High"
              }
            ]
          }
        ],
        "text": {
          "status": "generated",
          "div": "<div xmlns=\"http://www.w3.org/1999/xhtml\"><table class=\"hl7__eu__lab__report\"><tr><th>Test</th><th>12-Apr-2024</th><th>Reference&#xA0;Range</th><th>Unit</th></tr><tr><td>Cholesterol [Mass/volume] in Serum or Plasma</td><td>210.5</td><td>125 - 200</td><td>H</td><td>mg/dL</td></tr></table></div>"
        },
        "status": "final",
        "subject": {
          "reference": "urn:uuid:dcba9565-6c75-4640-a524-dbe1ba30a75a",
          "display": "Bethany Begum"
        },
        "effectiveDateTime": "2024-04-12T11:40:40Z",
        "specimen": {
          "reference": "urn:uuid:ae476f80-a271-4982-a84c-8b016f1d8b07"
        }
      }
    },
    {
      "fullUrl": "urn:uuid:fc63f256-5207-4cc6-8917-192cb1b31e82",
      "resource": {
        "resourceType": "Observation",
        "id": "fc63f256-5207-4cc6-8917-192cb1b31e82",
        "meta": {
          "profile": [
            "http://hl7.eu/fhir/laboratory/StructureDefinition/Observation-resultslab-eu-lab"
          ]
        },
        "performer": [
          {
            "display": "The Central European Lab"
          }
        ],
        "category": [
          {
            "coding": [
              {
                "system": "http://terminology.hl7.org/CodeSystem/observation-category",
                "code": "laboratory"
              }
            ]
          }
        ],
        "code": {
          "coding": [
            {
              "code": "2571-8",
              "system": "http://loinc.org",
              "display": "Triglyceride [Mass/volume] in Serum or Plasma"
            }
          ],
          "text": "Triglyceride [Mass/volume] in Serum or Plasma"
        },
        "valueQuantity": {
          "system": "http://unitsofmeasure.org",
          "value": 174.1,
          "unit": "mg/dL",
          "code": "mg/dL"
        },
        "referenceRange": [
          {
            "low": {
              "value": 35,
              "code": "mg/dL",
              "system": "http://unitsofmeasure.org"
            }
          },
          {
            "high": {
              "value": 150,
              "code": "mg/dL",
              "system": "http://unitsofmeasure.org"
            }
          }
        ],
        "interpretation": [
          {
            "coding": [
              {
                "code": "H",
                "system": "http://terminology.hl7.org/CodeSystem/v3-ObservationInterpretation",
                "display": "High"
              }
            ]
          }
        ],
        "text": {
          "status": "generated",
          "div": "<div xmlns=\"http://www.w3.org/1999/xhtml\"><table class=\"hl7__eu__lab__report\"><tr><th>Test</th><th>12-Apr-2024</th><th>Reference&#xA0;Range</th><th>Unit</th></tr><tr><td>Triglyceride [Mass/volume] in Serum or Plasma</td><td>174.1</td><td>35 - 150</td><td>H</td><td>mg/dL</td></tr></table></div>"
        },
        "status": "final",
        "subject": {
          "reference": "urn:uuid:dcba9565-6c75-4640-a524-dbe1ba30a75a",
          "display": "Bethany Begum"
        },
        "effectiveDateTime": "2024-04-12T11:40:40Z",
        "specimen": {
          "reference": "urn:uuid:ae476f80-a271-4982-a84c-8b016f1d8b07"
        }
      }
    },
    {
      "fullUrl": "urn:uuid:9acf7900-7a6a-4a77-a475-8e6ca67dca7e",
      "resource": {
        "resourceType": "Observation",
        "id": "9acf7900-7a6a-4a77-a475-8e6ca67dca7e",
        "meta": {
          "profile": [
            "http://hl7.eu/fhir/laboratory/StructureDefinition/Observation-resultslab-eu-lab"
          ]
        },
        "performer": [
          {
            "display": "The Central European Lab"
          }
        ],
        "category": [
          {
            "coding": [
              {
                "system": "http://terminology.hl7.org/CodeSystem/observation-category",
                "code": "laboratory"
              }
            ]
          }
        ],
        "code": {
          "coding": [
            {
              "code": "18262-6",
              "system": "http://loinc.org",
              "display": "Cholesterol in LDL [Mass/volume] in Serum or Plasma by Direct assay"
            }
          ],
          "text": "Cholesterol in LDL [Mass/volume] in Serum or Plasma by Direct assay"
        },
        "valueQuantity": {
          "system": "http://unitsofmeasure.org",
          "value": 101.3,
          "unit": "mg/dL",
          "code": "mg/dL"
        },
        "referenceRange": [
          {
            "low": {
              "value": 0,
              "code": "mg/dL",
              "system": "http://unitsofmeasure.org"
            }
          },
          {
            "high": {
              "value": 130,
              "code": "mg/dL",
              "system": "http://unitsofmeasure.org"
            }
          }
        ],
        "text": {
          "status": "generated",
          "div": "<div xmlns=\"http://www.w3.org/1999/xhtml\"><table class=\"hl7__eu__lab__report\"><tr><th>Test</th><th>12-Apr-2024</th><th>Reference&#xA0;Range</th><th>Unit</th></tr><tr><td>Cholesterol in LDL [Mass/volume] in Serum or Plasma by Direct assay</td><td>101.3</td><td>0 - 130</td><td></td><td>mg/dL</td></tr></table></div>"
        },
        "status": "final",
        "subject": {
          "reference": "urn:uuid:dcba9565-6c75-4640-a524-dbe1ba30a75a",
          "display": "Bethany Begum"
        },
        "effectiveDateTime": "2024-04-12T11:40:40Z",
        "specimen": {
          "reference": "urn:uuid:ae476f80-a271-4982-a84c-8b016f1d8b07"
        }
      }
    },
    {
      "fullUrl": "urn:uuid:807bc5db-8eeb-4dca-9b4f-ddb81577b272",
      "resource": {
        "resourceType": "Observation",
        "id": "807bc5db-8eeb-4dca-9b4f-ddb81577b272",
        "meta": {
          "profile": [
            "http://hl7.eu/fhir/laboratory/StructureDefinition/Observation-resultslab-eu-lab"
          ]
        },
        "performer": [
          {
            "display": "The Central European Lab"
          }
        ],
        "category": [
          {
            "coding": [
              {
                "system": "http://terminology.hl7.org/CodeSystem/observation-category",
                "code": "laboratory"
              }
            ]
          }
        ],
        "code": {
          "coding": [
            {
              "code": "2085-9",
              "system": "http://loinc.org",
              "display": "Cholesterol in HDL [Mass/volume] in Serum or Plasma"
            }
          ],
          "text": "Cholesterol in HDL [Mass/volume] in Serum or Plasma"
        },
        "valueQuantity": {
          "system": "http://unitsofmeasure.org",
          "value": 45.8,
          "unit": "mg/dL",
          "code": "mg/dL"
        },
        "referenceRange": [
          {
            "low": {
              "value": 40,
              "code": "mg/dL",
              "system": "http://unitsofmeasure.org"
            }
          },
          {
            "high": {
              "value": 60,
              "code": "mg/dL",
              "system": "http://unitsofmeasure.org"
            }
          }
        ],
        "text": {
          "status": "generated",
          "div": "<div xmlns=\"http://www.w3.org/1999/xhtml\"><table class=\"hl7__eu__lab__report\"><tr><th>Test</th><th>12-Apr-2024</th><th>Reference&#xA0;Range</th><th>Unit</th></tr><tr><td>Cholesterol in HDL [Mass/volume] in Serum or Plasma</td><td>45.8</td><td>40 - 60</td><td></td><td>mg/dL</td></tr></table></div>"
        },
        "status": "final",
        "subject": {
          "reference": "urn:uuid:dcba9565-6c75-4640-a524-dbe1ba30a75a",
          "display": "Bethany Begum"
        },
        "effectiveDateTime": "2024-04-12T11:40:40Z",
        "specimen": {
          "reference": "urn:uuid:ae476f80-a271-4982-a84c-8b016f1d8b07"
        }
      }
    },
    {
      "fullUrl": "urn:uuid:ec233d52-6b95-4b7b-83fa-8eb766050ead",
      "resource": {
        "resourceType": "Observation",
        "id": "ec233d52-6b95-4b7b-83fa-8eb766050ead",
        "meta": {
          "profile": [
            "http://hl7.eu/fhir/laboratory/StructureDefinition/Observation-resultslab-eu-lab"
          ]
        },
        "performer": [
          {
            "display": "The Central European Lab"
          }
        ],
        "category": [
          {
            "coding": [
              {
                "system": "http://terminology.hl7.org/CodeSystem/observation-category",
                "code": "laboratory"
              }
            ]
          }
        ],
        "code": {
          "coding": [
            {
              "code": "2339-0",
              "system": "http://loinc.org",
              "display": "Glucose [Mass/volume] in Blood"
            }
          ],
          "text": "Glucose [Mass/volume] in Blood"
        },
        "valueQuantity": {
          "system": "http://unitsofmeasure.org",
          "value": 94.9,
          "unit": "mg/dL",
          "code": "mg/dL"
        },
        "referenceRange": [
          {
            "low": {
              "value": 70,
              "code": "mg/dL",
              "system": "http://unitsofmeasure.org"
            }
          },
          {
            "high": {
              "value": 140,
              "code": "mg/dL",
              "system": "http://unitsofmeasure.org"
            }
          }
        ],
        "text": {
          "status": "generated",
          "div": "<div xmlns=\"http://www.w3.org/1999/xhtml\"><table class=\"hl7__eu__lab__report\"><tr><th>Test</th><th>12-Apr-2024</th><th>Reference&#xA0;Range</th><th>Unit</th></tr><tr><td>Glucose [Mass/volume] in Blood</td><td>94.9</td><td>70 - 140</td><td></td><td>mg/dL</td></tr></table></div>"
        },
        "status": "final",
        "subject": {
          "reference": "urn:uuid:dcba9565-6c75-4640-a524-dbe1ba30a75a",
          "display": "Bethany Begum"
        },
        "effectiveDateTime": "2024-04-12T11:40:40Z",
        "specimen": {
          "reference": "urn:uuid:400824b5-3397-4221-aed0-d73394458a8b"
        }
      }
    },
    {
      "fullUrl": "urn:uuid:28796667-bff3-47db-9514-0a587560f9c7",
      "resource": {
        "resourceType": "Observation",
        "id": "28796667-bff3-47db-9514-0a587560f9c7",
        "meta": {
          "profile": [
            "http://hl7.eu/fhir/laboratory/StructureDefinition/Observation-resultslab-eu-lab"
          ]
        },
        "performer": [
          {
            "display": "The Central European Lab"
          }
        ],
        "category": [
          {
            "coding": [
              {
                "system": "http://terminology.hl7.org/CodeSystem/observation-category",
                "code": "laboratory"
              }
            ]
          }
        ],
        "code": {
          "coding": [
            {
              "code": "6299-2",
              "system": "http://loinc.org",
              "display": "Urea nitrogen [Mass/volume] in Blood"
            }
          ],
          "text": "Urea nitrogen [Mass/volume] in Blood"
        },
        "valueQuantity": {
          "system": "http://unitsofmeasure.org",
          "value": 17.3,
          "unit": "mg/dL",
          "code": "mg/dL"
        },
        "referenceRange": [
          {
            "low": {
              "value": 7,
              "code": "mg/dL",
              "system": "http://unitsofmeasure.org"
            }
          },
          {
            "high": {
              "value": 25,
              "code": "mg/dL",
              "system": "http://unitsofmeasure.org"
            }
          }
        ],
        "text": {
          "status": "generated",
          "div": "<div xmlns=\"http://www.w3.org/1999/xhtml\"><table class=\"hl7__eu__lab__report\"><tr><th>Test</th><th>12-Apr-2024</th><th>Reference&#xA0;Range</th><th>Unit</th></tr><tr><td>Urea nitrogen [Mass/volume] in Blood</td><td>17.3</td><td>7 - 25</td><td></td><td>mg/dL</td></tr></table></div>"
        },
        "status": "final",
        "subject": {
          "reference": "urn:uuid:dcba9565-6c75-4640-a524-dbe1ba30a75a",
          "display": "Bethany Begum"
        },
        "effectiveDateTime": "2024-04-12T11:40:40Z",
        "specimen": {
          "reference": "urn:uuid:400824b5-3397-4221-aed0-d73394458a8b"
        }
      }
    },
    {
      "fullUrl": "urn:uuid:8723ae65-c90a-4a7e-a916-94449ed1d7a1",
      "resource": {
        "resourceType": "Observation",
        "id": "8723ae65-c90a-4a7e-a916-94449ed1d7a1",
        "meta": {
          "profile": [
            "http://hl7.eu/fhir/laboratory/StructureDefinition/Observation-resultslab-eu-lab"
          ]
        },
        "performer": [
          {
            "display": "The Central European Lab"
          }
        ],
        "category": [
          {
            "coding": [
              {
                "system": "http://terminology.hl7.org/CodeSystem/observation-category",
                "code": "laboratory"
              }
            ]
          }
        ],
        "code": {
          "coding": [
            {
              "code": "38483-4",
              "system": "http://loinc.org",
              "display": "Creatinine [Mass/volume] in Blood"
            }
          ],
          "text": "Creatinine [Mass/volume] in Blood"
        },
        "valueQuantity": {
          "system": "http://unitsofmeasure.org",
          "value": 3.2,
          "unit": "mg/dL",
          "code": "mg/dL"
        },
        "referenceRange": [
          {
            "low": {
              "value": 0.6,
              "code": "mg/dL",
              "system": "http://unitsofmeasure.org"
            }
          },
          {
            "high": {
              "value": 1.3,
              "code": "mg/dL",
              "system": "http://unitsofmeasure.org"
            }
          }
        ],
        "interpretation": [
          {
            "coding": [
              {
                "code": "H",
                "system": "http://terminology.hl7.org/CodeSystem/v3-ObservationInterpretation",
                "display": "High"
              }
            ]
          }
        ],
        "text": {
          "status": "generated",
          "div": "<div xmlns=\"http://www.w3.org/1999/xhtml\"><table class=\"hl7__eu__lab__report\"><tr><th>Test</th><th>12-Apr-2024</th><th>Reference&#xA0;Range</th><th>Unit</th></tr><tr><td>Creatinine [Mass/volume] in Blood</td><td>3.2</td><td>0.6 - 1.3</td><td>H</td><td>mg/dL</td></tr></table></div>"
        },
        "status": "final",
        "subject": {
          "reference": "urn:uuid:dcba9565-6c75-4640-a524-dbe1ba30a75a",
          "display": "Bethany Begum"
        },
        "effectiveDateTime": "2024-04-12T11:40:40Z",
        "specimen": {
          "reference": "urn:uuid:400824b5-3397-4221-aed0-d73394458a8b"
        }
      }
    },
    {
      "fullUrl": "urn:uuid:dbca93a9-ed85-4ab0-945d-f9ae5a20f9c8",
      "resource": {
        "resourceType": "Observation",
        "id": "dbca93a9-ed85-4ab0-945d-f9ae5a20f9c8",
        "meta": {
          "profile": [
            "http://hl7.eu/fhir/laboratory/StructureDefinition/Observation-resultslab-eu-lab"
          ]
        },
        "performer": [
          {
            "display": "The Central European Lab"
          }
        ],
        "category": [
          {
            "coding": [
              {
                "system": "http://terminology.hl7.org/CodeSystem/observation-category",
                "code": "laboratory"
              }
            ]
          }
        ],
        "code": {
          "coding": [
            {
              "code": "49765-1",
              "system": "http://loinc.org",
              "display": "Calcium [Mass/volume] in Blood"
            }
          ],
          "text": "Calcium [Mass/volume] in Blood"
        },
        "valueQuantity": {
          "system": "http://unitsofmeasure.org",
          "value": 8.8,
          "unit": "mg/dL",
          "code": "mg/dL"
        },
        "referenceRange": [
          {
            "low": {
              "value": 8.5,
              "code": "mg/dL",
              "system": "http://unitsofmeasure.org"
            }
          },
          {
            "high": {
              "value": 10.5,
              "code": "mg/dL",
              "system": "http://unitsofmeasure.org"
            }
          }
        ],
        "text": {
          "status": "generated",
          "div": "<div xmlns=\"http://www.w3.org/1999/xhtml\"><table class=\"hl7__eu__lab__report\"><tr><th>Test</th><th>12-Apr-2024</th><th>Reference&#xA0;Range</th><th>Unit</th></tr><tr><td>Calcium [Mass/volume] in Blood</td><td>8.8</td><td>8.5 - 10.5</td><td></td><td>mg/dL</td></tr></table></div>"
        },
        "status": "final",
        "subject": {
          "reference": "urn:uuid:dcba9565-6c75-4640-a524-dbe1ba30a75a",
          "display": "Bethany Begum"
        },
        "effectiveDateTime": "2024-04-12T11:40:40Z",
        "specimen": {
          "reference": "urn:uuid:400824b5-3397-4221-aed0-d73394458a8b"
        }
      }
    },
    {
      "fullUrl": "urn:uuid:ea9f3963-d2bf-42ea-9f8a-1b9b1b80060b",
      "resource": {
        "resourceType": "Observation",
        "id": "ea9f3963-d2bf-42ea-9f8a-1b9b1b80060b",
        "meta": {
          "profile": [
            "http://hl7.eu/fhir/laboratory/StructureDefinition/Observation-resultslab-eu-lab"
          ]
        },
        "performer": [
          {
            "display": "The Central European Lab"
          }
        ],
        "category": [
          {
            "coding": [
              {
                "system": "http://terminology.hl7.org/CodeSystem/observation-category",
                "code": "laboratory"
              }
            ]
          }
        ],
        "code": {
          "coding": [
            {
              "code": "2947-0",
              "system": "http://loinc.org",
              "display": "Sodium [Moles/volume] in Blood"
            }
          ],
          "text": "Sodium [Moles/volume] in Blood"
        },
        "valueQuantity": {
          "system": "http://unitsofmeasure.org",
          "value": 142,
          "unit": "mmol/L",
          "code": "mmol/L"
        },
        "referenceRange": [
          {
            "low": {
              "value": 135,
              "code": "mmol/L",
              "system": "http://unitsofmeasure.org"
            }
          },
          {
            "high": {
              "value": 145,
              "code": "mmol/L",
              "system": "http://unitsofmeasure.org"
            }
          }
        ],
        "text": {
          "status": "generated",
          "div": "<div xmlns=\"http://www.w3.org/1999/xhtml\"><table class=\"hl7__eu__lab__report\"><tr><th>Test</th><th>12-Apr-2024</th><th>Reference&#xA0;Range</th><th>Unit</th></tr><tr><td>Sodium [Moles/volume] in Blood</td><td>142.0</td><td>135 - 145</td><td></td><td>mmol/L</td></tr></table></div>"
        },
        "status": "final",
        "subject": {
          "reference": "urn:uuid:dcba9565-6c75-4640-a524-dbe1ba30a75a",
          "display": "Bethany Begum"
        },
        "effectiveDateTime": "2024-04-12T11:40:40Z",
        "specimen": {
          "reference": "urn:uuid:400824b5-3397-4221-aed0-d73394458a8b"
        }
      }
    },
    {
      "fullUrl": "urn:uuid:9aea07bb-756b-4d23-85fa-5da55ced1051",
      "resource": {
        "resourceType": "Observation",
        "id": "9aea07bb-756b-4d23-85fa-5da55ced1051",
        "meta": {
          "profile": [
            "http://hl7.eu/fhir/laboratory/StructureDefinition/Observation-resultslab-eu-lab"
          ]
        },
        "performer": [
          {
            "display": "The Central European Lab"
          }
        ],
        "category": [
          {
            "coding": [
              {
                "system": "http://terminology.hl7.org/CodeSystem/observation-category",
                "code": "laboratory"
              }
            ]
          }
        ],
        "code": {
          "coding": [
            {
              "code": "6298-4",
              "system": "http://loinc.org",
              "display": "Potassium [Moles/volume] in Blood"
            }
          ],
          "text": "Potassium [Moles/volume] in Blood"
        },
        "valueQuantity": {
          "system": "http://unitsofmeasure.org",
          "value": 4.7,
          "unit": "mmol/L",
          "code": "mmol/L"
        },
        "referenceRange": [
          {
            "low": {
              "value": 3.5,
              "code": "mmol/L",
              "system": "http://unitsofmeasure.org"
            }
          },
          {
            "high": {
              "value": 5.1,
              "code": "mmol/L",
              "system": "http://unitsofmeasure.org"
            }
          }
        ],
        "text": {
          "status": "generated",
          "div": "<div xmlns=\"http://www.w3.org/1999/xhtml\"><table class=\"hl7__eu__lab__report\"><tr><th>Test</th><th>12-Apr-2024</th><th>Reference&#xA0;Range</th><th>Unit</th></tr><tr><td>Potassium [Moles/volume] in Blood</td><td>4.7</td><td>3.5 - 5.1</td><td></td><td>mmol/L</td></tr></table></div>"
        },
        "status": "final",
        "subject": {
          "reference": "urn:uuid:dcba9565-6c75-4640-a524-dbe1ba30a75a",
          "display": "Bethany Begum"
        },
        "effectiveDateTime": "2024-04-12T11:40:40Z",
        "specimen": {
          "reference": "urn:uuid:400824b5-3397-4221-aed0-d73394458a8b"
        }
      }
    },
    {
      "fullUrl": "urn:uuid:65128130-8452-41b5-95bf-dd891c2394c4",
      "resource": {
        "resourceType": "Observation",
        "id": "65128130-8452-41b5-95bf-dd891c2394c4",
        "meta": {
          "profile": [
            "http://hl7.eu/fhir/laboratory/StructureDefinition/Observation-resultslab-eu-lab"
          ]
        },
        "performer": [
          {
            "display": "The Central European Lab"
          }
        ],
        "category": [
          {
            "coding": [
              {
                "system": "http://terminology.hl7.org/CodeSystem/observation-category",
                "code": "laboratory"
              }
            ]
          }
        ],
        "code": {
          "coding": [
            {
              "code": "2069-3",
              "system": "http://loinc.org",
              "display": "Chloride [Moles/volume] in Blood"
            }
          ],
          "text": "Chloride [Moles/volume] in Blood"
        },
        "valueQuantity": {
          "system": "http://unitsofmeasure.org",
          "value": 101.7,
          "unit": "mmol/L",
          "code": "mmol/L"
        },
        "referenceRange": [
          {
            "low": {
              "value": 98,
              "code": "mmol/L",
              "system": "http://unitsofmeasure.org"
            }
          },
          {
            "high": {
              "value": 108,
              "code": "mmol/L",
              "system": "http://unitsofmeasure.org"
            }
          }
        ],
        "text": {
          "status": "generated",
          "div": "<div xmlns=\"http://www.w3.org/1999/xhtml\"><table class=\"hl7__eu__lab__report\"><tr><th>Test</th><th>12-Apr-2024</th><th>Reference&#xA0;Range</th><th>Unit</th></tr><tr><td>Chloride [Moles/volume] in Blood</td><td>101.7</td><td>98 - 108</td><td></td><td>mmol/L</td></tr></table></div>"
        },
        "status": "final",
        "subject": {
          "reference": "urn:uuid:dcba9565-6c75-4640-a524-dbe1ba30a75a",
          "display": "Bethany Begum"
        },
        "effectiveDateTime": "2024-04-12T11:40:40Z",
        "specimen": {
          "reference": "urn:uuid:400824b5-3397-4221-aed0-d73394458a8b"
        }
      }
    },
    {
      "fullUrl": "urn:uuid:8741f3f1-96d5-43a3-a96b-f7d328cafffa",
      "resource": {
        "resourceType": "Observation",
        "id": "8741f3f1-96d5-43a3-a96b-f7d328cafffa",
        "meta": {
          "profile": [
            "http://hl7.eu/fhir/laboratory/StructureDefinition/Observation-resultslab-eu-lab"
          ]
        },
        "performer": [
          {
            "display": "The Central European Lab"
          }
        ],
        "category": [
          {
            "coding": [
              {
                "system": "http://terminology.hl7.org/CodeSystem/observation-category",
                "code": "laboratory"
              }
            ]
          }
        ],
        "code": {
          "coding": [
            {
              "code": "20565-8",
              "system": "http://loinc.org",
              "display": "Carbon dioxide, total [Moles/volume] in Blood"
            }
          ],
          "text": "Carbon dioxide, total [Moles/volume] in Blood"
        },
        "valueQuantity": {
          "system": "http://unitsofmeasure.org",
          "value": 26.6,
          "unit": "mmol/L",
          "code": "mmol/L"
        },
        "referenceRange": [
          {
            "low": {
              "value": 22,
              "code": "mmol/L",
              "system": "http://unitsofmeasure.org"
            }
          },
          {
            "high": {
              "value": 29,
              "code": "mmol/L",
              "system": "http://unitsofmeasure.org"
            }
          }
        ],
        "text": {
          "status": "generated",
          "div": "<div xmlns=\"http://www.w3.org/1999/xhtml\"><table class=\"hl7__eu__lab__report\"><tr><th>Test</th><th>12-Apr-2024</th><th>Reference&#xA0;Range</th><th>Unit</th></tr><tr><td>Carbon dioxide, total [Moles/volume] in Blood</td><td>26.6</td><td>22 - 29</td><td></td><td>mmol/L</td></tr></table></div>"
        },
        "status": "final",
        "subject": {
          "reference": "urn:uuid:dcba9565-6c75-4640-a524-dbe1ba30a75a",
          "display": "Bethany Begum"
        },
        "effectiveDateTime": "2024-04-12T11:40:40Z",
        "specimen": {
          "reference": "urn:uuid:400824b5-3397-4221-aed0-d73394458a8b"
        }
      }
    },
    {
      "fullUrl": "urn:uuid:0e7914cf-35d3-4f91-a038-cb62808ca9cb",
      "resource": {
        "resourceType": "Observation",
        "id": "0e7914cf-35d3-4f91-a038-cb62808ca9cb",
        "meta": {
          "profile": [
            "http://hl7.eu/fhir/laboratory/StructureDefinition/Observation-resultslab-eu-lab"
          ]
        },
        "performer": [
          {
            "display": "The Central European Lab"
          }
        ],
        "category": [
          {
            "coding": [
              {
                "system": "http://terminology.hl7.org/CodeSystem/observation-category",
                "code": "laboratory"
              }
            ]
          }
        ],
        "code": {
          "coding": [
            {
              "code": "2885-2",
              "system": "http://loinc.org",
              "display": "Protein [Mass/volume] in Serum or Plasma"
            }
          ],
          "text": "Protein [Mass/volume] in Serum or Plasma"
        },
        "valueQuantity": {
          "system": "http://unitsofmeasure.org",
          "value": 6,
          "unit": "g/dL",
          "code": "g/dL"
        },
        "referenceRange": [
          {
            "low": {
              "value": 6.3,
              "code": "g/dL",
              "system": "http://unitsofmeasure.org"
            }
          },
          {
            "high": {
              "value": 8.3,
              "code": "g/dL",
              "system": "http://unitsofmeasure.org"
            }
          }
        ],
        "interpretation": [
          {
            "coding": [
              {
                "code": "L",
                "system": "http://terminology.hl7.org/CodeSystem/v3-ObservationInterpretation",
                "display": "Low"
              }
            ]
          }
        ],
        "text": {
          "status": "generated",
          "div": "<div xmlns=\"http://www.w3.org/1999/xhtml\"><table class=\"hl7__eu__lab__report\"><tr><th>Test</th><th>12-Apr-2024</th><th>Reference&#xA0;Range</th><th>Unit</th></tr><tr><td>Protein [Mass/volume] in Serum or Plasma</td><td>6.0</td><td>6.3 - 8.3</td><td>L</td><td>g/dL</td></tr></table></div>"
        },
        "status": "final",
        "subject": {
          "reference": "urn:uuid:dcba9565-6c75-4640-a524-dbe1ba30a75a",
          "display": "Bethany Begum"
        },
        "effectiveDateTime": "2024-04-12T11:40:40Z",
        "specimen": {
          "reference": "urn:uuid:ae476f80-a271-4982-a84c-8b016f1d8b07"
        }
      }
    },
    {
      "fullUrl": "urn:uuid:97a821a4-0d64-42ec-ae19-c5407ab37c72",
      "resource": {
        "resourceType": "Observation",
        "id": "97a821a4-0d64-42ec-ae19-c5407ab37c72",
        "meta": {
          "profile": [
            "http://hl7.eu/fhir/laboratory/StructureDefinition/Observation-resultslab-eu-lab"
          ]
        },
        "performer": [
          {
            "display": "The Central European Lab"
          }
        ],
        "category": [
          {
            "coding": [
              {
                "system": "http://terminology.hl7.org/CodeSystem/observation-category",
                "code": "laboratory"
              }
            ]
          }
        ],
        "code": {
          "coding": [
            {
              "code": "1751-7",
              "system": "http://loinc.org",
              "display": "Albumin [Mass/volume] in Serum or Plasma"
            }
          ],
          "text": "Albumin [Mass/volume] in Serum or Plasma"
        },
        "valueQuantity": {
          "system": "http://unitsofmeasure.org",
          "value": 4.6,
          "unit": "g/dL",
          "code": "g/dL"
        },
        "referenceRange": [
          {
            "low": {
              "value": 3.5,
              "code": "g/dL",
              "system": "http://unitsofmeasure.org"
            }
          },
          {
            "high": {
              "value": 5.5,
              "code": "g/dL",
              "system": "http://unitsofmeasure.org"
            }
          }
        ],
        "text": {
          "status": "generated",
          "div": "<div xmlns=\"http://www.w3.org/1999/xhtml\"><table class=\"hl7__eu__lab__report\"><tr><th>Test</th><th>12-Apr-2024</th><th>Reference&#xA0;Range</th><th>Unit</th></tr><tr><td>Albumin [Mass/volume] in Serum or Plasma</td><td>4.6</td><td>3.5 - 5.5</td><td></td><td>g/dL</td></tr></table></div>"
        },
        "status": "final",
        "subject": {
          "reference": "urn:uuid:dcba9565-6c75-4640-a524-dbe1ba30a75a",
          "display": "Bethany Begum"
        },
        "effectiveDateTime": "2024-04-12T11:40:40Z",
        "specimen": {
          "reference": "urn:uuid:ae476f80-a271-4982-a84c-8b016f1d8b07"
        }
      }
    },
    {
      "fullUrl": "urn:uuid:5b577c7c-c874-44d3-b92d-a6e37b32e1fe",
      "resource": {
        "resourceType": "Observation",
        "id": "5b577c7c-c874-44d3-b92d-a6e37b32e1fe",
        "meta": {
          "profile": [
            "http://hl7.eu/fhir/laboratory/StructureDefinition/Observation-resultslab-eu-lab"
          ]
        },
        "performer": [
          {
            "display": "The Central European Lab"
          }
        ],
        "category": [
          {
            "coding": [
              {
                "system": "http://terminology.hl7.org/CodeSystem/observation-category",
                "code": "laboratory"
              }
            ]
          }
        ],
        "code": {
          "coding": [
            {
              "code": "10834-0",
              "system": "http://loinc.org",
              "display": "Globulin [Mass/volume] in Serum by calculation"
            }
          ],
          "text": "Globulin [Mass/volume] in Serum by calculation"
        },
        "valueQuantity": {
          "system": "http://unitsofmeasure.org",
          "value": 3.4,
          "unit": "g/L",
          "code": "g/L"
        },
        "referenceRange": [
          {
            "low": {
              "value": 2,
              "code": "g/L",
              "system": "http://unitsofmeasure.org"
            }
          },
          {
            "high": {
              "value": 3.9,
              "code": "g/L",
              "system": "http://unitsofmeasure.org"
            }
          }
        ],
        "text": {
          "status": "generated",
          "div": "<div xmlns=\"http://www.w3.org/1999/xhtml\"><table class=\"hl7__eu__lab__report\"><tr><th>Test</th><th>12-Apr-2024</th><th>Reference&#xA0;Range</th><th>Unit</th></tr><tr><td>Globulin [Mass/volume] in Serum by calculation</td><td>3.4</td><td>2 - 3.9</td><td></td><td>g/L</td></tr></table></div>"
        },
        "status": "final",
        "subject": {
          "reference": "urn:uuid:dcba9565-6c75-4640-a524-dbe1ba30a75a",
          "display": "Bethany Begum"
        },
        "effectiveDateTime": "2024-04-12T11:40:40Z",
        "specimen": {
          "reference": "urn:uuid:21872f54-0e20-46fb-9c07-c8edabd184b5"
        }
      }
    },
    {
      "fullUrl": "urn:uuid:64872b39-86b7-47b5-9015-2f2d32972f6b",
      "resource": {
        "resourceType": "Observation",
        "id": "64872b39-86b7-47b5-9015-2f2d32972f6b",
        "meta": {
          "profile": [
            "http://hl7.eu/fhir/laboratory/StructureDefinition/Observation-resultslab-eu-lab"
          ]
        },
        "performer": [
          {
            "display": "The Central European Lab"
          }
        ],
        "category": [
          {
            "coding": [
              {
                "system": "http://terminology.hl7.org/CodeSystem/observation-category",
                "code": "laboratory"
              }
            ]
          }
        ],
        "code": {
          "coding": [
            {
              "code": "1975-2",
              "system": "http://loinc.org",
              "display": "Bilirubin.total [Mass/volume] in Serum or Plasma"
            }
          ],
          "text": "Bilirubin.total [Mass/volume] in Serum or Plasma"
        },
        "valueQuantity": {
          "system": "http://unitsofmeasure.org",
          "value": 0.6,
          "unit": "mg/dL",
          "code": "mg/dL"
        },
        "referenceRange": [
          {
            "low": {
              "value": 0.3,
              "code": "mg/dL",
              "system": "http://unitsofmeasure.org"
            }
          },
          {
            "high": {
              "value": 1.2,
              "code": "mg/dL",
              "system": "http://unitsofmeasure.org"
            }
          }
        ],
        "text": {
          "status": "generated",
          "div": "<div xmlns=\"http://www.w3.org/1999/xhtml\"><table class=\"hl7__eu__lab__report\"><tr><th>Test</th><th>12-Apr-2024</th><th>Reference&#xA0;Range</th><th>Unit</th></tr><tr><td>Bilirubin.total [Mass/volume] in Serum or Plasma</td><td>0.6</td><td>0.3 - 1.2</td><td></td><td>mg/dL</td></tr></table></div>"
        },
        "status": "final",
        "subject": {
          "reference": "urn:uuid:dcba9565-6c75-4640-a524-dbe1ba30a75a",
          "display": "Bethany Begum"
        },
        "effectiveDateTime": "2024-04-12T11:40:40Z",
        "specimen": {
          "reference": "urn:uuid:ae476f80-a271-4982-a84c-8b016f1d8b07"
        }
      }
    },
    {
      "fullUrl": "urn:uuid:c7899707-8b60-402a-ac95-8200d754949c",
      "resource": {
        "resourceType": "Observation",
        "id": "c7899707-8b60-402a-ac95-8200d754949c",
        "meta": {
          "profile": [
            "http://hl7.eu/fhir/laboratory/StructureDefinition/Observation-resultslab-eu-lab"
          ]
        },
        "performer": [
          {
            "display": "The Central European Lab"
          }
        ],
        "category": [
          {
            "coding": [
              {
                "system": "http://terminology.hl7.org/CodeSystem/observation-category",
                "code": "laboratory"
              }
            ]
          }
        ],
        "code": {
          "coding": [
            {
              "code": "6768-6",
              "system": "http://loinc.org",
              "display": "Alkaline phosphatase [Enzymatic activity/volume] in Serum or Plasma"
            }
          ],
          "text": "Alkaline phosphatase [Enzymatic activity/volume] in Serum or Plasma"
        },
        "valueQuantity": {
          "system": "http://unitsofmeasure.org",
          "value": 76.9,
          "unit": "U/L",
          "code": "U/L"
        },
        "referenceRange": [
          {
            "low": {
              "value": 32,
              "code": "U/L",
              "system": "http://unitsofmeasure.org"
            }
          },
          {
            "high": {
              "value": 104,
              "code": "U/L",
              "system": "http://unitsofmeasure.org"
            }
          }
        ],
        "text": {
          "status": "generated",
          "div": "<div xmlns=\"http://www.w3.org/1999/xhtml\"><table class=\"hl7__eu__lab__report\"><tr><th>Test</th><th>12-Apr-2024</th><th>Reference&#xA0;Range</th><th>Unit</th></tr><tr><td>Alkaline phosphatase [Enzymatic activity/volume] in Serum or Plasma</td><td>76.9</td><td>32 - 104</td><td></td><td>U/L</td></tr></table></div>"
        },
        "status": "final",
        "subject": {
          "reference": "urn:uuid:dcba9565-6c75-4640-a524-dbe1ba30a75a",
          "display": "Bethany Begum"
        },
        "effectiveDateTime": "2024-04-12T11:40:40Z",
        "specimen": {
          "reference": "urn:uuid:ae476f80-a271-4982-a84c-8b016f1d8b07"
        }
      }
    },
    {
      "fullUrl": "urn:uuid:09c44d7d-86d5-4058-8b06-b15afa99aef0",
      "resource": {
        "resourceType": "Observation",
        "id": "09c44d7d-86d5-4058-8b06-b15afa99aef0",
        "meta": {
          "profile": [
            "http://hl7.eu/fhir/laboratory/StructureDefinition/Observation-resultslab-eu-lab"
          ]
        },
        "performer": [
          {
            "display": "The Central European Lab"
          }
        ],
        "category": [
          {
            "coding": [
              {
                "system": "http://terminology.hl7.org/CodeSystem/observation-category",
                "code": "laboratory"
              }
            ]
          }
        ],
        "code": {
          "coding": [
            {
              "code": "1742-6",
              "system": "http://loinc.org",
              "display": "Alanine aminotransferase [Enzymatic activity/volume] in Serum or Plasma"
            }
          ],
          "text": "Alanine aminotransferase [Enzymatic activity/volume] in Serum or Plasma"
        },
        "valueQuantity": {
          "system": "http://unitsofmeasure.org",
          "value": 29.4,
          "unit": "U/L",
          "code": "U/L"
        },
        "referenceRange": [
          {
            "low": {
              "value": 7,
              "code": "U/L",
              "system": "http://unitsofmeasure.org"
            }
          },
          {
            "high": {
              "value": 55,
              "code": "U/L",
              "system": "http://unitsofmeasure.org"
            }
          }
        ],
        "text": {
          "status": "generated",
          "div": "<div xmlns=\"http://www.w3.org/1999/xhtml\"><table class=\"hl7__eu__lab__report\"><tr><th>Test</th><th>12-Apr-2024</th><th>Reference&#xA0;Range</th><th>Unit</th></tr><tr><td>Alanine aminotransferase [Enzymatic activity/volume] in Serum or Plasma</td><td>29.4</td><td>7 - 55</td><td></td><td>U/L</td></tr></table></div>"
        },
        "status": "final",
        "subject": {
          "reference": "urn:uuid:dcba9565-6c75-4640-a524-dbe1ba30a75a",
          "display": "Bethany Begum"
        },
        "effectiveDateTime": "2024-04-12T11:40:40Z",
        "specimen": {
          "reference": "urn:uuid:ae476f80-a271-4982-a84c-8b016f1d8b07"
        }
      }
    },
    {
      "fullUrl": "urn:uuid:3e6b413c-14d0-4e2a-a6a6-498a57ac542b",
      "resource": {
        "resourceType": "Observation",
        "id": "3e6b413c-14d0-4e2a-a6a6-498a57ac542b",
        "meta": {
          "profile": [
            "http://hl7.eu/fhir/laboratory/StructureDefinition/Observation-resultslab-eu-lab"
          ]
        },
        "performer": [
          {
            "display": "The Central European Lab"
          }
        ],
        "category": [
          {
            "coding": [
              {
                "system": "http://terminology.hl7.org/CodeSystem/observation-category",
                "code": "laboratory"
              }
            ]
          }
        ],
        "code": {
          "coding": [
            {
              "code": "1920-8",
              "system": "http://loinc.org",
              "display": "Aspartate aminotransferase [Enzymatic activity/volume] in Serum or Plasma"
            }
          ],
          "text": "Aspartate aminotransferase [Enzymatic activity/volume] in Serum or Plasma"
        },
        "valueQuantity": {
          "system": "http://unitsofmeasure.org",
          "value": 25.7,
          "unit": "U/L",
          "code": "U/L"
        },
        "referenceRange": [
          {
            "low": {
              "value": 10,
              "code": "U/L",
              "system": "http://unitsofmeasure.org"
            }
          },
          {
            "high": {
              "value": 40,
              "code": "U/L",
              "system": "http://unitsofmeasure.org"
            }
          }
        ],
        "text": {
          "status": "generated",
          "div": "<div xmlns=\"http://www.w3.org/1999/xhtml\"><table class=\"hl7__eu__lab__report\"><tr><th>Test</th><th>12-Apr-2024</th><th>Reference&#xA0;Range</th><th>Unit</th></tr><tr><td>Aspartate aminotransferase [Enzymatic activity/volume] in Serum or Plasma</td><td>25.7</td><td>10 - 40</td><td></td><td>U/L</td></tr></table></div>"
        },
        "status": "final",
        "subject": {
          "reference": "urn:uuid:dcba9565-6c75-4640-a524-dbe1ba30a75a",
          "display": "Bethany Begum"
        },
        "effectiveDateTime": "2024-04-12T11:40:40Z",
        "specimen": {
          "reference": "urn:uuid:ae476f80-a271-4982-a84c-8b016f1d8b07"
        }
      }
    },
    {
      "fullUrl": "urn:uuid:620e404e-bc7c-4d08-b807-500f75a1457a",
      "resource": {
        "resourceType": "Observation",
        "id": "620e404e-bc7c-4d08-b807-500f75a1457a",
        "meta": {
          "profile": [
            "http://hl7.eu/fhir/laboratory/StructureDefinition/Observation-resultslab-eu-lab"
          ]
        },
        "performer": [
          {
            "display": "The Central European Lab"
          }
        ],
        "category": [
          {
            "coding": [
              {
                "system": "http://terminology.hl7.org/CodeSystem/observation-category",
                "code": "laboratory"
              }
            ]
          }
        ],
        "code": {
          "coding": [
            {
              "code": "2339-0",
              "system": "http://loinc.org",
              "display": "Glucose [Mass/volume] in Blood"
            }
          ],
          "text": "Glucose [Mass/volume] in Blood"
        },
        "valueQuantity": {
          "system": "http://unitsofmeasure.org",
          "value": 94.9,
          "unit": "mg/dL",
          "code": "mg/dL"
        },
        "referenceRange": [
          {
            "low": {
              "value": 70,
              "code": "mg/dL",
              "system": "http://unitsofmeasure.org"
            }
          },
          {
            "high": {
              "value": 140,
              "code": "mg/dL",
              "system": "http://unitsofmeasure.org"
            }
          }
        ],
        "text": {
          "status": "generated",
          "div": "<div xmlns=\"http://www.w3.org/1999/xhtml\"><table class=\"hl7__eu__lab__report\"><tr><th>Test</th><th>12-Apr-2024</th><th>Reference&#xA0;Range</th><th>Unit</th></tr><tr><td>Glucose [Mass/volume] in Blood</td><td>94.9</td><td>70 - 140</td><td></td><td>mg/dL</td></tr></table></div>"
        },
        "status": "final",
        "subject": {
          "reference": "urn:uuid:dcba9565-6c75-4640-a524-dbe1ba30a75a",
          "display": "Bethany Begum"
        },
        "effectiveDateTime": "2024-04-12T11:40:40Z",
        "specimen": {
          "reference": "urn:uuid:400824b5-3397-4221-aed0-d73394458a8b"
        }
      }
    },
    {
      "fullUrl": "urn:uuid:be4e63f4-cf59-4b0b-b082-d1fddb6b511e",
      "resource": {
        "resourceType": "Observation",
        "id": "be4e63f4-cf59-4b0b-b082-d1fddb6b511e",
        "meta": {
          "profile": [
            "http://hl7.eu/fhir/laboratory/StructureDefinition/Observation-resultslab-eu-lab"
          ]
        },
        "performer": [
          {
            "display": "The Central European Lab"
          }
        ],
        "category": [
          {
            "coding": [
              {
                "system": "http://terminology.hl7.org/CodeSystem/observation-category",
                "code": "laboratory"
              }
            ]
          }
        ],
        "code": {
          "coding": [
            {
              "code": "6299-2",
              "system": "http://loinc.org",
              "display": "Urea nitrogen [Mass/volume] in Blood"
            }
          ],
          "text": "Urea nitrogen [Mass/volume] in Blood"
        },
        "valueQuantity": {
          "system": "http://unitsofmeasure.org",
          "value": 17.3,
          "unit": "mg/dL",
          "code": "mg/dL"
        },
        "referenceRange": [
          {
            "low": {
              "value": 7,
              "code": "mg/dL",
              "system": "http://unitsofmeasure.org"
            }
          },
          {
            "high": {
              "value": 25,
              "code": "mg/dL",
              "system": "http://unitsofmeasure.org"
            }
          }
        ],
        "text": {
          "status": "generated",
          "div": "<div xmlns=\"http://www.w3.org/1999/xhtml\"><table class=\"hl7__eu__lab__report\"><tr><th>Test</th><th>12-Apr-2024</th><th>Reference&#xA0;Range</th><th>Unit</th></tr><tr><td>Urea nitrogen [Mass/volume] in Blood</td><td>17.3</td><td>7 - 25</td><td></td><td>mg/dL</td></tr></table></div>"
        },
        "status": "final",
        "subject": {
          "reference": "urn:uuid:dcba9565-6c75-4640-a524-dbe1ba30a75a",
          "display": "Bethany Begum"
        },
        "effectiveDateTime": "2024-04-12T11:40:40Z",
        "specimen": {
          "reference": "urn:uuid:400824b5-3397-4221-aed0-d73394458a8b"
        }
      }
    },
    {
      "fullUrl": "urn:uuid:45df1e36-3a4c-4ef2-bed9-c8186abe2ec5",
      "resource": {
        "resourceType": "Observation",
        "id": "45df1e36-3a4c-4ef2-bed9-c8186abe2ec5",
        "meta": {
          "profile": [
            "http://hl7.eu/fhir/laboratory/StructureDefinition/Observation-resultslab-eu-lab"
          ]
        },
        "performer": [
          {
            "display": "The Central European Lab"
          }
        ],
        "category": [
          {
            "coding": [
              {
                "system": "http://terminology.hl7.org/CodeSystem/observation-category",
                "code": "laboratory"
              }
            ]
          }
        ],
        "code": {
          "coding": [
            {
              "code": "38483-4",
              "system": "http://loinc.org",
              "display": "Creatinine [Mass/volume] in Blood"
            }
          ],
          "text": "Creatinine [Mass/volume] in Blood"
        },
        "valueQuantity": {
          "system": "http://unitsofmeasure.org",
          "value": 1,
          "unit": "mg/dL",
          "code": "mg/dL"
        },
        "referenceRange": [
          {
            "low": {
              "value": 0.6,
              "code": "mg/dL",
              "system": "http://unitsofmeasure.org"
            }
          },
          {
            "high": {
              "value": 1.3,
              "code": "mg/dL",
              "system": "http://unitsofmeasure.org"
            }
          }
        ],
        "text": {
          "status": "generated",
          "div": "<div xmlns=\"http://www.w3.org/1999/xhtml\"><table class=\"hl7__eu__lab__report\"><tr><th>Test</th><th>12-Apr-2024</th><th>Reference&#xA0;Range</th><th>Unit</th></tr><tr><td>Creatinine [Mass/volume] in Blood</td><td>1.0</td><td>0.6 - 1.3</td><td></td><td>mg/dL</td></tr></table></div>"
        },
        "status": "final",
        "subject": {
          "reference": "urn:uuid:dcba9565-6c75-4640-a524-dbe1ba30a75a",
          "display": "Bethany Begum"
        },
        "effectiveDateTime": "2024-04-12T11:40:40Z",
        "specimen": {
          "reference": "urn:uuid:400824b5-3397-4221-aed0-d73394458a8b"
        }
      }
    },
    {
      "fullUrl": "urn:uuid:bc6ea6f6-c2e4-433e-bf22-153de42725c3",
      "resource": {
        "resourceType": "Observation",
        "id": "bc6ea6f6-c2e4-433e-bf22-153de42725c3",
        "meta": {
          "profile": [
            "http://hl7.eu/fhir/laboratory/StructureDefinition/Observation-resultslab-eu-lab"
          ]
        },
        "performer": [
          {
            "display": "The Central European Lab"
          }
        ],
        "category": [
          {
            "coding": [
              {
                "system": "http://terminology.hl7.org/CodeSystem/observation-category",
                "code": "laboratory"
              }
            ]
          }
        ],
        "code": {
          "coding": [
            {
              "code": "49765-1",
              "system": "http://loinc.org",
              "display": "Calcium [Mass/volume] in Blood"
            }
          ],
          "text": "Calcium [Mass/volume] in Blood"
        },
        "valueQuantity": {
          "system": "http://unitsofmeasure.org",
          "value": 8.8,
          "unit": "mg/dL",
          "code": "mg/dL"
        },
        "referenceRange": [
          {
            "low": {
              "value": 8.5,
              "code": "mg/dL",
              "system": "http://unitsofmeasure.org"
            }
          },
          {
            "high": {
              "value": 10.5,
              "code": "mg/dL",
              "system": "http://unitsofmeasure.org"
            }
          }
        ],
        "text": {
          "status": "generated",
          "div": "<div xmlns=\"http://www.w3.org/1999/xhtml\"><table class=\"hl7__eu__lab__report\"><tr><th>Test</th><th>12-Apr-2024</th><th>Reference&#xA0;Range</th><th>Unit</th></tr><tr><td>Calcium [Mass/volume] in Blood</td><td>8.8</td><td>8.5 - 10.5</td><td></td><td>mg/dL</td></tr></table></div>"
        },
        "status": "final",
        "subject": {
          "reference": "urn:uuid:dcba9565-6c75-4640-a524-dbe1ba30a75a",
          "display": "Bethany Begum"
        },
        "effectiveDateTime": "2024-04-12T11:40:40Z",
        "specimen": {
          "reference": "urn:uuid:400824b5-3397-4221-aed0-d73394458a8b"
        }
      }
    },
    {
      "fullUrl": "urn:uuid:2676428d-3e57-4de8-8a42-d249d92b8e9d",
      "resource": {
        "resourceType": "Observation",
        "id": "2676428d-3e57-4de8-8a42-d249d92b8e9d",
        "meta": {
          "profile": [
            "http://hl7.eu/fhir/laboratory/StructureDefinition/Observation-resultslab-eu-lab"
          ]
        },
        "performer": [
          {
            "display": "The Central European Lab"
          }
        ],
        "category": [
          {
            "coding": [
              {
                "system": "http://terminology.hl7.org/CodeSystem/observation-category",
                "code": "laboratory"
              }
            ]
          }
        ],
        "code": {
          "coding": [
            {
              "code": "2947-0",
              "system": "http://loinc.org",
              "display": "Sodium [Moles/volume] in Blood"
            }
          ],
          "text": "Sodium [Moles/volume] in Blood"
        },
        "valueQuantity": {
          "system": "http://unitsofmeasure.org",
          "value": 142,
          "unit": "mmol/L",
          "code": "mmol/L"
        },
        "referenceRange": [
          {
            "low": {
              "value": 135,
              "code": "mmol/L",
              "system": "http://unitsofmeasure.org"
            }
          },
          {
            "high": {
              "value": 145,
              "code": "mmol/L",
              "system": "http://unitsofmeasure.org"
            }
          }
        ],
        "text": {
          "status": "generated",
          "div": "<div xmlns=\"http://www.w3.org/1999/xhtml\"><table class=\"hl7__eu__lab__report\"><tr><th>Test</th><th>12-Apr-2024</th><th>Reference&#xA0;Range</th><th>Unit</th></tr><tr><td>Sodium [Moles/volume] in Blood</td><td>142.0</td><td>135 - 145</td><td></td><td>mmol/L</td></tr></table></div>"
        },
        "status": "final",
        "subject": {
          "reference": "urn:uuid:dcba9565-6c75-4640-a524-dbe1ba30a75a",
          "display": "Bethany Begum"
        },
        "effectiveDateTime": "2024-04-12T11:40:40Z",
        "specimen": {
          "reference": "urn:uuid:400824b5-3397-4221-aed0-d73394458a8b"
        }
      }
    },
    {
      "fullUrl": "urn:uuid:225629df-206a-42ea-b1de-58594f6a4ed8",
      "resource": {
        "resourceType": "Observation",
        "id": "225629df-206a-42ea-b1de-58594f6a4ed8",
        "meta": {
          "profile": [
            "http://hl7.eu/fhir/laboratory/StructureDefinition/Observation-resultslab-eu-lab"
          ]
        },
        "performer": [
          {
            "display": "The Central European Lab"
          }
        ],
        "category": [
          {
            "coding": [
              {
                "system": "http://terminology.hl7.org/CodeSystem/observation-category",
                "code": "laboratory"
              }
            ]
          }
        ],
        "code": {
          "coding": [
            {
              "code": "6298-4",
              "system": "http://loinc.org",
              "display": "Potassium [Moles/volume] in Blood"
            }
          ],
          "text": "Potassium [Moles/volume] in Blood"
        },
        "valueQuantity": {
          "system": "http://unitsofmeasure.org",
          "value": 4.7,
          "unit": "mmol/L",
          "code": "mmol/L"
        },
        "referenceRange": [
          {
            "low": {
              "value": 3.5,
              "code": "mmol/L",
              "system": "http://unitsofmeasure.org"
            }
          },
          {
            "high": {
              "value": 5.1,
              "code": "mmol/L",
              "system": "http://unitsofmeasure.org"
            }
          }
        ],
        "text": {
          "status": "generated",
          "div": "<div xmlns=\"http://www.w3.org/1999/xhtml\"><table class=\"hl7__eu__lab__report\"><tr><th>Test</th><th>12-Apr-2024</th><th>Reference&#xA0;Range</th><th>Unit</th></tr><tr><td>Potassium [Moles/volume] in Blood</td><td>4.7</td><td>3.5 - 5.1</td><td></td><td>mmol/L</td></tr></table></div>"
        },
        "status": "final",
        "subject": {
          "reference": "urn:uuid:dcba9565-6c75-4640-a524-dbe1ba30a75a",
          "display": "Bethany Begum"
        },
        "effectiveDateTime": "2024-04-12T11:40:40Z",
        "specimen": {
          "reference": "urn:uuid:400824b5-3397-4221-aed0-d73394458a8b"
        }
      }
    },
    {
      "fullUrl": "urn:uuid:597e0311-f745-4219-88c8-a7937ee8c066",
      "resource": {
        "resourceType": "Observation",
        "id": "597e0311-f745-4219-88c8-a7937ee8c066",
        "meta": {
          "profile": [
            "http://hl7.eu/fhir/laboratory/StructureDefinition/Observation-resultslab-eu-lab"
          ]
        },
        "performer": [
          {
            "display": "The Central European Lab"
          }
        ],
        "category": [
          {
            "coding": [
              {
                "system": "http://terminology.hl7.org/CodeSystem/observation-category",
                "code": "laboratory"
              }
            ]
          }
        ],
        "code": {
          "coding": [
            {
              "code": "2069-3",
              "system": "http://loinc.org",
              "display": "Chloride [Moles/volume] in Blood"
            }
          ],
          "text": "Chloride [Moles/volume] in Blood"
        },
        "valueQuantity": {
          "system": "http://unitsofmeasure.org",
          "value": 101.7,
          "unit": "mmol/L",
          "code": "mmol/L"
        },
        "referenceRange": [
          {
            "low": {
              "value": 98,
              "code": "mmol/L",
              "system": "http://unitsofmeasure.org"
            }
          },
          {
            "high": {
              "value": 108,
              "code": "mmol/L",
              "system": "http://unitsofmeasure.org"
            }
          }
        ],
        "text": {
          "status": "generated",
          "div": "<div xmlns=\"http://www.w3.org/1999/xhtml\"><table class=\"hl7__eu__lab__report\"><tr><th>Test</th><th>12-Apr-2024</th><th>Reference&#xA0;Range</th><th>Unit</th></tr><tr><td>Chloride [Moles/volume] in Blood</td><td>101.7</td><td>98 - 108</td><td></td><td>mmol/L</td></tr></table></div>"
        },
        "status": "final",
        "subject": {
          "reference": "urn:uuid:dcba9565-6c75-4640-a524-dbe1ba30a75a",
          "display": "Bethany Begum"
        },
        "effectiveDateTime": "2024-04-12T11:40:40Z",
        "specimen": {
          "reference": "urn:uuid:400824b5-3397-4221-aed0-d73394458a8b"
        }
      }
    },
    {
      "fullUrl": "urn:uuid:1b5caec0-0531-43b9-b20a-635c07e7d9a9",
      "resource": {
        "resourceType": "Observation",
        "id": "1b5caec0-0531-43b9-b20a-635c07e7d9a9",
        "meta": {
          "profile": [
            "http://hl7.eu/fhir/laboratory/StructureDefinition/Observation-resultslab-eu-lab"
          ]
        },
        "performer": [
          {
            "display": "The Central European Lab"
          }
        ],
        "category": [
          {
            "coding": [
              {
                "system": "http://terminology.hl7.org/CodeSystem/observation-category",
                "code": "laboratory"
              }
            ]
          }
        ],
        "code": {
          "coding": [
            {
              "code": "20565-8",
              "system": "http://loinc.org",
              "display": "Carbon dioxide, total [Moles/volume] in Blood"
            }
          ],
          "text": "Carbon dioxide, total [Moles/volume] in Blood"
        },
        "valueQuantity": {
          "system": "http://unitsofmeasure.org",
          "value": 26.6,
          "unit": "mmol/L",
          "code": "mmol/L"
        },
        "referenceRange": [
          {
            "low": {
              "value": 22,
              "code": "mmol/L",
              "system": "http://unitsofmeasure.org"
            }
          },
          {
            "high": {
              "value": 29,
              "code": "mmol/L",
              "system": "http://unitsofmeasure.org"
            }
          }
        ],
        "text": {
          "status": "generated",
          "div": "<div xmlns=\"http://www.w3.org/1999/xhtml\"><table class=\"hl7__eu__lab__report\"><tr><th>Test</th><th>12-Apr-2024</th><th>Reference&#xA0;Range</th><th>Unit</th></tr><tr><td>Carbon dioxide, total [Moles/volume] in Blood</td><td>26.6</td><td>22 - 29</td><td></td><td>mmol/L</td></tr></table></div>"
        },
        "status": "final",
        "subject": {
          "reference": "urn:uuid:dcba9565-6c75-4640-a524-dbe1ba30a75a",
          "display": "Bethany Begum"
        },
        "effectiveDateTime": "2024-04-12T11:40:40Z",
        "specimen": {
          "reference": "urn:uuid:400824b5-3397-4221-aed0-d73394458a8b"
        }
      }
    },
    {
      "fullUrl": "urn:uuid:0cefef19-f96e-45a0-b1b4-6759e9db5fc2",
      "resource": {
        "resourceType": "Device",
        "id": "0cefef19-f96e-45a0-b1b4-6759e9db5fc2",
        "deviceName": [
          {
            "name": "SYNDERAI Synthetic Generator",
            "type": "manufacturer-name"
          }
        ],
        "version": [
          {
            "value": "5.0"
          }
        ],
        "text": {
          "status": "generated",
          "div": "<div xmlns=\"http://www.w3.org/1999/xhtml\">SYNDERAI Synthetic Generator v5.0</div>"
        },
        "status": "active\"",
        "distinctIdentifier": "synderai-generator-50",
        "manufacturer": "SYNDERAI Project"
      }
    },
    {
      "fullUrl": "urn:uuid:3f022f7b-8bff-4c36-bc14-0b2cd4a05cb5",
      "resource": {
        "resourceType": "Provenance",
        "id": "3f022f7b-8bff-4c36-bc14-0b2cd4a05cb5",
        "target": [
          {
            "reference": "Patient/dcba9565-6c75-4640-a524-dbe1ba30a75a"
          },
          {
            "reference": "Bundle/641741f0-eaa2-47bc-830e-e4d7a6b21353"
          },
          {
            "reference": "Composition/5f68cff0-f61c-4202-979d-afd1d5e5b7dd"
          },
          {
            "reference": "PractitionerRole/1ad41593-0a87-4ac9-b35e-0bbbb89418da"
          },
          {
            "reference": "Practitioner/5c6d2679-244b-482c-8313-2083f61f56ce"
          },
          {
            "reference": "PractitionerRole/0e0a62b8-58d5-4168-8cbe-7a6eeec8db3f"
          },
          {
            "reference": "Organization/7e3f39fe-b4c7-49ae-8552-2a076d303c67"
          }
        ],
        "activity": {
          "text": "Synthetic Example Data Generation"
        },
        "policy": [
          "https://synderai.net/synderai-synthetic-data-policy"
        ],
        "agent": [
          {
            "type": {
              "text": "author"
            },
            "who": {
              "reference": "Device/0cefef19-f96e-45a0-b1b4-6759e9db5fc2"
            }
          }
        ],
        "reason": [
          {
            "text": "Interoperability Testing and Training (non-clinical use)"
          }
        ],
        "text": {
          "status": "generated",
          "div": "<div xmlns=\"http://www.w3.org/1999/xhtml\">Provenance for SYNDERAI Synthetic Example Data Resource</div>"
        },
        "recorded": "2024-04-12T13:40:40Z"
      }
    },
    {
      "fullUrl": "urn:uuid:1ad41593-0a87-4ac9-b35e-0bbbb89418da",
      "resource": {
        "resourceType": "PractitionerRole",
        "id": "1ad41593-0a87-4ac9-b35e-0bbbb89418da",
        "meta": {
          "profile": [
            "http://hl7.eu/fhir/base/StructureDefinition/practitionerRole-eu"
          ]
        },
        "text": {
          "status": "generated",
          "div": "<div xmlns=\"http://www.w3.org/1999/xhtml\">Laboratory Role Id: 1ad41593-0a87-4ac9-b35e-0bbbb89418da</div>"
        },
        "practitioner": {
          "reference": "urn:uuid:5c6d2679-244b-482c-8313-2083f61f56ce"
        }
      }
    },
    {
      "fullUrl": "urn:uuid:5c6d2679-244b-482c-8313-2083f61f56ce",
      "resource": {
        "resourceType": "Practitioner",
        "id": "5c6d2679-244b-482c-8313-2083f61f56ce",
        "meta": {
          "profile": [
            "http://hl7.eu/fhir/base/StructureDefinition/practitioner-eu"
          ]
        },
        "identifier": [
          {
            "assigner": {
              "display": "HL7 Europe"
            },
            "system": "urn:oid:2.16.840.1.113883.2.51.999",
            "value": "96f4a84b-9819-4877-8197-dba9a52a32d5"
          }
        ],
        "name": [
          {
            "prefix": [
              "dr"
            ],
            "given": [
              "Ex"
            ],
            "family": "Ample"
          }
        ],
        "address": [
          {
            "line": [
              "Laboratoire Central Europenne",
              "Boulevard du Jardin Botanique 32"
            ],
            "postalCode": "1000",
            "city": "Brussels",
            "country": "Belgium"
          }
        ],
        "text": {
          "status": "generated",
          "div": "<div xmlns=\"http://www.w3.org/1999/xhtml\">Laboratory: Laboratoire Central Europenne, 1000 Brussels, Belgium</div>"
        }
      }
    }
  ],
  "type": "document",
  "timestamp": "2024-04-12T13:40:40Z"
}
