{
  "resourceType": "Bundle",
  "id": "b9d6d334-c27f-484b-aea2-f7269013b491",
  "meta": {
    "profile": [
      "http://hl7.eu/fhir/laboratory/StructureDefinition/Bundle-eu-lab"
    ]
  },
  "identifier": {
    "assigner": {
      "display": "HL7 Europe"
    },
    "system": "urn:oid:2.16.840.1.113883.2.51.999",
    "value": "4a130bb5-8a10-473e-97e0-c0dfc3962c3c"
  },
  "entry": [
    {
      "fullUrl": "urn:uuid:a9023678-95a4-4ebb-bb30-15432d5dc0c4",
      "resource": {
        "resourceType": "Composition",
        "id": "a9023678-95a4-4ebb-bb30-15432d5dc0c4",
        "meta": {
          "profile": [
            "http://hl7.eu/fhir/laboratory/StructureDefinition/Composition-eu-lab"
          ]
        },
        "identifier": {
          "assigner": {
            "display": "HL7 Europe"
          },
          "system": "urn:oid:2.16.840.1.113883.2.51.999",
          "value": "55c09d5e-004d-4849-ae18-9126e889fa94"
        },
        "author": [
          {
            "reference": "urn:uuid:b337fed1-33f2-4b4c-85a9-6ad244bb91bf"
          }
        ],
        "category": [
          {
            "coding": [
              {
                "code": "26436-6",
                "system": "http://loinc.org",
                "display": "Laboratory studies (set)"
              }
            ]
          }
        ],
        "type": {
          "coding": [
            {
              "code": "11502-2",
              "system": "http://loinc.org",
              "display": "Laboratory report"
            }
          ],
          "text": "Laboratory Report"
        },
        "section": [
          {
            "code": {
              "coding": [
                {
                  "code": "26436-6",
                  "system": "http://loinc.org",
                  "display": "Laboratory studies (set)"
                }
              ],
              "text": "Laboratory studies"
            },
            "section": [
              {
                "code": {
                  "coding": [
                    {
                      "code": "$18719-5",
                      "system": "http://loinc.org",
                      "display": "Chemistry studies (set)"
                    }
                  ],
                  "text": "Chemistry"
                },
                "entry": [
                  {
                    "reference": "urn:uuid:697925c2-6f4c-4238-bf5a-7c024f5b2582"
                  },
                  {
                    "reference": "urn:uuid:330609fb-ba8a-4f80-aaa2-8748a3eadcd0"
                  },
                  {
                    "reference": "urn:uuid:211c2c76-4311-4622-b8b9-781507c57e79"
                  },
                  {
                    "reference": "urn:uuid:a31a810a-a56d-4967-b41f-ee5966b34e41"
                  },
                  {
                    "reference": "urn:uuid:5640ef4b-4376-493d-af5c-0ea92adf5426"
                  },
                  {
                    "reference": "urn:uuid:69cea4b0-081a-417b-84ad-82f9b8a88b65"
                  },
                  {
                    "reference": "urn:uuid:4a3d43e3-5460-4d9b-9f3c-cbd581f6214e"
                  },
                  {
                    "reference": "urn:uuid:955176d6-278f-4508-93e7-6344549a44eb"
                  },
                  {
                    "reference": "urn:uuid:aa653139-ea9b-4e25-8245-22d927d13984"
                  },
                  {
                    "reference": "urn:uuid:30f8af5b-368b-44b1-96d6-c44d09b4dba2"
                  }
                ],
                "text": {
                  "status": "generated",
                  "div": "<div xmlns=\"http://www.w3.org/1999/xhtml\"><h3>Chemistry</h3><table class=\"hl7__eu__lab__report\"><thead><tr><th>Test</th><th>15-FEB-2017</th><th>Reference&#xA0;Range</th><th>Unit</th></tr></thead><tbody><tr><td>Glucose [Mass/volume] in Serum or Plasma</td><td>94.6</td><td>70 - 140</td><td>mg/dL</td></tr><tr><td>Urea nitrogen [Mass/volume] in Serum or Plasma</td><td>19.5</td><td>7 - 20</td><td>mg/dL</td></tr><tr><td>Creatinine [Mass/volume] in Serum or Plasma</td><td><strong>2.4 H</strong></td><td>0.6 - 1.3</td><td>mg/dL</td></tr><tr><td>Calcium [Mass/volume] in Serum or Plasma</td><td>9.2</td><td>8.6 - 10.4</td><td>mg/dL</td></tr><tr><td>Sodium [Moles/volume] in Serum or Plasma</td><td>138.1</td><td>135 - 145</td><td>mmol/L</td></tr><tr><td>Potassium [Moles/volume] in Serum or Plasma</td><td><strong>5.2 H</strong></td><td>3.5 - 5.1</td><td>mmol/L</td></tr><tr><td>Chloride [Moles/volume] in Serum or Plasma</td><td>101.6</td><td>98 - 108</td><td>mmol/L</td></tr><tr><td>Carbon dioxide, total [Moles/volume] in Serum or Plasma</td><td>24.3</td><td>22 - 32</td><td>mmol/L</td></tr><tr><td>Ketones [Presence] in Urine by Test strip</td><td>Urine ketone test = +++</td><td></td><td></td></tr><tr><td>Hemoglobin A1c/Hemoglobin.total in Blood</td><td><strong>2.9 L</strong></td><td>4.5 - 6.4</td><td>%</td></tr></tbody></table></div>"
                },
                "title": "Chemistry"
              },
              {
                "code": {
                  "coding": [
                    {
                      "code": "$18729-4",
                      "system": "http://loinc.org",
                      "display": "Urinalysis studies (set)"
                    }
                  ],
                  "text": "Urinalysis"
                },
                "entry": [
                  {
                    "reference": "urn:uuid:2cfe5a4e-d9ea-4fd6-8f23-55606c436b31"
                  },
                  {
                    "reference": "urn:uuid:7ed827c5-6712-4595-b38e-8b0f8cf2f05d"
                  },
                  {
                    "reference": "urn:uuid:47c518f7-0859-4bf7-84e9-623467a59ba1"
                  },
                  {
                    "reference": "urn:uuid:a72b2ff6-3eca-4b9e-ab6e-cc3b2c11a250"
                  },
                  {
                    "reference": "urn:uuid:4835f69f-0554-4fe9-9828-116b29f13543"
                  },
                  {
                    "reference": "urn:uuid:a7b518e6-8b5c-4226-be23-e68928cb9564"
                  },
                  {
                    "reference": "urn:uuid:c529a858-5dc2-43b1-a991-1a200eb2cc0a"
                  },
                  {
                    "reference": "urn:uuid:04a4048e-36dc-4674-89d5-2c2d2cc64841"
                  },
                  {
                    "reference": "urn:uuid:450249b4-892b-4300-86d2-677dcb668695"
                  },
                  {
                    "reference": "urn:uuid:ce2a7b1c-48f2-4c66-bc50-c5f9a1996872"
                  },
                  {
                    "reference": "urn:uuid:f3941c22-db39-4fb5-bf0c-ac5e26724339"
                  },
                  {
                    "reference": "urn:uuid:17f4d75d-4029-4a46-8d13-e0c1f0f266a0"
                  }
                ],
                "text": {
                  "status": "generated",
                  "div": "<div xmlns=\"http://www.w3.org/1999/xhtml\"><h3>Urinalysis</h3><table class=\"hl7__eu__lab__report\"><thead><tr><th>Test</th><th>15-FEB-2017</th><th>Reference&#xA0;Range</th><th>Unit</th></tr></thead><tbody><tr><td>Glucose [Mass/volume] in Urine by Test strip</td><td><strong>2.0 H</strong></td><td>0.8 - 0</td><td>mg/dL</td></tr><tr><td>Glucose [Presence] in Urine by Test strip</td><td>++</td><td></td><td></td></tr><tr><td>Bilirubin.total [Mass/volume] in Urine by Test strip</td><td>1.0</td><td>0 - 1.5</td><td>mg/dL</td></tr><tr><td>Bilirubin.total [Presence] in Urine by Test strip</td><td>Finding of bilirubin in urine</td><td></td><td></td></tr><tr><td>Ketones [Mass/volume] in Urine by Test strip</td><td><strong>19.5 H</strong></td><td>0 - 8</td><td>mg/dL</td></tr><tr><td>Specific gravity of Urine by Test strip</td><td><strong>1.0 L</strong></td><td>1.01 - 1.03</td><td>{nominal}</td></tr><tr><td>pH of Urine by Test strip</td><td>5.1</td><td>4.6 - 7.5</td><td>pH</td></tr><tr><td>Protein [Mass/volume] in Urine by Test strip</td><td><strong>266.7 H</strong></td><td>0 - 14</td><td>mg/dL</td></tr><tr><td>Protein [Presence] in Urine by Test strip</td><td>Urine protein test = +++</td><td></td><td></td></tr><tr><td>Nitrite [Presence] in Urine by Test strip</td><td>Urine nitrite negative</td><td></td><td></td></tr><tr><td>Hemoglobin [Presence] in Urine by Test strip</td><td>Urine blood test = negative</td><td></td><td></td></tr><tr><td>Leukocyte esterase [Presence] in Urine by Test strip</td><td>Urine leukocyte test negative</td><td></td><td></td></tr></tbody></table></div>"
                },
                "title": "Urinalysis"
              },
              {
                "code": {
                  "coding": [
                    {
                      "code": "$LP7846-1",
                      "system": "http://loinc.org",
                      "display": "Specimen information"
                    }
                  ],
                  "text": "Specimen information"
                },
                "entry": [
                  {
                    "reference": "urn:uuid:97839cc6-bcf1-4673-b1fa-8469eeeac9a8"
                  },
                  {
                    "reference": "urn:uuid:113433ea-0975-42ee-a98a-beb1cc000523"
                  },
                  {
                    "reference": "urn:uuid:eb0dd67c-572d-4aa4-81a8-1327d6ff0d0c"
                  },
                  {
                    "reference": "urn:uuid:ba1b483e-900f-43b8-85b1-294edfd496ae"
                  }
                ],
                "text": {
                  "status": "generated",
                  "div": "<div xmlns=\"http://www.w3.org/1999/xhtml\"><h3>Specimen information</h3><table class=\"hl7__eu__lab__report\"><thead><tr><th>Test</th><th>15-FEB-2017</th><th>Specimen</th><th></th></tr></thead><tbody><tr><td>Appearance of Urine</td><td>Cloudy urine</td><td>Urine</td><td></td></tr><tr><td>Odor of Urine</td><td>Urine smell ammoniacal</td><td>Urine</td><td></td></tr><tr><td>Clarity of Urine</td><td>Translucent</td><td>Urine</td><td></td></tr><tr><td>Color of Urine</td><td>Brown color</td><td>Urine</td><td></td></tr></tbody></table></div>"
                },
                "title": "Specimen information"
              }
            ],
            "title": "Laboratory Report"
          },
          {
            "text": {
              "status": "generated",
              "div": "<div xmlns=\"http://www.w3.org/1999/xhtml\"><h3>Annotation</h3><table class=\"hl7__eu__lab__report\"><tr><th>Conclusion and Recommendations based on this report and previous findings known to us</th></tr><tr><td>The patient shows elevated serum creatinine and potassium, indicating impaired renal function. Urinalysis reveals significant proteinuria, glucosuria, ketonuria, low specific gravity, and abnormal urine appearance, suggesting nephrotic-range protein loss and possible tubular dysfunction. Hemoglobin A1c is low, possibly due to anemia or recent changes in glycemic control. Findings are consistent with acute or chronic kidney disease with possible nephrotic syndrome; clinical correlation and further nephrological evaluation are recommended.</td></tr></table></div>"
            },
            "code": {
              "coding": [
                {
                  "system": "http://loinc.org",
                  "code": "48767-8",
                  "display": "Annotation comment"
                }
              ]
            },
            "title": "Annotation comment"
          }
        ],
        "status": "final",
        "subject": {
          "reference": "urn:uuid:f7bc4af9-b397-4847-9836-ac2f60581323",
          "display": "Maria Nohlmans"
        },
        "date": "2017-02-15T12:02:39Z",
        "title": "Laboratory Report",
        "confidentiality": "N"
      }
    },
    {
      "fullUrl": "urn:uuid:efec6816-8d7c-45df-b699-0a2a78f73394",
      "resource": {
        "resourceType": "DiagnosticReport",
        "id": "efec6816-8d7c-45df-b699-0a2a78f73394",
        "meta": {
          "profile": [
            "http://hl7.eu/fhir/laboratory/StructureDefinition/DiagnosticReport-eu-lab"
          ]
        },
        "identifier": [
          {
            "assigner": {
              "display": "HL7 Europe"
            },
            "system": "urn:oid:2.16.840.1.113883.2.51.999",
            "value": "3187f639-ff55-44a3-955c-87cf48b0b027"
          }
        ],
        "extension": [
          {
            "url": "http://hl7.org/fhir/5.0/StructureDefinition/extension-DiagnosticReport.composition",
            "valueReference": {
              "reference": "urn:uuid:55c09d5e-004d-4849-ae18-9126e889fa94"
            }
          }
        ],
        "category": [
          {
            "coding": [
              {
                "code": "26436-6",
                "system": "http://loinc.org",
                "display": "Laboratory studies (set)"
              }
            ]
          }
        ],
        "specimen": [
          {
            "reference": "urn:uuid:87ee84a9-2000-4722-a475-469909140ef1"
          },
          {
            "reference": "urn:uuid:9b886564-b9f8-4e5c-ab54-afbf39dc3b02"
          },
          {
            "reference": "urn:uuid:c0b79a71-051b-47e1-b00d-5f27b447bd1b"
          }
        ],
        "result": [
          {
            "reference": "urn:uuid:697925c2-6f4c-4238-bf5a-7c024f5b2582"
          },
          {
            "reference": "urn:uuid:330609fb-ba8a-4f80-aaa2-8748a3eadcd0"
          },
          {
            "reference": "urn:uuid:211c2c76-4311-4622-b8b9-781507c57e79"
          },
          {
            "reference": "urn:uuid:a31a810a-a56d-4967-b41f-ee5966b34e41"
          },
          {
            "reference": "urn:uuid:5640ef4b-4376-493d-af5c-0ea92adf5426"
          },
          {
            "reference": "urn:uuid:69cea4b0-081a-417b-84ad-82f9b8a88b65"
          },
          {
            "reference": "urn:uuid:4a3d43e3-5460-4d9b-9f3c-cbd581f6214e"
          },
          {
            "reference": "urn:uuid:955176d6-278f-4508-93e7-6344549a44eb"
          },
          {
            "reference": "urn:uuid:97839cc6-bcf1-4673-b1fa-8469eeeac9a8"
          },
          {
            "reference": "urn:uuid:113433ea-0975-42ee-a98a-beb1cc000523"
          },
          {
            "reference": "urn:uuid:eb0dd67c-572d-4aa4-81a8-1327d6ff0d0c"
          },
          {
            "reference": "urn:uuid:ba1b483e-900f-43b8-85b1-294edfd496ae"
          },
          {
            "reference": "urn:uuid:2cfe5a4e-d9ea-4fd6-8f23-55606c436b31"
          },
          {
            "reference": "urn:uuid:7ed827c5-6712-4595-b38e-8b0f8cf2f05d"
          },
          {
            "reference": "urn:uuid:47c518f7-0859-4bf7-84e9-623467a59ba1"
          },
          {
            "reference": "urn:uuid:a72b2ff6-3eca-4b9e-ab6e-cc3b2c11a250"
          },
          {
            "reference": "urn:uuid:4835f69f-0554-4fe9-9828-116b29f13543"
          },
          {
            "reference": "urn:uuid:aa653139-ea9b-4e25-8245-22d927d13984"
          },
          {
            "reference": "urn:uuid:a7b518e6-8b5c-4226-be23-e68928cb9564"
          },
          {
            "reference": "urn:uuid:c529a858-5dc2-43b1-a991-1a200eb2cc0a"
          },
          {
            "reference": "urn:uuid:04a4048e-36dc-4674-89d5-2c2d2cc64841"
          },
          {
            "reference": "urn:uuid:450249b4-892b-4300-86d2-677dcb668695"
          },
          {
            "reference": "urn:uuid:ce2a7b1c-48f2-4c66-bc50-c5f9a1996872"
          },
          {
            "reference": "urn:uuid:f3941c22-db39-4fb5-bf0c-ac5e26724339"
          },
          {
            "reference": "urn:uuid:17f4d75d-4029-4a46-8d13-e0c1f0f266a0"
          },
          {
            "reference": "urn:uuid:30f8af5b-368b-44b1-96d6-c44d09b4dba2"
          }
        ],
        "status": "registered",
        "code": {
          "coding": [
            {
              "code": "11502-2",
              "system": "http://loinc.org",
              "display": "Laboratory report"
            }
          ]
        },
        "subject": {
          "reference": "urn:uuid:f7bc4af9-b397-4847-9836-ac2f60581323",
          "display": "Maria Nohlmans"
        }
      }
    },
    {
      "fullUrl": "urn:uuid:f7bc4af9-b397-4847-9836-ac2f60581323",
      "resource": {
        "resourceType": "Patient",
        "id": "f7bc4af9-b397-4847-9836-ac2f60581323",
        "meta": {
          "security": [
            {
              "system": "http://terminology.hl7.org/CodeSystem/v3-ActReason",
              "code": "HTEST"
            },
            {
              "system": "http://terminology.hl7.org/CodeSystem/v3-ActReason",
              "code": "TRAIN"
            }
          ],
          "tag": [
            {
              "system": "https://synderai.net/fhir/CodeSystem/tags",
              "code": "synthetic",
              "display": "SYNDERAI Synthetic data"
            }
          ],
          "profile": [
            "http://hl7.eu/fhir/base/StructureDefinition/patient-eu-core"
          ]
        },
        "identifier": [
          {
            "type": {
              "coding": [
                {
                  "code": "PT",
                  "system": "http://terminology.hl7.org/CodeSystem/v2-0203"
                }
              ]
            },
            "system": "http://ec.europa.eu/identifier/eci",
            "value": "6886-506417-1"
          },
          {
            "type": {
              "coding": [
                {
                  "code": "MR",
                  "system": "http://terminology.hl7.org/CodeSystem/v2-0203"
                }
              ]
            },
            "system": "http://local.setting.eu/identifier",
            "value": "2cb21ed6-b617-b1f3-2290-589a710de5ee"
          }
        ],
        "name": [
          {
            "family": "Nohlmans"
          },
          {
            "given": [
              "Maria"
            ]
          },
          {
            "text": "Maria Nohlmans"
          }
        ],
        "address": [
          {
            "line": [
              "Alfons-Wulff-Weg 1"
            ],
            "use": "home",
            "type": "physical",
            "postalCode": "25813",
            "city": "Husum",
            "country": "Germany"
          }
        ],
        "telecom": [
          {
            "system": "phone",
            "value": "+49(0)1911 105501"
          }
        ],
        "extension": [
          {
            "url": "http://hl7.org/fhir/StructureDefinition/patient-nationality",
            "valueCodeableConcept": {
              "coding": [
                {
                  "code": "DE",
                  "system": "http://hl7.org/fhir/ValueSet/country"
                }
              ]
            }
          }
        ],
        "text": {
          "status": "generated",
          "div": "<div xmlns=\"http://www.w3.org/1999/xhtml\"><table class=\"hl7__ips\"><tr><td>Maria Nohlmans</td><td>female</td><td>11-Jun-1947</td></tr></table></div>"
        },
        "gender": "female",
        "birthDate": "1947-06-11"
      }
    },
    {
      "fullUrl": "urn:uuid:80ad60fc-6b60-424c-bd58-17539f1e7df5",
      "resource": {
        "resourceType": "ServiceRequest",
        "id": "80ad60fc-6b60-424c-bd58-17539f1e7df5",
        "meta": {
          "profile": [
            "http://hl7.eu/fhir/laboratory/StructureDefinition/ServiceRequest-eu-lab"
          ]
        },
        "identifier": [
          {
            "system": "http://example.org",
            "value": "384616d4-0420-4e3f-a5f5-ad809bb9859b"
          }
        ],
        "specimen": [
          {
            "reference": "urn:uuid:87ee84a9-2000-4722-a475-469909140ef1"
          },
          {
            "reference": "urn:uuid:9b886564-b9f8-4e5c-ab54-afbf39dc3b02"
          },
          {
            "reference": "urn:uuid:c0b79a71-051b-47e1-b00d-5f27b447bd1b"
          }
        ],
        "reasonCode": [
          {
            "coding": [
              {
                "code": "401314000",
                "system": "http://snomed.info/sct",
                "display": "Acute non-ST segment elevation myocardial infarction"
              }
            ]
          },
          {
            "coding": [
              {
                "code": "157141000119108",
                "system": "http://snomed.info/sct",
                "display": "Proteinuria due to type 2 diabetes mellitus"
              }
            ]
          },
          {
            "coding": [
              {
                "code": "237602007",
                "system": "http://snomed.info/sct",
                "display": "Metabolic syndrome X"
              }
            ]
          },
          {
            "coding": [
              {
                "code": "90781000119102",
                "system": "http://snomed.info/sct",
                "display": "Microalbuminuria due to type 2 diabetes mellitus"
              }
            ]
          },
          {
            "coding": [
              {
                "code": "127013003",
                "system": "http://snomed.info/sct",
                "display": "Disorder of kidney due to diabetes mellitus"
              }
            ]
          },
          {
            "coding": [
              {
                "code": "59621000",
                "system": "http://snomed.info/sct",
                "display": "Essential hypertension"
              }
            ]
          },
          {
            "coding": [
              {
                "code": "271737000",
                "system": "http://snomed.info/sct",
                "display": "Anemia"
              }
            ]
          },
          {
            "coding": [
              {
                "code": "15777000",
                "system": "http://snomed.info/sct",
                "display": "Prediabetes"
              }
            ]
          }
        ],
        "status": "active",
        "intent": "order",
        "code": {
          "coding": [
            {
              "code": "108252007",
              "system": "http://snomed.info/sct",
              "display": "Laboratory procedure"
            }
          ]
        },
        "subject": {
          "reference": "urn:uuid:f7bc4af9-b397-4847-9836-ac2f60581323",
          "display": "Maria Nohlmans"
        },
        "requester": {
          "reference": "urn:uuid:4a3386ca-c52c-439b-a10f-5552998ea01d"
        }
      }
    },
    {
      "fullUrl": "urn:uuid:4a3386ca-c52c-439b-a10f-5552998ea01d",
      "resource": {
        "resourceType": "PractitionerRole",
        "id": "4a3386ca-c52c-439b-a10f-5552998ea01d",
        "meta": {
          "profile": [
            "http://hl7.eu/fhir/base/StructureDefinition/practitionerRole-eu"
          ]
        },
        "text": {
          "status": "generated",
          "div": "<div xmlns=\"http://www.w3.org/1999/xhtml\">Provider Role Id: 4a3386ca-c52c-439b-a10f-5552998ea01d</div>"
        },
        "organization": {
          "reference": "urn:uuid:c0a0952a-a5c3-475f-9bfa-cf89b1b9f93f"
        }
      }
    },
    {
      "fullUrl": "urn:uuid:c0a0952a-a5c3-475f-9bfa-cf89b1b9f93f",
      "resource": {
        "resourceType": "Organization",
        "id": "c0a0952a-a5c3-475f-9bfa-cf89b1b9f93f",
        "meta": {
          "profile": [
            "http://hl7.eu/fhir/base/StructureDefinition/organization-eu"
          ]
        },
        "identifier": [
          {
            "assigner": {
              "display": "HL7 Europe"
            },
            "system": "urn:oid:2.16.840.1.113883.2.51.999",
            "value": "30f8025a-c364-455a-b2e1-f23b13968b42"
          }
        ],
        "address": [
          {
            "line": [
              "Brinckmannstraße 35"
            ],
            "city": "Husum",
            "postalCode": "25813",
            "country": "Germany"
          }
        ],
        "text": {
          "status": "generated",
          "div": "<div xmlns=\"http://www.w3.org/1999/xhtml\">Provider Organization: Dr. Wolfram Hussels Kieferorthopäde</div>"
        },
        "name": "Dr. Wolfram Hussels Kieferorthopäde"
      }
    },
    {
      "fullUrl": "urn:uuid:87ee84a9-2000-4722-a475-469909140ef1",
      "resource": {
        "resourceType": "Specimen",
        "id": "87ee84a9-2000-4722-a475-469909140ef1",
        "meta": {
          "profile": [
            "http://hl7.eu/fhir/laboratory/StructureDefinition/Specimen-eu-lab"
          ]
        },
        "collection": {
          "collectedDateTime": "2017-02-15"
        },
        "text": {
          "status": "generated",
          "div": "<div xmlns=\"http://www.w3.org/1999/xhtml\"><table class=\"hl7__eu__lab__report\"><tr><th>Specimen</th><th>Collection Date</th></tr><tr><td>Acellular blood (serum or plasma) specimen</td><td><span class=\"nb\">15-Feb-2017</span></td></tr></table></div>"
        },
        "type": {
          "coding": [
            {
              "code": "122592007",
              "system": "http://snomed.info/sct",
              "display": "Acellular blood (serum or plasma) specimen"
            }
          ]
        }
      }
    },
    {
      "fullUrl": "urn:uuid:9b886564-b9f8-4e5c-ab54-afbf39dc3b02",
      "resource": {
        "resourceType": "Specimen",
        "id": "9b886564-b9f8-4e5c-ab54-afbf39dc3b02",
        "meta": {
          "profile": [
            "http://hl7.eu/fhir/laboratory/StructureDefinition/Specimen-eu-lab"
          ]
        },
        "collection": {
          "collectedDateTime": "2017-02-15"
        },
        "text": {
          "status": "generated",
          "div": "<div xmlns=\"http://www.w3.org/1999/xhtml\"><table class=\"hl7__eu__lab__report\"><tr><th>Specimen</th><th>Collection Date</th></tr><tr><td>Urine specimen</td><td><span class=\"nb\">15-Feb-2017</span></td></tr></table></div>"
        },
        "type": {
          "coding": [
            {
              "code": "122575003",
              "system": "http://snomed.info/sct",
              "display": "Urine specimen"
            }
          ]
        }
      }
    },
    {
      "fullUrl": "urn:uuid:c0b79a71-051b-47e1-b00d-5f27b447bd1b",
      "resource": {
        "resourceType": "Specimen",
        "id": "c0b79a71-051b-47e1-b00d-5f27b447bd1b",
        "meta": {
          "profile": [
            "http://hl7.eu/fhir/laboratory/StructureDefinition/Specimen-eu-lab"
          ]
        },
        "collection": {
          "collectedDateTime": "2017-02-15"
        },
        "text": {
          "status": "generated",
          "div": "<div xmlns=\"http://www.w3.org/1999/xhtml\"><table class=\"hl7__eu__lab__report\"><tr><th>Specimen</th><th>Collection Date</th></tr><tr><td>Whole blood specimen (specimen)</td><td><span class=\"nb\">15-Feb-2017</span></td></tr></table></div>"
        },
        "type": {
          "coding": [
            {
              "code": "258580003",
              "system": "http://snomed.info/sct",
              "display": "Whole blood specimen (specimen)"
            }
          ]
        }
      }
    },
    {
      "fullUrl": "urn:uuid:697925c2-6f4c-4238-bf5a-7c024f5b2582",
      "resource": {
        "resourceType": "Observation",
        "id": "697925c2-6f4c-4238-bf5a-7c024f5b2582",
        "meta": {
          "profile": [
            "http://hl7.eu/fhir/laboratory/StructureDefinition/Observation-resultslab-eu-lab"
          ]
        },
        "performer": [
          {
            "display": "The Central European Lab"
          }
        ],
        "category": [
          {
            "coding": [
              {
                "system": "http://terminology.hl7.org/CodeSystem/observation-category",
                "code": "laboratory"
              }
            ]
          }
        ],
        "code": {
          "coding": [
            {
              "code": "2345-7",
              "system": "http://loinc.org",
              "display": "Glucose [Mass/volume] in Serum or Plasma"
            }
          ],
          "text": "Glucose [Mass/volume] in Serum or Plasma"
        },
        "valueQuantity": {
          "system": "http://unitsofmeasure.org",
          "value": 94.6,
          "unit": "mg/dL",
          "code": "mg/dL"
        },
        "referenceRange": [
          {
            "low": {
              "value": 70,
              "code": "mg/dL",
              "system": "http://unitsofmeasure.org"
            }
          },
          {
            "high": {
              "value": 140,
              "code": "mg/dL",
              "system": "http://unitsofmeasure.org"
            }
          }
        ],
        "text": {
          "status": "generated",
          "div": "<div xmlns=\"http://www.w3.org/1999/xhtml\"><table class=\"hl7__eu__lab__report\"><tr><th>Test</th><th>15-Feb-2017</th><th>Reference&#xA0;Range</th><th>Unit</th></tr><tr><td>Glucose [Mass/volume] in Serum or Plasma</td><td>94.6</td><td>70 - 140</td><td></td><td>mg/dL</td></tr></table></div>"
        },
        "status": "final",
        "subject": {
          "reference": "urn:uuid:f7bc4af9-b397-4847-9836-ac2f60581323",
          "display": "Maria Nohlmans"
        },
        "effectiveDateTime": "2017-02-15T11:02:39Z",
        "specimen": {
          "reference": "urn:uuid:87ee84a9-2000-4722-a475-469909140ef1"
        }
      }
    },
    {
      "fullUrl": "urn:uuid:330609fb-ba8a-4f80-aaa2-8748a3eadcd0",
      "resource": {
        "resourceType": "Observation",
        "id": "330609fb-ba8a-4f80-aaa2-8748a3eadcd0",
        "meta": {
          "profile": [
            "http://hl7.eu/fhir/laboratory/StructureDefinition/Observation-resultslab-eu-lab"
          ]
        },
        "performer": [
          {
            "display": "The Central European Lab"
          }
        ],
        "category": [
          {
            "coding": [
              {
                "system": "http://terminology.hl7.org/CodeSystem/observation-category",
                "code": "laboratory"
              }
            ]
          }
        ],
        "code": {
          "coding": [
            {
              "code": "3094-0",
              "system": "http://loinc.org",
              "display": "Urea nitrogen [Mass/volume] in Serum or Plasma"
            }
          ],
          "text": "Urea nitrogen [Mass/volume] in Serum or Plasma"
        },
        "valueQuantity": {
          "system": "http://unitsofmeasure.org",
          "value": 19.5,
          "unit": "mg/dL",
          "code": "mg/dL"
        },
        "referenceRange": [
          {
            "low": {
              "value": 7,
              "code": "mg/dL",
              "system": "http://unitsofmeasure.org"
            }
          },
          {
            "high": {
              "value": 20,
              "code": "mg/dL",
              "system": "http://unitsofmeasure.org"
            }
          }
        ],
        "text": {
          "status": "generated",
          "div": "<div xmlns=\"http://www.w3.org/1999/xhtml\"><table class=\"hl7__eu__lab__report\"><tr><th>Test</th><th>15-Feb-2017</th><th>Reference&#xA0;Range</th><th>Unit</th></tr><tr><td>Urea nitrogen [Mass/volume] in Serum or Plasma</td><td>19.5</td><td>7 - 20</td><td></td><td>mg/dL</td></tr></table></div>"
        },
        "status": "final",
        "subject": {
          "reference": "urn:uuid:f7bc4af9-b397-4847-9836-ac2f60581323",
          "display": "Maria Nohlmans"
        },
        "effectiveDateTime": "2017-02-15T11:02:39Z",
        "specimen": {
          "reference": "urn:uuid:87ee84a9-2000-4722-a475-469909140ef1"
        }
      }
    },
    {
      "fullUrl": "urn:uuid:211c2c76-4311-4622-b8b9-781507c57e79",
      "resource": {
        "resourceType": "Observation",
        "id": "211c2c76-4311-4622-b8b9-781507c57e79",
        "meta": {
          "profile": [
            "http://hl7.eu/fhir/laboratory/StructureDefinition/Observation-resultslab-eu-lab"
          ]
        },
        "performer": [
          {
            "display": "The Central European Lab"
          }
        ],
        "category": [
          {
            "coding": [
              {
                "system": "http://terminology.hl7.org/CodeSystem/observation-category",
                "code": "laboratory"
              }
            ]
          }
        ],
        "code": {
          "coding": [
            {
              "code": "2160-0",
              "system": "http://loinc.org",
              "display": "Creatinine [Mass/volume] in Serum or Plasma"
            }
          ],
          "text": "Creatinine [Mass/volume] in Serum or Plasma"
        },
        "valueQuantity": {
          "system": "http://unitsofmeasure.org",
          "value": 2.4,
          "unit": "mg/dL",
          "code": "mg/dL"
        },
        "referenceRange": [
          {
            "low": {
              "value": 0.6,
              "code": "mg/dL",
              "system": "http://unitsofmeasure.org"
            }
          },
          {
            "high": {
              "value": 1.3,
              "code": "mg/dL",
              "system": "http://unitsofmeasure.org"
            }
          }
        ],
        "interpretation": [
          {
            "coding": [
              {
                "code": "H",
                "system": "http://terminology.hl7.org/CodeSystem/v3-ObservationInterpretation",
                "display": "High"
              }
            ]
          }
        ],
        "text": {
          "status": "generated",
          "div": "<div xmlns=\"http://www.w3.org/1999/xhtml\"><table class=\"hl7__eu__lab__report\"><tr><th>Test</th><th>15-Feb-2017</th><th>Reference&#xA0;Range</th><th>Unit</th></tr><tr><td>Creatinine [Mass/volume] in Serum or Plasma</td><td>2.4</td><td>0.6 - 1.3</td><td>H</td><td>mg/dL</td></tr></table></div>"
        },
        "status": "final",
        "subject": {
          "reference": "urn:uuid:f7bc4af9-b397-4847-9836-ac2f60581323",
          "display": "Maria Nohlmans"
        },
        "effectiveDateTime": "2017-02-15T11:02:39Z",
        "specimen": {
          "reference": "urn:uuid:87ee84a9-2000-4722-a475-469909140ef1"
        }
      }
    },
    {
      "fullUrl": "urn:uuid:a31a810a-a56d-4967-b41f-ee5966b34e41",
      "resource": {
        "resourceType": "Observation",
        "id": "a31a810a-a56d-4967-b41f-ee5966b34e41",
        "meta": {
          "profile": [
            "http://hl7.eu/fhir/laboratory/StructureDefinition/Observation-resultslab-eu-lab"
          ]
        },
        "performer": [
          {
            "display": "The Central European Lab"
          }
        ],
        "category": [
          {
            "coding": [
              {
                "system": "http://terminology.hl7.org/CodeSystem/observation-category",
                "code": "laboratory"
              }
            ]
          }
        ],
        "code": {
          "coding": [
            {
              "code": "17861-6",
              "system": "http://loinc.org",
              "display": "Calcium [Mass/volume] in Serum or Plasma"
            }
          ],
          "text": "Calcium [Mass/volume] in Serum or Plasma"
        },
        "valueQuantity": {
          "system": "http://unitsofmeasure.org",
          "value": 9.2,
          "unit": "mg/dL",
          "code": "mg/dL"
        },
        "referenceRange": [
          {
            "low": {
              "value": 8.6,
              "code": "mg/dL",
              "system": "http://unitsofmeasure.org"
            }
          },
          {
            "high": {
              "value": 10.4,
              "code": "mg/dL",
              "system": "http://unitsofmeasure.org"
            }
          }
        ],
        "text": {
          "status": "generated",
          "div": "<div xmlns=\"http://www.w3.org/1999/xhtml\"><table class=\"hl7__eu__lab__report\"><tr><th>Test</th><th>15-Feb-2017</th><th>Reference&#xA0;Range</th><th>Unit</th></tr><tr><td>Calcium [Mass/volume] in Serum or Plasma</td><td>9.2</td><td>8.6 - 10.4</td><td></td><td>mg/dL</td></tr></table></div>"
        },
        "status": "final",
        "subject": {
          "reference": "urn:uuid:f7bc4af9-b397-4847-9836-ac2f60581323",
          "display": "Maria Nohlmans"
        },
        "effectiveDateTime": "2017-02-15T11:02:39Z",
        "specimen": {
          "reference": "urn:uuid:87ee84a9-2000-4722-a475-469909140ef1"
        }
      }
    },
    {
      "fullUrl": "urn:uuid:5640ef4b-4376-493d-af5c-0ea92adf5426",
      "resource": {
        "resourceType": "Observation",
        "id": "5640ef4b-4376-493d-af5c-0ea92adf5426",
        "meta": {
          "profile": [
            "http://hl7.eu/fhir/laboratory/StructureDefinition/Observation-resultslab-eu-lab"
          ]
        },
        "performer": [
          {
            "display": "The Central European Lab"
          }
        ],
        "category": [
          {
            "coding": [
              {
                "system": "http://terminology.hl7.org/CodeSystem/observation-category",
                "code": "laboratory"
              }
            ]
          }
        ],
        "code": {
          "coding": [
            {
              "code": "2951-2",
              "system": "http://loinc.org",
              "display": "Sodium [Moles/volume] in Serum or Plasma"
            }
          ],
          "text": "Sodium [Moles/volume] in Serum or Plasma"
        },
        "valueQuantity": {
          "system": "http://unitsofmeasure.org",
          "value": 138.1,
          "unit": "mmol/L",
          "code": "mmol/L"
        },
        "referenceRange": [
          {
            "low": {
              "value": 135,
              "code": "mmol/L",
              "system": "http://unitsofmeasure.org"
            }
          },
          {
            "high": {
              "value": 145,
              "code": "mmol/L",
              "system": "http://unitsofmeasure.org"
            }
          }
        ],
        "text": {
          "status": "generated",
          "div": "<div xmlns=\"http://www.w3.org/1999/xhtml\"><table class=\"hl7__eu__lab__report\"><tr><th>Test</th><th>15-Feb-2017</th><th>Reference&#xA0;Range</th><th>Unit</th></tr><tr><td>Sodium [Moles/volume] in Serum or Plasma</td><td>138.1</td><td>135 - 145</td><td></td><td>mmol/L</td></tr></table></div>"
        },
        "status": "final",
        "subject": {
          "reference": "urn:uuid:f7bc4af9-b397-4847-9836-ac2f60581323",
          "display": "Maria Nohlmans"
        },
        "effectiveDateTime": "2017-02-15T11:02:39Z",
        "specimen": {
          "reference": "urn:uuid:87ee84a9-2000-4722-a475-469909140ef1"
        }
      }
    },
    {
      "fullUrl": "urn:uuid:69cea4b0-081a-417b-84ad-82f9b8a88b65",
      "resource": {
        "resourceType": "Observation",
        "id": "69cea4b0-081a-417b-84ad-82f9b8a88b65",
        "meta": {
          "profile": [
            "http://hl7.eu/fhir/laboratory/StructureDefinition/Observation-resultslab-eu-lab"
          ]
        },
        "performer": [
          {
            "display": "The Central European Lab"
          }
        ],
        "category": [
          {
            "coding": [
              {
                "system": "http://terminology.hl7.org/CodeSystem/observation-category",
                "code": "laboratory"
              }
            ]
          }
        ],
        "code": {
          "coding": [
            {
              "code": "2823-3",
              "system": "http://loinc.org",
              "display": "Potassium [Moles/volume] in Serum or Plasma"
            }
          ],
          "text": "Potassium [Moles/volume] in Serum or Plasma"
        },
        "valueQuantity": {
          "system": "http://unitsofmeasure.org",
          "value": 5.2,
          "unit": "mmol/L",
          "code": "mmol/L"
        },
        "referenceRange": [
          {
            "low": {
              "value": 3.5,
              "code": "mmol/L",
              "system": "http://unitsofmeasure.org"
            }
          },
          {
            "high": {
              "value": 5.1,
              "code": "mmol/L",
              "system": "http://unitsofmeasure.org"
            }
          }
        ],
        "interpretation": [
          {
            "coding": [
              {
                "code": "H",
                "system": "http://terminology.hl7.org/CodeSystem/v3-ObservationInterpretation",
                "display": "High"
              }
            ]
          }
        ],
        "text": {
          "status": "generated",
          "div": "<div xmlns=\"http://www.w3.org/1999/xhtml\"><table class=\"hl7__eu__lab__report\"><tr><th>Test</th><th>15-Feb-2017</th><th>Reference&#xA0;Range</th><th>Unit</th></tr><tr><td>Potassium [Moles/volume] in Serum or Plasma</td><td>5.2</td><td>3.5 - 5.1</td><td>H</td><td>mmol/L</td></tr></table></div>"
        },
        "status": "final",
        "subject": {
          "reference": "urn:uuid:f7bc4af9-b397-4847-9836-ac2f60581323",
          "display": "Maria Nohlmans"
        },
        "effectiveDateTime": "2017-02-15T11:02:39Z",
        "specimen": {
          "reference": "urn:uuid:87ee84a9-2000-4722-a475-469909140ef1"
        }
      }
    },
    {
      "fullUrl": "urn:uuid:4a3d43e3-5460-4d9b-9f3c-cbd581f6214e",
      "resource": {
        "resourceType": "Observation",
        "id": "4a3d43e3-5460-4d9b-9f3c-cbd581f6214e",
        "meta": {
          "profile": [
            "http://hl7.eu/fhir/laboratory/StructureDefinition/Observation-resultslab-eu-lab"
          ]
        },
        "performer": [
          {
            "display": "The Central European Lab"
          }
        ],
        "category": [
          {
            "coding": [
              {
                "system": "http://terminology.hl7.org/CodeSystem/observation-category",
                "code": "laboratory"
              }
            ]
          }
        ],
        "code": {
          "coding": [
            {
              "code": "2075-0",
              "system": "http://loinc.org",
              "display": "Chloride [Moles/volume] in Serum or Plasma"
            }
          ],
          "text": "Chloride [Moles/volume] in Serum or Plasma"
        },
        "valueQuantity": {
          "system": "http://unitsofmeasure.org",
          "value": 101.6,
          "unit": "mmol/L",
          "code": "mmol/L"
        },
        "referenceRange": [
          {
            "low": {
              "value": 98,
              "code": "mmol/L",
              "system": "http://unitsofmeasure.org"
            }
          },
          {
            "high": {
              "value": 108,
              "code": "mmol/L",
              "system": "http://unitsofmeasure.org"
            }
          }
        ],
        "text": {
          "status": "generated",
          "div": "<div xmlns=\"http://www.w3.org/1999/xhtml\"><table class=\"hl7__eu__lab__report\"><tr><th>Test</th><th>15-Feb-2017</th><th>Reference&#xA0;Range</th><th>Unit</th></tr><tr><td>Chloride [Moles/volume] in Serum or Plasma</td><td>101.6</td><td>98 - 108</td><td></td><td>mmol/L</td></tr></table></div>"
        },
        "status": "final",
        "subject": {
          "reference": "urn:uuid:f7bc4af9-b397-4847-9836-ac2f60581323",
          "display": "Maria Nohlmans"
        },
        "effectiveDateTime": "2017-02-15T11:02:39Z",
        "specimen": {
          "reference": "urn:uuid:87ee84a9-2000-4722-a475-469909140ef1"
        }
      }
    },
    {
      "fullUrl": "urn:uuid:955176d6-278f-4508-93e7-6344549a44eb",
      "resource": {
        "resourceType": "Observation",
        "id": "955176d6-278f-4508-93e7-6344549a44eb",
        "meta": {
          "profile": [
            "http://hl7.eu/fhir/laboratory/StructureDefinition/Observation-resultslab-eu-lab"
          ]
        },
        "performer": [
          {
            "display": "The Central European Lab"
          }
        ],
        "category": [
          {
            "coding": [
              {
                "system": "http://terminology.hl7.org/CodeSystem/observation-category",
                "code": "laboratory"
              }
            ]
          }
        ],
        "code": {
          "coding": [
            {
              "code": "2028-9",
              "system": "http://loinc.org",
              "display": "Carbon dioxide, total [Moles/volume] in Serum or Plasma"
            }
          ],
          "text": "Carbon dioxide, total [Moles/volume] in Serum or Plasma"
        },
        "valueQuantity": {
          "system": "http://unitsofmeasure.org",
          "value": 24.3,
          "unit": "mmol/L",
          "code": "mmol/L"
        },
        "referenceRange": [
          {
            "low": {
              "value": 22,
              "code": "mmol/L",
              "system": "http://unitsofmeasure.org"
            }
          },
          {
            "high": {
              "value": 32,
              "code": "mmol/L",
              "system": "http://unitsofmeasure.org"
            }
          }
        ],
        "text": {
          "status": "generated",
          "div": "<div xmlns=\"http://www.w3.org/1999/xhtml\"><table class=\"hl7__eu__lab__report\"><tr><th>Test</th><th>15-Feb-2017</th><th>Reference&#xA0;Range</th><th>Unit</th></tr><tr><td>Carbon dioxide, total [Moles/volume] in Serum or Plasma</td><td>24.3</td><td>22 - 32</td><td></td><td>mmol/L</td></tr></table></div>"
        },
        "status": "final",
        "subject": {
          "reference": "urn:uuid:f7bc4af9-b397-4847-9836-ac2f60581323",
          "display": "Maria Nohlmans"
        },
        "effectiveDateTime": "2017-02-15T11:02:39Z",
        "specimen": {
          "reference": "urn:uuid:87ee84a9-2000-4722-a475-469909140ef1"
        }
      }
    },
    {
      "fullUrl": "urn:uuid:97839cc6-bcf1-4673-b1fa-8469eeeac9a8",
      "resource": {
        "resourceType": "Observation",
        "id": "97839cc6-bcf1-4673-b1fa-8469eeeac9a8",
        "meta": {
          "profile": [
            "http://hl7.eu/fhir/laboratory/StructureDefinition/Observation-resultslab-eu-lab"
          ]
        },
        "performer": [
          {
            "display": "The Central European Lab"
          }
        ],
        "category": [
          {
            "coding": [
              {
                "system": "http://terminology.hl7.org/CodeSystem/observation-category",
                "code": "laboratory"
              }
            ]
          }
        ],
        "code": {
          "coding": [
            {
              "code": "5767-9",
              "system": "http://loinc.org",
              "display": "Appearance of Urine"
            }
          ],
          "text": "Appearance of Urine"
        },
        "text": {
          "status": "generated",
          "div": "<div xmlns=\"http://www.w3.org/1999/xhtml\"><table class=\"hl7__eu__lab__report\"><tr><th>Test</th><th>15-Feb-2017</th><th>Reference&#xA0;Range</th><th>Unit</th></tr><tr><td>Appearance of Urine</td></tr></table></div>"
        },
        "status": "final",
        "subject": {
          "reference": "urn:uuid:f7bc4af9-b397-4847-9836-ac2f60581323",
          "display": "Maria Nohlmans"
        },
        "effectiveDateTime": "2017-02-15T11:02:39Z",
        "specimen": {
          "reference": "urn:uuid:9b886564-b9f8-4e5c-ab54-afbf39dc3b02"
        }
      }
    },
    {
      "fullUrl": "urn:uuid:113433ea-0975-42ee-a98a-beb1cc000523",
      "resource": {
        "resourceType": "Observation",
        "id": "113433ea-0975-42ee-a98a-beb1cc000523",
        "meta": {
          "profile": [
            "http://hl7.eu/fhir/laboratory/StructureDefinition/Observation-resultslab-eu-lab"
          ]
        },
        "performer": [
          {
            "display": "The Central European Lab"
          }
        ],
        "category": [
          {
            "coding": [
              {
                "system": "http://terminology.hl7.org/CodeSystem/observation-category",
                "code": "laboratory"
              }
            ]
          }
        ],
        "code": {
          "coding": [
            {
              "code": "34533-0",
              "system": "http://loinc.org",
              "display": "Odor of Urine"
            }
          ],
          "text": "Odor of Urine"
        },
        "text": {
          "status": "generated",
          "div": "<div xmlns=\"http://www.w3.org/1999/xhtml\"><table class=\"hl7__eu__lab__report\"><tr><th>Test</th><th>15-Feb-2017</th><th>Reference&#xA0;Range</th><th>Unit</th></tr><tr><td>Odor of Urine</td></tr></table></div>"
        },
        "status": "final",
        "subject": {
          "reference": "urn:uuid:f7bc4af9-b397-4847-9836-ac2f60581323",
          "display": "Maria Nohlmans"
        },
        "effectiveDateTime": "2017-02-15T11:02:39Z",
        "specimen": {
          "reference": "urn:uuid:9b886564-b9f8-4e5c-ab54-afbf39dc3b02"
        }
      }
    },
    {
      "fullUrl": "urn:uuid:eb0dd67c-572d-4aa4-81a8-1327d6ff0d0c",
      "resource": {
        "resourceType": "Observation",
        "id": "eb0dd67c-572d-4aa4-81a8-1327d6ff0d0c",
        "meta": {
          "profile": [
            "http://hl7.eu/fhir/laboratory/StructureDefinition/Observation-resultslab-eu-lab"
          ]
        },
        "performer": [
          {
            "display": "The Central European Lab"
          }
        ],
        "category": [
          {
            "coding": [
              {
                "system": "http://terminology.hl7.org/CodeSystem/observation-category",
                "code": "laboratory"
              }
            ]
          }
        ],
        "code": {
          "coding": [
            {
              "code": "32167-9",
              "system": "http://loinc.org",
              "display": "Clarity of Urine"
            }
          ],
          "text": "Clarity of Urine"
        },
        "text": {
          "status": "generated",
          "div": "<div xmlns=\"http://www.w3.org/1999/xhtml\"><table class=\"hl7__eu__lab__report\"><tr><th>Test</th><th>15-Feb-2017</th><th>Reference&#xA0;Range</th><th>Unit</th></tr><tr><td>Clarity of Urine</td></tr></table></div>"
        },
        "status": "final",
        "subject": {
          "reference": "urn:uuid:f7bc4af9-b397-4847-9836-ac2f60581323",
          "display": "Maria Nohlmans"
        },
        "effectiveDateTime": "2017-02-15T11:02:39Z",
        "specimen": {
          "reference": "urn:uuid:9b886564-b9f8-4e5c-ab54-afbf39dc3b02"
        }
      }
    },
    {
      "fullUrl": "urn:uuid:ba1b483e-900f-43b8-85b1-294edfd496ae",
      "resource": {
        "resourceType": "Observation",
        "id": "ba1b483e-900f-43b8-85b1-294edfd496ae",
        "meta": {
          "profile": [
            "http://hl7.eu/fhir/laboratory/StructureDefinition/Observation-resultslab-eu-lab"
          ]
        },
        "performer": [
          {
            "display": "The Central European Lab"
          }
        ],
        "category": [
          {
            "coding": [
              {
                "system": "http://terminology.hl7.org/CodeSystem/observation-category",
                "code": "laboratory"
              }
            ]
          }
        ],
        "code": {
          "coding": [
            {
              "code": "5778-6",
              "system": "http://loinc.org",
              "display": "Color of Urine"
            }
          ],
          "text": "Color of Urine"
        },
        "text": {
          "status": "generated",
          "div": "<div xmlns=\"http://www.w3.org/1999/xhtml\"><table class=\"hl7__eu__lab__report\"><tr><th>Test</th><th>15-Feb-2017</th><th>Reference&#xA0;Range</th><th>Unit</th></tr><tr><td>Color of Urine</td></tr></table></div>"
        },
        "status": "final",
        "subject": {
          "reference": "urn:uuid:f7bc4af9-b397-4847-9836-ac2f60581323",
          "display": "Maria Nohlmans"
        },
        "effectiveDateTime": "2017-02-15T11:02:39Z",
        "specimen": {
          "reference": "urn:uuid:9b886564-b9f8-4e5c-ab54-afbf39dc3b02"
        }
      }
    },
    {
      "fullUrl": "urn:uuid:2cfe5a4e-d9ea-4fd6-8f23-55606c436b31",
      "resource": {
        "resourceType": "Observation",
        "id": "2cfe5a4e-d9ea-4fd6-8f23-55606c436b31",
        "meta": {
          "profile": [
            "http://hl7.eu/fhir/laboratory/StructureDefinition/Observation-resultslab-eu-lab"
          ]
        },
        "performer": [
          {
            "display": "The Central European Lab"
          }
        ],
        "category": [
          {
            "coding": [
              {
                "system": "http://terminology.hl7.org/CodeSystem/observation-category",
                "code": "laboratory"
              }
            ]
          }
        ],
        "code": {
          "coding": [
            {
              "code": "5792-7",
              "system": "http://loinc.org",
              "display": "Glucose [Mass/volume] in Urine by Test strip"
            }
          ],
          "text": "Glucose [Mass/volume] in Urine by Test strip"
        },
        "valueQuantity": {
          "system": "http://unitsofmeasure.org",
          "value": 2,
          "unit": "mg/dL",
          "code": "mg/dL"
        },
        "referenceRange": [
          {
            "low": {
              "value": 0.8,
              "code": "mg/dL",
              "system": "http://unitsofmeasure.org"
            }
          },
          {
            "high": {
              "value": 0,
              "code": "mg/dL",
              "system": "http://unitsofmeasure.org"
            }
          }
        ],
        "interpretation": [
          {
            "coding": [
              {
                "code": "H",
                "system": "http://terminology.hl7.org/CodeSystem/v3-ObservationInterpretation",
                "display": "High"
              }
            ]
          }
        ],
        "text": {
          "status": "generated",
          "div": "<div xmlns=\"http://www.w3.org/1999/xhtml\"><table class=\"hl7__eu__lab__report\"><tr><th>Test</th><th>15-Feb-2017</th><th>Reference&#xA0;Range</th><th>Unit</th></tr><tr><td>Glucose [Mass/volume] in Urine by Test strip</td><td>2.0</td><td>0.8 - 0</td><td>H</td><td>mg/dL</td></tr></table></div>"
        },
        "status": "final",
        "subject": {
          "reference": "urn:uuid:f7bc4af9-b397-4847-9836-ac2f60581323",
          "display": "Maria Nohlmans"
        },
        "effectiveDateTime": "2017-02-15T11:02:39Z",
        "specimen": {
          "reference": "urn:uuid:9b886564-b9f8-4e5c-ab54-afbf39dc3b02"
        }
      }
    },
    {
      "fullUrl": "urn:uuid:7ed827c5-6712-4595-b38e-8b0f8cf2f05d",
      "resource": {
        "resourceType": "Observation",
        "id": "7ed827c5-6712-4595-b38e-8b0f8cf2f05d",
        "meta": {
          "profile": [
            "http://hl7.eu/fhir/laboratory/StructureDefinition/Observation-resultslab-eu-lab"
          ]
        },
        "performer": [
          {
            "display": "The Central European Lab"
          }
        ],
        "category": [
          {
            "coding": [
              {
                "system": "http://terminology.hl7.org/CodeSystem/observation-category",
                "code": "laboratory"
              }
            ]
          }
        ],
        "code": {
          "coding": [
            {
              "code": "25428-4",
              "system": "http://loinc.org",
              "display": "Glucose [Presence] in Urine by Test strip"
            }
          ],
          "text": "Glucose [Presence] in Urine by Test strip"
        },
        "text": {
          "status": "generated",
          "div": "<div xmlns=\"http://www.w3.org/1999/xhtml\"><table class=\"hl7__eu__lab__report\"><tr><th>Test</th><th>15-Feb-2017</th><th>Reference&#xA0;Range</th><th>Unit</th></tr><tr><td>Glucose [Presence] in Urine by Test strip</td></tr></table></div>"
        },
        "status": "final",
        "subject": {
          "reference": "urn:uuid:f7bc4af9-b397-4847-9836-ac2f60581323",
          "display": "Maria Nohlmans"
        },
        "effectiveDateTime": "2017-02-15T11:02:39Z",
        "specimen": {
          "reference": "urn:uuid:9b886564-b9f8-4e5c-ab54-afbf39dc3b02"
        }
      }
    },
    {
      "fullUrl": "urn:uuid:47c518f7-0859-4bf7-84e9-623467a59ba1",
      "resource": {
        "resourceType": "Observation",
        "id": "47c518f7-0859-4bf7-84e9-623467a59ba1",
        "meta": {
          "profile": [
            "http://hl7.eu/fhir/laboratory/StructureDefinition/Observation-resultslab-eu-lab"
          ]
        },
        "performer": [
          {
            "display": "The Central European Lab"
          }
        ],
        "category": [
          {
            "coding": [
              {
                "system": "http://terminology.hl7.org/CodeSystem/observation-category",
                "code": "laboratory"
              }
            ]
          }
        ],
        "code": {
          "coding": [
            {
              "code": "20505-4",
              "system": "http://loinc.org",
              "display": "Bilirubin.total [Mass/volume] in Urine by Test strip"
            }
          ],
          "text": "Bilirubin.total [Mass/volume] in Urine by Test strip"
        },
        "valueQuantity": {
          "system": "http://unitsofmeasure.org",
          "value": 1,
          "unit": "mg/dL",
          "code": "mg/dL"
        },
        "referenceRange": [
          {
            "low": {
              "value": 0,
              "code": "mg/dL",
              "system": "http://unitsofmeasure.org"
            }
          },
          {
            "high": {
              "value": 1.5,
              "code": "mg/dL",
              "system": "http://unitsofmeasure.org"
            }
          }
        ],
        "text": {
          "status": "generated",
          "div": "<div xmlns=\"http://www.w3.org/1999/xhtml\"><table class=\"hl7__eu__lab__report\"><tr><th>Test</th><th>15-Feb-2017</th><th>Reference&#xA0;Range</th><th>Unit</th></tr><tr><td>Bilirubin.total [Mass/volume] in Urine by Test strip</td><td>1.0</td><td>0 - 1.5</td><td></td><td>mg/dL</td></tr></table></div>"
        },
        "status": "final",
        "subject": {
          "reference": "urn:uuid:f7bc4af9-b397-4847-9836-ac2f60581323",
          "display": "Maria Nohlmans"
        },
        "effectiveDateTime": "2017-02-15T11:02:39Z",
        "specimen": {
          "reference": "urn:uuid:9b886564-b9f8-4e5c-ab54-afbf39dc3b02"
        }
      }
    },
    {
      "fullUrl": "urn:uuid:a72b2ff6-3eca-4b9e-ab6e-cc3b2c11a250",
      "resource": {
        "resourceType": "Observation",
        "id": "a72b2ff6-3eca-4b9e-ab6e-cc3b2c11a250",
        "meta": {
          "profile": [
            "http://hl7.eu/fhir/laboratory/StructureDefinition/Observation-resultslab-eu-lab"
          ]
        },
        "performer": [
          {
            "display": "The Central European Lab"
          }
        ],
        "category": [
          {
            "coding": [
              {
                "system": "http://terminology.hl7.org/CodeSystem/observation-category",
                "code": "laboratory"
              }
            ]
          }
        ],
        "code": {
          "coding": [
            {
              "code": "5770-3",
              "system": "http://loinc.org",
              "display": "Bilirubin.total [Presence] in Urine by Test strip"
            }
          ],
          "text": "Bilirubin.total [Presence] in Urine by Test strip"
        },
        "text": {
          "status": "generated",
          "div": "<div xmlns=\"http://www.w3.org/1999/xhtml\"><table class=\"hl7__eu__lab__report\"><tr><th>Test</th><th>15-Feb-2017</th><th>Reference&#xA0;Range</th><th>Unit</th></tr><tr><td>Bilirubin.total [Presence] in Urine by Test strip</td></tr></table></div>"
        },
        "status": "final",
        "subject": {
          "reference": "urn:uuid:f7bc4af9-b397-4847-9836-ac2f60581323",
          "display": "Maria Nohlmans"
        },
        "effectiveDateTime": "2017-02-15T11:02:39Z",
        "specimen": {
          "reference": "urn:uuid:9b886564-b9f8-4e5c-ab54-afbf39dc3b02"
        }
      }
    },
    {
      "fullUrl": "urn:uuid:4835f69f-0554-4fe9-9828-116b29f13543",
      "resource": {
        "resourceType": "Observation",
        "id": "4835f69f-0554-4fe9-9828-116b29f13543",
        "meta": {
          "profile": [
            "http://hl7.eu/fhir/laboratory/StructureDefinition/Observation-resultslab-eu-lab"
          ]
        },
        "performer": [
          {
            "display": "The Central European Lab"
          }
        ],
        "category": [
          {
            "coding": [
              {
                "system": "http://terminology.hl7.org/CodeSystem/observation-category",
                "code": "laboratory"
              }
            ]
          }
        ],
        "code": {
          "coding": [
            {
              "code": "5797-6",
              "system": "http://loinc.org",
              "display": "Ketones [Mass/volume] in Urine by Test strip"
            }
          ],
          "text": "Ketones [Mass/volume] in Urine by Test strip"
        },
        "valueQuantity": {
          "system": "http://unitsofmeasure.org",
          "value": 19.5,
          "unit": "mg/dL",
          "code": "mg/dL"
        },
        "referenceRange": [
          {
            "low": {
              "value": 0,
              "code": "mg/dL",
              "system": "http://unitsofmeasure.org"
            }
          },
          {
            "high": {
              "value": 8,
              "code": "mg/dL",
              "system": "http://unitsofmeasure.org"
            }
          }
        ],
        "interpretation": [
          {
            "coding": [
              {
                "code": "H",
                "system": "http://terminology.hl7.org/CodeSystem/v3-ObservationInterpretation",
                "display": "High"
              }
            ]
          }
        ],
        "text": {
          "status": "generated",
          "div": "<div xmlns=\"http://www.w3.org/1999/xhtml\"><table class=\"hl7__eu__lab__report\"><tr><th>Test</th><th>15-Feb-2017</th><th>Reference&#xA0;Range</th><th>Unit</th></tr><tr><td>Ketones [Mass/volume] in Urine by Test strip</td><td>19.5</td><td>0 - 8</td><td>H</td><td>mg/dL</td></tr></table></div>"
        },
        "status": "final",
        "subject": {
          "reference": "urn:uuid:f7bc4af9-b397-4847-9836-ac2f60581323",
          "display": "Maria Nohlmans"
        },
        "effectiveDateTime": "2017-02-15T11:02:39Z",
        "specimen": {
          "reference": "urn:uuid:9b886564-b9f8-4e5c-ab54-afbf39dc3b02"
        }
      }
    },
    {
      "fullUrl": "urn:uuid:aa653139-ea9b-4e25-8245-22d927d13984",
      "resource": {
        "resourceType": "Observation",
        "id": "aa653139-ea9b-4e25-8245-22d927d13984",
        "meta": {
          "profile": [
            "http://hl7.eu/fhir/laboratory/StructureDefinition/Observation-resultslab-eu-lab"
          ]
        },
        "performer": [
          {
            "display": "The Central European Lab"
          }
        ],
        "category": [
          {
            "coding": [
              {
                "system": "http://terminology.hl7.org/CodeSystem/observation-category",
                "code": "laboratory"
              }
            ]
          }
        ],
        "code": {
          "coding": [
            {
              "code": "2514-8",
              "system": "http://loinc.org",
              "display": "Ketones [Presence] in Urine by Test strip"
            }
          ],
          "text": "Ketones [Presence] in Urine by Test strip"
        },
        "text": {
          "status": "generated",
          "div": "<div xmlns=\"http://www.w3.org/1999/xhtml\"><table class=\"hl7__eu__lab__report\"><tr><th>Test</th><th>15-Feb-2017</th><th>Reference&#xA0;Range</th><th>Unit</th></tr><tr><td>Ketones [Presence] in Urine by Test strip</td></tr></table></div>"
        },
        "status": "final",
        "subject": {
          "reference": "urn:uuid:f7bc4af9-b397-4847-9836-ac2f60581323",
          "display": "Maria Nohlmans"
        },
        "effectiveDateTime": "2017-02-15T11:02:39Z",
        "specimen": {
          "reference": "urn:uuid:9b886564-b9f8-4e5c-ab54-afbf39dc3b02"
        }
      }
    },
    {
      "fullUrl": "urn:uuid:a7b518e6-8b5c-4226-be23-e68928cb9564",
      "resource": {
        "resourceType": "Observation",
        "id": "a7b518e6-8b5c-4226-be23-e68928cb9564",
        "meta": {
          "profile": [
            "http://hl7.eu/fhir/laboratory/StructureDefinition/Observation-resultslab-eu-lab"
          ]
        },
        "performer": [
          {
            "display": "The Central European Lab"
          }
        ],
        "category": [
          {
            "coding": [
              {
                "system": "http://terminology.hl7.org/CodeSystem/observation-category",
                "code": "laboratory"
              }
            ]
          }
        ],
        "code": {
          "coding": [
            {
              "code": "5811-5",
              "system": "http://loinc.org",
              "display": "Specific gravity of Urine by Test strip"
            }
          ],
          "text": "Specific gravity of Urine by Test strip"
        },
        "valueQuantity": {
          "system": "http://unitsofmeasure.org",
          "value": 1,
          "unit": "{nominal}",
          "code": "{nominal}"
        },
        "referenceRange": [
          {
            "low": {
              "value": 1.01,
              "code": "g/mL",
              "system": "http://unitsofmeasure.org"
            }
          },
          {
            "high": {
              "value": 1.03,
              "code": "g/mL",
              "system": "http://unitsofmeasure.org"
            }
          }
        ],
        "interpretation": [
          {
            "coding": [
              {
                "code": "L",
                "system": "http://terminology.hl7.org/CodeSystem/v3-ObservationInterpretation",
                "display": "Low"
              }
            ]
          }
        ],
        "text": {
          "status": "generated",
          "div": "<div xmlns=\"http://www.w3.org/1999/xhtml\"><table class=\"hl7__eu__lab__report\"><tr><th>Test</th><th>15-Feb-2017</th><th>Reference&#xA0;Range</th><th>Unit</th></tr><tr><td>Specific gravity of Urine by Test strip</td><td>1.0</td><td>1.01 - 1.03</td><td>L</td><td>{nominal}</td></tr></table></div>"
        },
        "status": "final",
        "subject": {
          "reference": "urn:uuid:f7bc4af9-b397-4847-9836-ac2f60581323",
          "display": "Maria Nohlmans"
        },
        "effectiveDateTime": "2017-02-15T11:02:39Z",
        "specimen": {
          "reference": "urn:uuid:9b886564-b9f8-4e5c-ab54-afbf39dc3b02"
        }
      }
    },
    {
      "fullUrl": "urn:uuid:c529a858-5dc2-43b1-a991-1a200eb2cc0a",
      "resource": {
        "resourceType": "Observation",
        "id": "c529a858-5dc2-43b1-a991-1a200eb2cc0a",
        "meta": {
          "profile": [
            "http://hl7.eu/fhir/laboratory/StructureDefinition/Observation-resultslab-eu-lab"
          ]
        },
        "performer": [
          {
            "display": "The Central European Lab"
          }
        ],
        "category": [
          {
            "coding": [
              {
                "system": "http://terminology.hl7.org/CodeSystem/observation-category",
                "code": "laboratory"
              }
            ]
          }
        ],
        "code": {
          "coding": [
            {
              "code": "5803-2",
              "system": "http://loinc.org",
              "display": "pH of Urine by Test strip"
            }
          ],
          "text": "pH of Urine by Test strip"
        },
        "valueQuantity": {
          "system": "http://unitsofmeasure.org",
          "value": 5.1,
          "unit": "pH",
          "code": "pH"
        },
        "referenceRange": [
          {
            "low": {
              "value": 4.6,
              "code": "pH",
              "system": "http://unitsofmeasure.org"
            }
          },
          {
            "high": {
              "value": 7.5,
              "code": "pH",
              "system": "http://unitsofmeasure.org"
            }
          }
        ],
        "text": {
          "status": "generated",
          "div": "<div xmlns=\"http://www.w3.org/1999/xhtml\"><table class=\"hl7__eu__lab__report\"><tr><th>Test</th><th>15-Feb-2017</th><th>Reference&#xA0;Range</th><th>Unit</th></tr><tr><td>pH of Urine by Test strip</td><td>5.1</td><td>4.6 - 7.5</td><td></td><td>pH</td></tr></table></div>"
        },
        "status": "final",
        "subject": {
          "reference": "urn:uuid:f7bc4af9-b397-4847-9836-ac2f60581323",
          "display": "Maria Nohlmans"
        },
        "effectiveDateTime": "2017-02-15T11:02:39Z",
        "specimen": {
          "reference": "urn:uuid:9b886564-b9f8-4e5c-ab54-afbf39dc3b02"
        }
      }
    },
    {
      "fullUrl": "urn:uuid:04a4048e-36dc-4674-89d5-2c2d2cc64841",
      "resource": {
        "resourceType": "Observation",
        "id": "04a4048e-36dc-4674-89d5-2c2d2cc64841",
        "meta": {
          "profile": [
            "http://hl7.eu/fhir/laboratory/StructureDefinition/Observation-resultslab-eu-lab"
          ]
        },
        "performer": [
          {
            "display": "The Central European Lab"
          }
        ],
        "category": [
          {
            "coding": [
              {
                "system": "http://terminology.hl7.org/CodeSystem/observation-category",
                "code": "laboratory"
              }
            ]
          }
        ],
        "code": {
          "coding": [
            {
              "code": "5804-0",
              "system": "http://loinc.org",
              "display": "Protein [Mass/volume] in Urine by Test strip"
            }
          ],
          "text": "Protein [Mass/volume] in Urine by Test strip"
        },
        "valueQuantity": {
          "system": "http://unitsofmeasure.org",
          "value": 266.7,
          "unit": "mg/dL",
          "code": "mg/dL"
        },
        "referenceRange": [
          {
            "low": {
              "value": 0,
              "code": "mg/dL",
              "system": "http://unitsofmeasure.org"
            }
          },
          {
            "high": {
              "value": 14,
              "code": "mg/dL",
              "system": "http://unitsofmeasure.org"
            }
          }
        ],
        "interpretation": [
          {
            "coding": [
              {
                "code": "H",
                "system": "http://terminology.hl7.org/CodeSystem/v3-ObservationInterpretation",
                "display": "High"
              }
            ]
          }
        ],
        "text": {
          "status": "generated",
          "div": "<div xmlns=\"http://www.w3.org/1999/xhtml\"><table class=\"hl7__eu__lab__report\"><tr><th>Test</th><th>15-Feb-2017</th><th>Reference&#xA0;Range</th><th>Unit</th></tr><tr><td>Protein [Mass/volume] in Urine by Test strip</td><td>266.7</td><td>0 - 14</td><td>H</td><td>mg/dL</td></tr></table></div>"
        },
        "status": "final",
        "subject": {
          "reference": "urn:uuid:f7bc4af9-b397-4847-9836-ac2f60581323",
          "display": "Maria Nohlmans"
        },
        "effectiveDateTime": "2017-02-15T11:02:39Z",
        "specimen": {
          "reference": "urn:uuid:9b886564-b9f8-4e5c-ab54-afbf39dc3b02"
        }
      }
    },
    {
      "fullUrl": "urn:uuid:450249b4-892b-4300-86d2-677dcb668695",
      "resource": {
        "resourceType": "Observation",
        "id": "450249b4-892b-4300-86d2-677dcb668695",
        "meta": {
          "profile": [
            "http://hl7.eu/fhir/laboratory/StructureDefinition/Observation-resultslab-eu-lab"
          ]
        },
        "performer": [
          {
            "display": "The Central European Lab"
          }
        ],
        "category": [
          {
            "coding": [
              {
                "system": "http://terminology.hl7.org/CodeSystem/observation-category",
                "code": "laboratory"
              }
            ]
          }
        ],
        "code": {
          "coding": [
            {
              "code": "20454-5",
              "system": "http://loinc.org",
              "display": "Protein [Presence] in Urine by Test strip"
            }
          ],
          "text": "Protein [Presence] in Urine by Test strip"
        },
        "text": {
          "status": "generated",
          "div": "<div xmlns=\"http://www.w3.org/1999/xhtml\"><table class=\"hl7__eu__lab__report\"><tr><th>Test</th><th>15-Feb-2017</th><th>Reference&#xA0;Range</th><th>Unit</th></tr><tr><td>Protein [Presence] in Urine by Test strip</td></tr></table></div>"
        },
        "status": "final",
        "subject": {
          "reference": "urn:uuid:f7bc4af9-b397-4847-9836-ac2f60581323",
          "display": "Maria Nohlmans"
        },
        "effectiveDateTime": "2017-02-15T11:02:39Z",
        "specimen": {
          "reference": "urn:uuid:9b886564-b9f8-4e5c-ab54-afbf39dc3b02"
        }
      }
    },
    {
      "fullUrl": "urn:uuid:ce2a7b1c-48f2-4c66-bc50-c5f9a1996872",
      "resource": {
        "resourceType": "Observation",
        "id": "ce2a7b1c-48f2-4c66-bc50-c5f9a1996872",
        "meta": {
          "profile": [
            "http://hl7.eu/fhir/laboratory/StructureDefinition/Observation-resultslab-eu-lab"
          ]
        },
        "performer": [
          {
            "display": "The Central European Lab"
          }
        ],
        "category": [
          {
            "coding": [
              {
                "system": "http://terminology.hl7.org/CodeSystem/observation-category",
                "code": "laboratory"
              }
            ]
          }
        ],
        "code": {
          "coding": [
            {
              "code": "5802-4",
              "system": "http://loinc.org",
              "display": "Nitrite [Presence] in Urine by Test strip"
            }
          ],
          "text": "Nitrite [Presence] in Urine by Test strip"
        },
        "text": {
          "status": "generated",
          "div": "<div xmlns=\"http://www.w3.org/1999/xhtml\"><table class=\"hl7__eu__lab__report\"><tr><th>Test</th><th>15-Feb-2017</th><th>Reference&#xA0;Range</th><th>Unit</th></tr><tr><td>Nitrite [Presence] in Urine by Test strip</td></tr></table></div>"
        },
        "status": "final",
        "subject": {
          "reference": "urn:uuid:f7bc4af9-b397-4847-9836-ac2f60581323",
          "display": "Maria Nohlmans"
        },
        "effectiveDateTime": "2017-02-15T11:02:39Z",
        "specimen": {
          "reference": "urn:uuid:9b886564-b9f8-4e5c-ab54-afbf39dc3b02"
        }
      }
    },
    {
      "fullUrl": "urn:uuid:f3941c22-db39-4fb5-bf0c-ac5e26724339",
      "resource": {
        "resourceType": "Observation",
        "id": "f3941c22-db39-4fb5-bf0c-ac5e26724339",
        "meta": {
          "profile": [
            "http://hl7.eu/fhir/laboratory/StructureDefinition/Observation-resultslab-eu-lab"
          ]
        },
        "performer": [
          {
            "display": "The Central European Lab"
          }
        ],
        "category": [
          {
            "coding": [
              {
                "system": "http://terminology.hl7.org/CodeSystem/observation-category",
                "code": "laboratory"
              }
            ]
          }
        ],
        "code": {
          "coding": [
            {
              "code": "5794-3",
              "system": "http://loinc.org",
              "display": "Hemoglobin [Presence] in Urine by Test strip"
            }
          ],
          "text": "Hemoglobin [Presence] in Urine by Test strip"
        },
        "text": {
          "status": "generated",
          "div": "<div xmlns=\"http://www.w3.org/1999/xhtml\"><table class=\"hl7__eu__lab__report\"><tr><th>Test</th><th>15-Feb-2017</th><th>Reference&#xA0;Range</th><th>Unit</th></tr><tr><td>Hemoglobin [Presence] in Urine by Test strip</td></tr></table></div>"
        },
        "status": "final",
        "subject": {
          "reference": "urn:uuid:f7bc4af9-b397-4847-9836-ac2f60581323",
          "display": "Maria Nohlmans"
        },
        "effectiveDateTime": "2017-02-15T11:02:39Z",
        "specimen": {
          "reference": "urn:uuid:9b886564-b9f8-4e5c-ab54-afbf39dc3b02"
        }
      }
    },
    {
      "fullUrl": "urn:uuid:17f4d75d-4029-4a46-8d13-e0c1f0f266a0",
      "resource": {
        "resourceType": "Observation",
        "id": "17f4d75d-4029-4a46-8d13-e0c1f0f266a0",
        "meta": {
          "profile": [
            "http://hl7.eu/fhir/laboratory/StructureDefinition/Observation-resultslab-eu-lab"
          ]
        },
        "performer": [
          {
            "display": "The Central European Lab"
          }
        ],
        "category": [
          {
            "coding": [
              {
                "system": "http://terminology.hl7.org/CodeSystem/observation-category",
                "code": "laboratory"
              }
            ]
          }
        ],
        "code": {
          "coding": [
            {
              "code": "5799-2",
              "system": "http://loinc.org",
              "display": "Leukocyte esterase [Presence] in Urine by Test strip"
            }
          ],
          "text": "Leukocyte esterase [Presence] in Urine by Test strip"
        },
        "text": {
          "status": "generated",
          "div": "<div xmlns=\"http://www.w3.org/1999/xhtml\"><table class=\"hl7__eu__lab__report\"><tr><th>Test</th><th>15-Feb-2017</th><th>Reference&#xA0;Range</th><th>Unit</th></tr><tr><td>Leukocyte esterase [Presence] in Urine by Test strip</td></tr></table></div>"
        },
        "status": "final",
        "subject": {
          "reference": "urn:uuid:f7bc4af9-b397-4847-9836-ac2f60581323",
          "display": "Maria Nohlmans"
        },
        "effectiveDateTime": "2017-02-15T11:02:39Z",
        "specimen": {
          "reference": "urn:uuid:9b886564-b9f8-4e5c-ab54-afbf39dc3b02"
        }
      }
    },
    {
      "fullUrl": "urn:uuid:30f8af5b-368b-44b1-96d6-c44d09b4dba2",
      "resource": {
        "resourceType": "Observation",
        "id": "30f8af5b-368b-44b1-96d6-c44d09b4dba2",
        "meta": {
          "profile": [
            "http://hl7.eu/fhir/laboratory/StructureDefinition/Observation-resultslab-eu-lab"
          ]
        },
        "performer": [
          {
            "display": "The Central European Lab"
          }
        ],
        "category": [
          {
            "coding": [
              {
                "system": "http://terminology.hl7.org/CodeSystem/observation-category",
                "code": "laboratory"
              }
            ]
          }
        ],
        "code": {
          "coding": [
            {
              "code": "4548-4",
              "system": "http://loinc.org",
              "display": "Hemoglobin A1c/Hemoglobin.total in Blood"
            }
          ],
          "text": "Hemoglobin A1c/Hemoglobin.total in Blood"
        },
        "valueQuantity": {
          "system": "http://unitsofmeasure.org",
          "value": 2.9,
          "unit": "%",
          "code": "%"
        },
        "referenceRange": [
          {
            "low": {
              "value": 4.5,
              "code": "%",
              "system": "http://unitsofmeasure.org"
            }
          },
          {
            "high": {
              "value": 6.4,
              "code": "%",
              "system": "http://unitsofmeasure.org"
            }
          }
        ],
        "interpretation": [
          {
            "coding": [
              {
                "code": "L",
                "system": "http://terminology.hl7.org/CodeSystem/v3-ObservationInterpretation",
                "display": "Low"
              }
            ]
          }
        ],
        "text": {
          "status": "generated",
          "div": "<div xmlns=\"http://www.w3.org/1999/xhtml\"><table class=\"hl7__eu__lab__report\"><tr><th>Test</th><th>15-Feb-2017</th><th>Reference&#xA0;Range</th><th>Unit</th></tr><tr><td>Hemoglobin A1c/Hemoglobin.total in Blood</td><td>2.9</td><td>4.5 - 6.4</td><td>L</td><td>%</td></tr></table></div>"
        },
        "status": "final",
        "subject": {
          "reference": "urn:uuid:f7bc4af9-b397-4847-9836-ac2f60581323",
          "display": "Maria Nohlmans"
        },
        "effectiveDateTime": "2017-02-15T11:02:39Z",
        "specimen": {
          "reference": "urn:uuid:c0b79a71-051b-47e1-b00d-5f27b447bd1b"
        }
      }
    },
    {
      "fullUrl": "urn:uuid:94fb26d6-f54b-4fe0-bbee-b1fd8b9dc2c6",
      "resource": {
        "resourceType": "Device",
        "id": "94fb26d6-f54b-4fe0-bbee-b1fd8b9dc2c6",
        "deviceName": [
          {
            "name": "SYNDERAI Synthetic Generator",
            "type": "manufacturer-name"
          }
        ],
        "version": [
          {
            "value": "5.0"
          }
        ],
        "text": {
          "status": "generated",
          "div": "<div xmlns=\"http://www.w3.org/1999/xhtml\">SYNDERAI Synthetic Generator v5.0</div>"
        },
        "status": "active\"",
        "distinctIdentifier": "synderai-generator-50",
        "manufacturer": "SYNDERAI Project"
      }
    },
    {
      "fullUrl": "urn:uuid:e209e6b5-c9ef-4a1e-9d4b-3a798427db99",
      "resource": {
        "resourceType": "Provenance",
        "id": "e209e6b5-c9ef-4a1e-9d4b-3a798427db99",
        "target": [
          {
            "reference": "Patient/f7bc4af9-b397-4847-9836-ac2f60581323"
          },
          {
            "reference": "Bundle/b9d6d334-c27f-484b-aea2-f7269013b491"
          },
          {
            "reference": "Composition/a9023678-95a4-4ebb-bb30-15432d5dc0c4"
          },
          {
            "reference": "PractitionerRole/b337fed1-33f2-4b4c-85a9-6ad244bb91bf"
          },
          {
            "reference": "Practitioner/0e8b7ea7-8312-4fda-bcb3-a037317c4e1f"
          },
          {
            "reference": "PractitionerRole/4a3386ca-c52c-439b-a10f-5552998ea01d"
          },
          {
            "reference": "Organization/c0a0952a-a5c3-475f-9bfa-cf89b1b9f93f"
          }
        ],
        "activity": {
          "text": "Synthetic Example Data Generation"
        },
        "policy": [
          "https://synderai.net/synderai-synthetic-data-policy"
        ],
        "agent": [
          {
            "type": {
              "text": "author"
            },
            "who": {
              "reference": "Device/94fb26d6-f54b-4fe0-bbee-b1fd8b9dc2c6"
            }
          }
        ],
        "reason": [
          {
            "text": "Interoperability Testing and Training (non-clinical use)"
          }
        ],
        "text": {
          "status": "generated",
          "div": "<div xmlns=\"http://www.w3.org/1999/xhtml\">Provenance for SYNDERAI Synthetic Example Data Resource</div>"
        },
        "recorded": "2017-02-15T12:02:39Z"
      }
    },
    {
      "fullUrl": "urn:uuid:b337fed1-33f2-4b4c-85a9-6ad244bb91bf",
      "resource": {
        "resourceType": "PractitionerRole",
        "id": "b337fed1-33f2-4b4c-85a9-6ad244bb91bf",
        "meta": {
          "profile": [
            "http://hl7.eu/fhir/base/StructureDefinition/practitionerRole-eu"
          ]
        },
        "text": {
          "status": "generated",
          "div": "<div xmlns=\"http://www.w3.org/1999/xhtml\">Laboratory Role Id: b337fed1-33f2-4b4c-85a9-6ad244bb91bf</div>"
        },
        "practitioner": {
          "reference": "urn:uuid:0e8b7ea7-8312-4fda-bcb3-a037317c4e1f"
        }
      }
    },
    {
      "fullUrl": "urn:uuid:0e8b7ea7-8312-4fda-bcb3-a037317c4e1f",
      "resource": {
        "resourceType": "Practitioner",
        "id": "0e8b7ea7-8312-4fda-bcb3-a037317c4e1f",
        "meta": {
          "profile": [
            "http://hl7.eu/fhir/base/StructureDefinition/practitioner-eu"
          ]
        },
        "identifier": [
          {
            "assigner": {
              "display": "HL7 Europe"
            },
            "system": "urn:oid:2.16.840.1.113883.2.51.999",
            "value": "47f36d2b-25bb-4230-b4c5-05d0c0761e3e"
          }
        ],
        "name": [
          {
            "prefix": [
              "dr"
            ],
            "given": [
              "Ex"
            ],
            "family": "Ample"
          }
        ],
        "address": [
          {
            "line": [
              "Laboratoire Central Européenne",
              "Boulevard du Jardin Botanique 32"
            ],
            "postalCode": "1000",
            "city": "Brussels",
            "country": "Belgium"
          }
        ],
        "text": {
          "status": "generated",
          "div": "<div xmlns=\"http://www.w3.org/1999/xhtml\">Laboratory: Laboratoire Central Européenne, 1000 Brussels, Belgium</div>"
        }
      }
    }
  ],
  "type": "document",
  "timestamp": "2017-02-15T12:02:39Z"
}
