{
  "resourceType": "Bundle",
  "id": "a6025fdc-5ef4-435f-8337-ad7c05d958da",
  "meta": {
    "profile": [
      "http://hl7.eu/fhir/laboratory/StructureDefinition/Bundle-eu-lab"
    ]
  },
  "identifier": {
    "assigner": {
      "display": "HL7 Europe"
    },
    "system": "urn:oid:2.16.840.1.113883.2.51.999",
    "value": "5a935b66-dc62-4231-b01c-d3cc5d161110"
  },
  "entry": [
    {
      "fullUrl": "urn:uuid:969e3d8d-ee9c-490a-8425-56971672547e",
      "resource": {
        "resourceType": "Composition",
        "id": "969e3d8d-ee9c-490a-8425-56971672547e",
        "meta": {
          "profile": [
            "http://hl7.eu/fhir/laboratory/StructureDefinition/Composition-eu-lab"
          ]
        },
        "identifier": {
          "assigner": {
            "display": "HL7 Europe"
          },
          "system": "urn:oid:2.16.840.1.113883.2.51.999",
          "value": "54951dcf-b69c-457c-a813-0f6be9b65606"
        },
        "author": [
          {
            "reference": "urn:uuid:c2d26edb-330a-40d2-b520-333fc685f1ca"
          }
        ],
        "category": [
          {
            "coding": [
              {
                "code": "26436-6",
                "system": "http://loinc.org",
                "display": "Laboratory studies (set)"
              }
            ]
          }
        ],
        "type": {
          "coding": [
            {
              "code": "11502-2",
              "system": "http://loinc.org",
              "display": "Laboratory report"
            }
          ],
          "text": "Laboratory Report"
        },
        "section": [
          {
            "code": {
              "coding": [
                {
                  "code": "26436-6",
                  "system": "http://loinc.org",
                  "display": "Laboratory studies (set)"
                }
              ],
              "text": "Laboratory studies"
            },
            "section": [
              {
                "code": {
                  "coding": [
                    {
                      "code": "$18723-7",
                      "system": "http://loinc.org",
                      "display": "Hematology studies (set)"
                    }
                  ],
                  "text": "Hematology"
                },
                "entry": [
                  {
                    "reference": "urn:uuid:5cedf543-477b-455c-9c2c-20869281fba1"
                  },
                  {
                    "reference": "urn:uuid:13946386-6d94-4f54-a7d5-b2cd28f807ba"
                  },
                  {
                    "reference": "urn:uuid:cf3f2578-298f-4e8a-90ae-14226a3cca5f"
                  },
                  {
                    "reference": "urn:uuid:9be23fe8-1587-43f6-a0bb-86654d873fc8"
                  },
                  {
                    "reference": "urn:uuid:a8a7d05f-ae9e-4c79-84cb-f9fe1e646bfd"
                  },
                  {
                    "reference": "urn:uuid:aa95268e-45b4-4aee-9cfd-f685da3170fd"
                  },
                  {
                    "reference": "urn:uuid:e3102b1b-6b1e-42cd-ad3b-815cd56fddd7"
                  },
                  {
                    "reference": "urn:uuid:81a0d596-53ad-4d8b-a35f-277e8182a145"
                  },
                  {
                    "reference": "urn:uuid:3bbba3a8-a054-4153-922a-f1e753a4471b"
                  },
                  {
                    "reference": "urn:uuid:57e314eb-7060-474a-b429-f3826414268b"
                  },
                  {
                    "reference": "urn:uuid:18f14925-4961-4a2b-9339-a5e44d7b3d84"
                  }
                ],
                "text": {
                  "status": "generated",
                  "div": "<div xmlns=\"http://www.w3.org/1999/xhtml\"><h3>Hematology</h3><table class=\"hl7__eu__lab__report\"><thead><tr><th>Test</th><th>07-JUL-2017</th><th>Reference&#xA0;Range</th><th>Unit</th></tr></thead><tbody><tr><td>Leukocytes [#/volume] in Blood by Automated count</td><td>9.1</td><td>3.6 - 10.5</td><td>10*3/uL</td></tr><tr><td>Erythrocytes [#/volume] in Blood by Automated count</td><td>4.3</td><td>4.2 - 5.8</td><td>10*6/uL</td></tr><tr><td>Hemoglobin [Mass/volume] in Blood</td><td>13.8</td><td>12.1 - 15.5</td><td>g/dL</td></tr><tr><td>Hematocrit [Volume Fraction] of Blood by Automated count</td><td>46.8</td><td>37 - 52</td><td>%</td></tr><tr><td>MCV [Entitic volume] by Automated count</td><td>92.2</td><td>78 - 98</td><td>fL</td></tr><tr><td>MCH [Entitic mass] by Automated count</td><td>28.9</td><td>27 - 34.5</td><td>pg</td></tr><tr><td>MCHC [Mass/volume] by Automated count</td><td>34.8</td><td>31 - 35</td><td>g/dL</td></tr><tr><td>Erythrocyte distribution width [Entitic volume] by Automated count</td><td>43.1</td><td>36 - 55</td><td>fL</td></tr><tr><td>Platelets [#/volume] in Blood by Automated count</td><td>345.1</td><td>150 - 450</td><td>10*3/uL</td></tr><tr><td>Platelet distribution width [Entitic volume] in Blood by Automated count</td><td><strong>365.8 H</strong></td><td>11.6 - 17.4</td><td>fL</td></tr><tr><td>Platelet mean volume [Entitic volume] in Blood by Automated count</td><td>11.2</td><td>7.2 - 13.8</td><td>fL</td></tr></tbody></table></div>"
                },
                "title": "Hematology"
              },
              {
                "code": {
                  "coding": [
                    {
                      "code": "$18719-5",
                      "system": "http://loinc.org",
                      "display": "Chemistry studies (set)"
                    }
                  ],
                  "text": "Chemistry"
                },
                "entry": [
                  {
                    "reference": "urn:uuid:000461d0-ee1c-4033-bf02-d98dd74d5a3f"
                  },
                  {
                    "reference": "urn:uuid:f7876012-aff8-43a6-8447-5eb5be5d2182"
                  },
                  {
                    "reference": "urn:uuid:46293f3a-a831-44a1-b546-64c7289c8706"
                  },
                  {
                    "reference": "urn:uuid:8d35d3a8-e9b0-419a-97a0-9e6a12355651"
                  },
                  {
                    "reference": "urn:uuid:b94b4289-f20b-404e-930e-9cd38e41a8dc"
                  },
                  {
                    "reference": "urn:uuid:42fe895a-4397-4560-891a-1e085234f48d"
                  },
                  {
                    "reference": "urn:uuid:c373f503-273b-4a3c-ba3d-37cf05a73d5b"
                  },
                  {
                    "reference": "urn:uuid:5ac94090-6fdd-4bc5-9055-5ff71827e61c"
                  },
                  {
                    "reference": "urn:uuid:bd3008df-628c-4792-a54d-87f42015eedf"
                  },
                  {
                    "reference": "urn:uuid:e2b86ad3-56fd-4348-8b8b-b7b116c260ae"
                  },
                  {
                    "reference": "urn:uuid:d90f9155-b345-47d4-aed7-aace9a8a98d3"
                  },
                  {
                    "reference": "urn:uuid:b0ed76f6-d6c1-46ab-826c-2903e21f4f48"
                  },
                  {
                    "reference": "urn:uuid:8f111ec9-7d53-4d6e-9b29-be958c98e734"
                  },
                  {
                    "reference": "urn:uuid:8e9ada68-ab59-4ef5-a72c-cc40dc68faef"
                  }
                ],
                "text": {
                  "status": "generated",
                  "div": "<div xmlns=\"http://www.w3.org/1999/xhtml\"><h3>Chemistry</h3><table class=\"hl7__eu__lab__report\"><thead><tr><th>Test</th><th>07-JUL-2017</th><th>Reference&#xA0;Range</th><th>Unit</th></tr></thead><tbody><tr><td>Hemoglobin A1c/Hemoglobin.total in Blood</td><td><strong>7.0 H</strong></td><td>4 - 6</td><td>%</td></tr><tr><td>Glucose [Mass/volume] in Blood</td><td>116.2</td><td>70 - 140</td><td>mg/dL</td></tr><tr><td>Urea nitrogen [Mass/volume] in Blood</td><td>11.6</td><td>7 - 25</td><td>mg/dL</td></tr><tr><td>Creatinine [Mass/volume] in Blood</td><td>1.0</td><td>0.6 - 1.1</td><td>mg/dL</td></tr><tr><td>Calcium [Mass/volume] in Blood</td><td>8.6</td><td>8.5 - 10.4</td><td>mg/dL</td></tr><tr><td>Sodium [Moles/volume] in Blood</td><td>141.9</td><td>135 - 145</td><td>mmol/L</td></tr><tr><td>Potassium [Moles/volume] in Blood</td><td>4.4</td><td>3.5 - 5.1</td><td>mmol/L</td></tr><tr><td>Chloride [Moles/volume] in Blood</td><td>105.6</td><td>98 - 107</td><td>mmol/L</td></tr><tr><td>Carbon dioxide, total [Moles/volume] in Blood</td><td><strong>21.6 L</strong></td><td>22 - 29</td><td>mmol/L</td></tr><tr><td>Cholesterol [Mass/volume] in Serum or Plasma</td><td><strong>209.9 H</strong></td><td>125 - 200</td><td>mg/dL</td></tr><tr><td>Triglyceride [Mass/volume] in Serum or Plasma</td><td><strong>164.5 H</strong></td><td>35 - 150</td><td>mg/dL</td></tr><tr><td>Cholesterol in LDL [Mass/volume] in Serum or Plasma by Direct assay</td><td>119.7</td><td>0 - 130</td><td>mg/dL</td></tr><tr><td>Cholesterol in HDL [Mass/volume] in Serum or Plasma</td><td>57.3</td><td>40 - 100</td><td>mg/dL</td></tr><tr><td>Microalbumin/Creatinine [Mass Ratio] in Urine</td><td>13.8</td><td>0 - 30</td><td>mg/g</td></tr></tbody></table></div>"
                },
                "title": "Chemistry"
              }
            ],
            "title": "Laboratory Report"
          },
          {
            "text": {
              "status": "generated",
              "div": "<div xmlns=\"http://www.w3.org/1999/xhtml\"><h3>Annotation</h3><table class=\"hl7__eu__lab__report\"><tr><th>Conclusion and Recommendations based on this report and previous findings known to us</th></tr><tr><td>The patient shows poor glycemic control (elevated HbA1c), mild dyslipidemia (high cholesterol and triglycerides), and a slightly low total CO₂, which may suggest mild metabolic acidosis. Renal function, electrolytes, and blood counts are within normal limits. No evidence of significant proteinuria or hematologic abnormalities. Recommend optimization of diabetes and lipid management and clinical correlation for possible metabolic acidosis.</td></tr></table></div>"
            },
            "code": {
              "coding": [
                {
                  "system": "http://loinc.org",
                  "code": "48767-8",
                  "display": "Annotation comment"
                }
              ]
            },
            "title": "Annotation comment"
          }
        ],
        "status": "final",
        "subject": {
          "reference": "urn:uuid:5ccf3a60-7928-4061-af32-bdc27f3fcedf",
          "display": "Martine Couturier"
        },
        "date": "2017-07-07T22:13:15Z",
        "title": "Laboratory Report",
        "confidentiality": "N"
      }
    },
    {
      "fullUrl": "urn:uuid:998e6470-0d64-4792-b4cd-ba0769167663",
      "resource": {
        "resourceType": "DiagnosticReport",
        "id": "998e6470-0d64-4792-b4cd-ba0769167663",
        "meta": {
          "profile": [
            "http://hl7.eu/fhir/laboratory/StructureDefinition/DiagnosticReport-eu-lab"
          ]
        },
        "identifier": [
          {
            "assigner": {
              "display": "HL7 Europe"
            },
            "system": "urn:oid:2.16.840.1.113883.2.51.999",
            "value": "8ea7fa21-2bad-49cd-9e77-475cd45d3599"
          }
        ],
        "extension": [
          {
            "url": "http://hl7.org/fhir/5.0/StructureDefinition/extension-DiagnosticReport.composition",
            "valueReference": {
              "reference": "urn:uuid:54951dcf-b69c-457c-a813-0f6be9b65606"
            }
          }
        ],
        "category": [
          {
            "coding": [
              {
                "code": "26436-6",
                "system": "http://loinc.org",
                "display": "Laboratory studies (set)"
              }
            ]
          }
        ],
        "specimen": [
          {
            "reference": "urn:uuid:7ec457ab-965f-4599-96ba-7a3d4c714df4"
          },
          {
            "reference": "urn:uuid:69789031-2d46-402c-9dfa-755eefe75313"
          },
          {
            "reference": "urn:uuid:7d2af3cb-80be-4cae-84d2-d7aa17161406"
          },
          {
            "reference": "urn:uuid:7ec457ab-965f-4599-96ba-7a3d4c714df4"
          }
        ],
        "result": [
          {
            "reference": "urn:uuid:000461d0-ee1c-4033-bf02-d98dd74d5a3f"
          },
          {
            "reference": "urn:uuid:f7876012-aff8-43a6-8447-5eb5be5d2182"
          },
          {
            "reference": "urn:uuid:46293f3a-a831-44a1-b546-64c7289c8706"
          },
          {
            "reference": "urn:uuid:8d35d3a8-e9b0-419a-97a0-9e6a12355651"
          },
          {
            "reference": "urn:uuid:b94b4289-f20b-404e-930e-9cd38e41a8dc"
          },
          {
            "reference": "urn:uuid:42fe895a-4397-4560-891a-1e085234f48d"
          },
          {
            "reference": "urn:uuid:c373f503-273b-4a3c-ba3d-37cf05a73d5b"
          },
          {
            "reference": "urn:uuid:5ac94090-6fdd-4bc5-9055-5ff71827e61c"
          },
          {
            "reference": "urn:uuid:bd3008df-628c-4792-a54d-87f42015eedf"
          },
          {
            "reference": "urn:uuid:e2b86ad3-56fd-4348-8b8b-b7b116c260ae"
          },
          {
            "reference": "urn:uuid:d90f9155-b345-47d4-aed7-aace9a8a98d3"
          },
          {
            "reference": "urn:uuid:b0ed76f6-d6c1-46ab-826c-2903e21f4f48"
          },
          {
            "reference": "urn:uuid:8f111ec9-7d53-4d6e-9b29-be958c98e734"
          },
          {
            "reference": "urn:uuid:8e9ada68-ab59-4ef5-a72c-cc40dc68faef"
          },
          {
            "reference": "urn:uuid:5cedf543-477b-455c-9c2c-20869281fba1"
          },
          {
            "reference": "urn:uuid:13946386-6d94-4f54-a7d5-b2cd28f807ba"
          },
          {
            "reference": "urn:uuid:cf3f2578-298f-4e8a-90ae-14226a3cca5f"
          },
          {
            "reference": "urn:uuid:9be23fe8-1587-43f6-a0bb-86654d873fc8"
          },
          {
            "reference": "urn:uuid:a8a7d05f-ae9e-4c79-84cb-f9fe1e646bfd"
          },
          {
            "reference": "urn:uuid:aa95268e-45b4-4aee-9cfd-f685da3170fd"
          },
          {
            "reference": "urn:uuid:e3102b1b-6b1e-42cd-ad3b-815cd56fddd7"
          },
          {
            "reference": "urn:uuid:81a0d596-53ad-4d8b-a35f-277e8182a145"
          },
          {
            "reference": "urn:uuid:3bbba3a8-a054-4153-922a-f1e753a4471b"
          },
          {
            "reference": "urn:uuid:57e314eb-7060-474a-b429-f3826414268b"
          },
          {
            "reference": "urn:uuid:18f14925-4961-4a2b-9339-a5e44d7b3d84"
          }
        ],
        "status": "registered",
        "code": {
          "coding": [
            {
              "code": "11502-2",
              "system": "http://loinc.org",
              "display": "Laboratory report"
            }
          ]
        },
        "subject": {
          "reference": "urn:uuid:5ccf3a60-7928-4061-af32-bdc27f3fcedf",
          "display": "Martine Couturier"
        }
      }
    },
    {
      "fullUrl": "urn:uuid:5ccf3a60-7928-4061-af32-bdc27f3fcedf",
      "resource": {
        "resourceType": "Patient",
        "id": "5ccf3a60-7928-4061-af32-bdc27f3fcedf",
        "meta": {
          "security": [
            {
              "system": "http://terminology.hl7.org/CodeSystem/v3-ActReason",
              "code": "HTEST"
            },
            {
              "system": "http://terminology.hl7.org/CodeSystem/v3-ActReason",
              "code": "TRAIN"
            }
          ],
          "tag": [
            {
              "system": "https://synderai.net/fhir/CodeSystem/tags",
              "code": "synthetic",
              "display": "SYNDERAI Synthetic data"
            }
          ],
          "profile": [
            "http://hl7.eu/fhir/base/StructureDefinition/patient-eu-core"
          ]
        },
        "identifier": [
          {
            "type": {
              "coding": [
                {
                  "code": "PT",
                  "system": "http://terminology.hl7.org/CodeSystem/v2-0203"
                }
              ]
            },
            "system": "http://ec.europa.eu/identifier/eci",
            "value": "6614-983327-0"
          },
          {
            "type": {
              "coding": [
                {
                  "code": "MR",
                  "system": "http://terminology.hl7.org/CodeSystem/v2-0203"
                }
              ]
            },
            "system": "http://local.setting.eu/identifier",
            "value": "decdc04d-a1c8-929f-4aad-63136dd70efd"
          }
        ],
        "name": [
          {
            "family": "Couturier"
          },
          {
            "given": [
              "Martine"
            ]
          },
          {
            "text": "Martine Couturier"
          }
        ],
        "address": [
          {
            "line": [
              "458, rue de Bègue"
            ],
            "use": "home",
            "type": "physical",
            "postalCode": "03110",
            "city": "Boutin",
            "country": "France"
          }
        ],
        "telecom": [
          {
            "system": "phone",
            "value": "+33 4 11 66 35 81"
          }
        ],
        "extension": [
          {
            "url": "http://hl7.org/fhir/StructureDefinition/patient-nationality",
            "valueCodeableConcept": {
              "coding": [
                {
                  "code": "FR",
                  "system": "http://hl7.org/fhir/ValueSet/country"
                }
              ]
            }
          }
        ],
        "text": {
          "status": "generated",
          "div": "<div xmlns=\"http://www.w3.org/1999/xhtml\"><table class=\"hl7__ips\"><tr><td>Martine Couturier</td><td>female</td><td>13-Nov-1961</td></tr></table></div>"
        },
        "gender": "female",
        "birthDate": "1961-11-13"
      }
    },
    {
      "fullUrl": "urn:uuid:8562bbdc-5d59-4824-8ef0-bec0af44203d",
      "resource": {
        "resourceType": "ServiceRequest",
        "id": "8562bbdc-5d59-4824-8ef0-bec0af44203d",
        "meta": {
          "profile": [
            "http://hl7.eu/fhir/laboratory/StructureDefinition/ServiceRequest-eu-lab"
          ]
        },
        "identifier": [
          {
            "system": "http://example.org",
            "value": "bf86d364-e8fb-4d5b-9e84-2178ba53384a"
          }
        ],
        "specimen": [
          {
            "reference": "urn:uuid:7ec457ab-965f-4599-96ba-7a3d4c714df4"
          },
          {
            "reference": "urn:uuid:69789031-2d46-402c-9dfa-755eefe75313"
          },
          {
            "reference": "urn:uuid:7d2af3cb-80be-4cae-84d2-d7aa17161406"
          }
        ],
        "reasonCode": [
          {
            "coding": [
              {
                "code": "368581000119106",
                "system": "http://snomed.info/sct",
                "display": "Neuropathy due to type 2 diabetes mellitus"
              }
            ]
          },
          {
            "coding": [
              {
                "code": "302870006",
                "system": "http://snomed.info/sct",
                "display": "Hypertriglyceridemia"
              }
            ]
          },
          {
            "coding": [
              {
                "code": "44054006",
                "system": "http://snomed.info/sct",
                "display": "Type 2 diabetes mellitus"
              }
            ]
          },
          {
            "coding": [
              {
                "code": "237602007",
                "system": "http://snomed.info/sct",
                "display": "Metabolic syndrome X"
              }
            ]
          },
          {
            "coding": [
              {
                "code": "271737000",
                "system": "http://snomed.info/sct",
                "display": "Anemia"
              }
            ]
          },
          {
            "coding": [
              {
                "code": "15777000",
                "system": "http://snomed.info/sct",
                "display": "Prediabetes"
              }
            ]
          }
        ],
        "status": "active",
        "intent": "order",
        "code": {
          "coding": [
            {
              "code": "108252007",
              "system": "http://snomed.info/sct",
              "display": "Laboratory procedure"
            }
          ]
        },
        "subject": {
          "reference": "urn:uuid:5ccf3a60-7928-4061-af32-bdc27f3fcedf",
          "display": "Martine Couturier"
        },
        "requester": {
          "reference": "urn:uuid:49fdd4bb-99ae-45fb-b575-5fd3c3fa59fe"
        }
      }
    },
    {
      "fullUrl": "urn:uuid:49fdd4bb-99ae-45fb-b575-5fd3c3fa59fe",
      "resource": {
        "resourceType": "PractitionerRole",
        "id": "49fdd4bb-99ae-45fb-b575-5fd3c3fa59fe",
        "meta": {
          "profile": [
            "http://hl7.eu/fhir/base/StructureDefinition/practitionerRole-eu"
          ]
        },
        "text": {
          "status": "generated",
          "div": "<div xmlns=\"http://www.w3.org/1999/xhtml\">Provider Role Id: 49fdd4bb-99ae-45fb-b575-5fd3c3fa59fe</div>"
        },
        "organization": {
          "reference": "urn:uuid:20cc88d9-16ed-4721-b7ab-ab7d5930846b"
        }
      }
    },
    {
      "fullUrl": "urn:uuid:20cc88d9-16ed-4721-b7ab-ab7d5930846b",
      "resource": {
        "resourceType": "Organization",
        "id": "20cc88d9-16ed-4721-b7ab-ab7d5930846b",
        "meta": {
          "profile": [
            "http://hl7.eu/fhir/base/StructureDefinition/organization-eu"
          ]
        },
        "identifier": [
          {
            "assigner": {
              "display": "HL7 Europe"
            },
            "system": "urn:oid:2.16.840.1.113883.2.51.999",
            "value": "0b8c15c3-2a3a-44ea-8dee-4bc201f04300"
          }
        ],
        "address": [
          {
            "line": [
              "Boulevard Denière 1"
            ],
            "city": "Vichy",
            "postalCode": "03200",
            "country": "France"
          }
        ],
        "text": {
          "status": "generated",
          "div": "<div xmlns=\"http://www.w3.org/1999/xhtml\">Provider Organization: Centre hospitalier Jacques Lacarin</div>"
        },
        "name": "Centre hospitalier Jacques Lacarin"
      }
    },
    {
      "fullUrl": "urn:uuid:7ec457ab-965f-4599-96ba-7a3d4c714df4",
      "resource": {
        "resourceType": "Specimen",
        "id": "7ec457ab-965f-4599-96ba-7a3d4c714df4",
        "meta": {
          "profile": [
            "http://hl7.eu/fhir/laboratory/StructureDefinition/Specimen-eu-lab"
          ]
        },
        "collection": {
          "collectedDateTime": "2017-07-07"
        },
        "text": {
          "status": "generated",
          "div": "<div xmlns=\"http://www.w3.org/1999/xhtml\"><table class=\"hl7__eu__lab__report\"><tr><th>Specimen</th><th>Collection Date</th></tr><tr><td>Whole blood specimen (specimen)</td><td><span class=\"nb\">07-Jul-2017</span></td></tr></table></div>"
        },
        "type": {
          "coding": [
            {
              "code": "258580003",
              "system": "http://snomed.info/sct",
              "display": "Whole blood specimen (specimen)"
            }
          ]
        }
      }
    },
    {
      "fullUrl": "urn:uuid:69789031-2d46-402c-9dfa-755eefe75313",
      "resource": {
        "resourceType": "Specimen",
        "id": "69789031-2d46-402c-9dfa-755eefe75313",
        "meta": {
          "profile": [
            "http://hl7.eu/fhir/laboratory/StructureDefinition/Specimen-eu-lab"
          ]
        },
        "collection": {
          "collectedDateTime": "2017-07-07"
        },
        "text": {
          "status": "generated",
          "div": "<div xmlns=\"http://www.w3.org/1999/xhtml\"><table class=\"hl7__eu__lab__report\"><tr><th>Specimen</th><th>Collection Date</th></tr><tr><td>Acellular blood (serum or plasma) specimen</td><td><span class=\"nb\">07-Jul-2017</span></td></tr></table></div>"
        },
        "type": {
          "coding": [
            {
              "code": "122592007",
              "system": "http://snomed.info/sct",
              "display": "Acellular blood (serum or plasma) specimen"
            }
          ]
        }
      }
    },
    {
      "fullUrl": "urn:uuid:7d2af3cb-80be-4cae-84d2-d7aa17161406",
      "resource": {
        "resourceType": "Specimen",
        "id": "7d2af3cb-80be-4cae-84d2-d7aa17161406",
        "meta": {
          "profile": [
            "http://hl7.eu/fhir/laboratory/StructureDefinition/Specimen-eu-lab"
          ]
        },
        "collection": {
          "collectedDateTime": "2017-07-07"
        },
        "text": {
          "status": "generated",
          "div": "<div xmlns=\"http://www.w3.org/1999/xhtml\"><table class=\"hl7__eu__lab__report\"><tr><th>Specimen</th><th>Collection Date</th></tr><tr><td>Urine specimen</td><td><span class=\"nb\">07-Jul-2017</span></td></tr></table></div>"
        },
        "type": {
          "coding": [
            {
              "code": "122575003",
              "system": "http://snomed.info/sct",
              "display": "Urine specimen"
            }
          ]
        }
      }
    },
    {
      "fullUrl": "urn:uuid:7ec457ab-965f-4599-96ba-7a3d4c714df4",
      "resource": {
        "resourceType": "Specimen",
        "id": "7ec457ab-965f-4599-96ba-7a3d4c714df4",
        "meta": {
          "profile": [
            "http://hl7.eu/fhir/laboratory/StructureDefinition/Specimen-eu-lab"
          ]
        },
        "collection": {
          "collectedDateTime": "2017-07-07"
        },
        "text": {
          "status": "generated",
          "div": "<div xmlns=\"http://www.w3.org/1999/xhtml\"><table class=\"hl7__eu__lab__report\"><tr><th>Specimen</th><th>Collection Date</th></tr><tr><td>Whole blood specimen (specimen)</td><td><span class=\"nb\">07-Jul-2017</span></td></tr></table></div>"
        },
        "type": {
          "coding": [
            {
              "code": "258580003",
              "system": "http://snomed.info/sct",
              "display": "Whole blood specimen (specimen)"
            }
          ]
        }
      }
    },
    {
      "fullUrl": "urn:uuid:000461d0-ee1c-4033-bf02-d98dd74d5a3f",
      "resource": {
        "resourceType": "Observation",
        "id": "000461d0-ee1c-4033-bf02-d98dd74d5a3f",
        "meta": {
          "profile": [
            "http://hl7.eu/fhir/laboratory/StructureDefinition/Observation-resultslab-eu-lab"
          ]
        },
        "performer": [
          {
            "display": "The Central European Lab"
          }
        ],
        "category": [
          {
            "coding": [
              {
                "system": "http://terminology.hl7.org/CodeSystem/observation-category",
                "code": "laboratory"
              }
            ]
          }
        ],
        "code": {
          "coding": [
            {
              "code": "4548-4",
              "system": "http://loinc.org",
              "display": "Hemoglobin A1c/Hemoglobin.total in Blood"
            }
          ],
          "text": "Hemoglobin A1c/Hemoglobin.total in Blood"
        },
        "valueQuantity": {
          "system": "http://unitsofmeasure.org",
          "value": 7,
          "unit": "%",
          "code": "%"
        },
        "referenceRange": [
          {
            "low": {
              "value": 4,
              "code": "%",
              "system": "http://unitsofmeasure.org"
            }
          },
          {
            "high": {
              "value": 6,
              "code": "%",
              "system": "http://unitsofmeasure.org"
            }
          }
        ],
        "interpretation": [
          {
            "coding": [
              {
                "code": "H",
                "system": "http://terminology.hl7.org/CodeSystem/v3-ObservationInterpretation",
                "display": "High"
              }
            ]
          }
        ],
        "text": {
          "status": "generated",
          "div": "<div xmlns=\"http://www.w3.org/1999/xhtml\"><table class=\"hl7__eu__lab__report\"><tr><th>Test</th><th>07-Jul-2017</th><th>Reference&#xA0;Range</th><th>Unit</th></tr><tr><td>Hemoglobin A1c/Hemoglobin.total in Blood</td><td>7.0</td><td>4 - 6</td><td>H</td><td>%</td></tr></table></div>"
        },
        "status": "final",
        "subject": {
          "reference": "urn:uuid:5ccf3a60-7928-4061-af32-bdc27f3fcedf",
          "display": "Martine Couturier"
        },
        "effectiveDateTime": "2017-07-07T20:13:15Z",
        "specimen": {
          "reference": "urn:uuid:7ec457ab-965f-4599-96ba-7a3d4c714df4"
        }
      }
    },
    {
      "fullUrl": "urn:uuid:f7876012-aff8-43a6-8447-5eb5be5d2182",
      "resource": {
        "resourceType": "Observation",
        "id": "f7876012-aff8-43a6-8447-5eb5be5d2182",
        "meta": {
          "profile": [
            "http://hl7.eu/fhir/laboratory/StructureDefinition/Observation-resultslab-eu-lab"
          ]
        },
        "performer": [
          {
            "display": "The Central European Lab"
          }
        ],
        "category": [
          {
            "coding": [
              {
                "system": "http://terminology.hl7.org/CodeSystem/observation-category",
                "code": "laboratory"
              }
            ]
          }
        ],
        "code": {
          "coding": [
            {
              "code": "2339-0",
              "system": "http://loinc.org",
              "display": "Glucose [Mass/volume] in Blood"
            }
          ],
          "text": "Glucose [Mass/volume] in Blood"
        },
        "valueQuantity": {
          "system": "http://unitsofmeasure.org",
          "value": 116.2,
          "unit": "mg/dL",
          "code": "mg/dL"
        },
        "referenceRange": [
          {
            "low": {
              "value": 70,
              "code": "mg/dL",
              "system": "http://unitsofmeasure.org"
            }
          },
          {
            "high": {
              "value": 140,
              "code": "mg/dL",
              "system": "http://unitsofmeasure.org"
            }
          }
        ],
        "text": {
          "status": "generated",
          "div": "<div xmlns=\"http://www.w3.org/1999/xhtml\"><table class=\"hl7__eu__lab__report\"><tr><th>Test</th><th>07-Jul-2017</th><th>Reference&#xA0;Range</th><th>Unit</th></tr><tr><td>Glucose [Mass/volume] in Blood</td><td>116.2</td><td>70 - 140</td><td></td><td>mg/dL</td></tr></table></div>"
        },
        "status": "final",
        "subject": {
          "reference": "urn:uuid:5ccf3a60-7928-4061-af32-bdc27f3fcedf",
          "display": "Martine Couturier"
        },
        "effectiveDateTime": "2017-07-07T20:13:15Z",
        "specimen": {
          "reference": "urn:uuid:7ec457ab-965f-4599-96ba-7a3d4c714df4"
        }
      }
    },
    {
      "fullUrl": "urn:uuid:46293f3a-a831-44a1-b546-64c7289c8706",
      "resource": {
        "resourceType": "Observation",
        "id": "46293f3a-a831-44a1-b546-64c7289c8706",
        "meta": {
          "profile": [
            "http://hl7.eu/fhir/laboratory/StructureDefinition/Observation-resultslab-eu-lab"
          ]
        },
        "performer": [
          {
            "display": "The Central European Lab"
          }
        ],
        "category": [
          {
            "coding": [
              {
                "system": "http://terminology.hl7.org/CodeSystem/observation-category",
                "code": "laboratory"
              }
            ]
          }
        ],
        "code": {
          "coding": [
            {
              "code": "6299-2",
              "system": "http://loinc.org",
              "display": "Urea nitrogen [Mass/volume] in Blood"
            }
          ],
          "text": "Urea nitrogen [Mass/volume] in Blood"
        },
        "valueQuantity": {
          "system": "http://unitsofmeasure.org",
          "value": 11.6,
          "unit": "mg/dL",
          "code": "mg/dL"
        },
        "referenceRange": [
          {
            "low": {
              "value": 7,
              "code": "mg/dL",
              "system": "http://unitsofmeasure.org"
            }
          },
          {
            "high": {
              "value": 25,
              "code": "mg/dL",
              "system": "http://unitsofmeasure.org"
            }
          }
        ],
        "text": {
          "status": "generated",
          "div": "<div xmlns=\"http://www.w3.org/1999/xhtml\"><table class=\"hl7__eu__lab__report\"><tr><th>Test</th><th>07-Jul-2017</th><th>Reference&#xA0;Range</th><th>Unit</th></tr><tr><td>Urea nitrogen [Mass/volume] in Blood</td><td>11.6</td><td>7 - 25</td><td></td><td>mg/dL</td></tr></table></div>"
        },
        "status": "final",
        "subject": {
          "reference": "urn:uuid:5ccf3a60-7928-4061-af32-bdc27f3fcedf",
          "display": "Martine Couturier"
        },
        "effectiveDateTime": "2017-07-07T20:13:15Z",
        "specimen": {
          "reference": "urn:uuid:7ec457ab-965f-4599-96ba-7a3d4c714df4"
        }
      }
    },
    {
      "fullUrl": "urn:uuid:8d35d3a8-e9b0-419a-97a0-9e6a12355651",
      "resource": {
        "resourceType": "Observation",
        "id": "8d35d3a8-e9b0-419a-97a0-9e6a12355651",
        "meta": {
          "profile": [
            "http://hl7.eu/fhir/laboratory/StructureDefinition/Observation-resultslab-eu-lab"
          ]
        },
        "performer": [
          {
            "display": "The Central European Lab"
          }
        ],
        "category": [
          {
            "coding": [
              {
                "system": "http://terminology.hl7.org/CodeSystem/observation-category",
                "code": "laboratory"
              }
            ]
          }
        ],
        "code": {
          "coding": [
            {
              "code": "38483-4",
              "system": "http://loinc.org",
              "display": "Creatinine [Mass/volume] in Blood"
            }
          ],
          "text": "Creatinine [Mass/volume] in Blood"
        },
        "valueQuantity": {
          "system": "http://unitsofmeasure.org",
          "value": 1,
          "unit": "mg/dL",
          "code": "mg/dL"
        },
        "referenceRange": [
          {
            "low": {
              "value": 0.6,
              "code": "mg/dL",
              "system": "http://unitsofmeasure.org"
            }
          },
          {
            "high": {
              "value": 1.1,
              "code": "mg/dL",
              "system": "http://unitsofmeasure.org"
            }
          }
        ],
        "text": {
          "status": "generated",
          "div": "<div xmlns=\"http://www.w3.org/1999/xhtml\"><table class=\"hl7__eu__lab__report\"><tr><th>Test</th><th>07-Jul-2017</th><th>Reference&#xA0;Range</th><th>Unit</th></tr><tr><td>Creatinine [Mass/volume] in Blood</td><td>1.0</td><td>0.6 - 1.1</td><td></td><td>mg/dL</td></tr></table></div>"
        },
        "status": "final",
        "subject": {
          "reference": "urn:uuid:5ccf3a60-7928-4061-af32-bdc27f3fcedf",
          "display": "Martine Couturier"
        },
        "effectiveDateTime": "2017-07-07T20:13:15Z",
        "specimen": {
          "reference": "urn:uuid:7ec457ab-965f-4599-96ba-7a3d4c714df4"
        }
      }
    },
    {
      "fullUrl": "urn:uuid:b94b4289-f20b-404e-930e-9cd38e41a8dc",
      "resource": {
        "resourceType": "Observation",
        "id": "b94b4289-f20b-404e-930e-9cd38e41a8dc",
        "meta": {
          "profile": [
            "http://hl7.eu/fhir/laboratory/StructureDefinition/Observation-resultslab-eu-lab"
          ]
        },
        "performer": [
          {
            "display": "The Central European Lab"
          }
        ],
        "category": [
          {
            "coding": [
              {
                "system": "http://terminology.hl7.org/CodeSystem/observation-category",
                "code": "laboratory"
              }
            ]
          }
        ],
        "code": {
          "coding": [
            {
              "code": "49765-1",
              "system": "http://loinc.org",
              "display": "Calcium [Mass/volume] in Blood"
            }
          ],
          "text": "Calcium [Mass/volume] in Blood"
        },
        "valueQuantity": {
          "system": "http://unitsofmeasure.org",
          "value": 8.6,
          "unit": "mg/dL",
          "code": "mg/dL"
        },
        "referenceRange": [
          {
            "low": {
              "value": 8.5,
              "code": "mg/dL",
              "system": "http://unitsofmeasure.org"
            }
          },
          {
            "high": {
              "value": 10.4,
              "code": "mg/dL",
              "system": "http://unitsofmeasure.org"
            }
          }
        ],
        "text": {
          "status": "generated",
          "div": "<div xmlns=\"http://www.w3.org/1999/xhtml\"><table class=\"hl7__eu__lab__report\"><tr><th>Test</th><th>07-Jul-2017</th><th>Reference&#xA0;Range</th><th>Unit</th></tr><tr><td>Calcium [Mass/volume] in Blood</td><td>8.6</td><td>8.5 - 10.4</td><td></td><td>mg/dL</td></tr></table></div>"
        },
        "status": "final",
        "subject": {
          "reference": "urn:uuid:5ccf3a60-7928-4061-af32-bdc27f3fcedf",
          "display": "Martine Couturier"
        },
        "effectiveDateTime": "2017-07-07T20:13:15Z",
        "specimen": {
          "reference": "urn:uuid:7ec457ab-965f-4599-96ba-7a3d4c714df4"
        }
      }
    },
    {
      "fullUrl": "urn:uuid:42fe895a-4397-4560-891a-1e085234f48d",
      "resource": {
        "resourceType": "Observation",
        "id": "42fe895a-4397-4560-891a-1e085234f48d",
        "meta": {
          "profile": [
            "http://hl7.eu/fhir/laboratory/StructureDefinition/Observation-resultslab-eu-lab"
          ]
        },
        "performer": [
          {
            "display": "The Central European Lab"
          }
        ],
        "category": [
          {
            "coding": [
              {
                "system": "http://terminology.hl7.org/CodeSystem/observation-category",
                "code": "laboratory"
              }
            ]
          }
        ],
        "code": {
          "coding": [
            {
              "code": "2947-0",
              "system": "http://loinc.org",
              "display": "Sodium [Moles/volume] in Blood"
            }
          ],
          "text": "Sodium [Moles/volume] in Blood"
        },
        "valueQuantity": {
          "system": "http://unitsofmeasure.org",
          "value": 141.9,
          "unit": "mmol/L",
          "code": "mmol/L"
        },
        "referenceRange": [
          {
            "low": {
              "value": 135,
              "code": "mmol/L",
              "system": "http://unitsofmeasure.org"
            }
          },
          {
            "high": {
              "value": 145,
              "code": "mmol/L",
              "system": "http://unitsofmeasure.org"
            }
          }
        ],
        "text": {
          "status": "generated",
          "div": "<div xmlns=\"http://www.w3.org/1999/xhtml\"><table class=\"hl7__eu__lab__report\"><tr><th>Test</th><th>07-Jul-2017</th><th>Reference&#xA0;Range</th><th>Unit</th></tr><tr><td>Sodium [Moles/volume] in Blood</td><td>141.9</td><td>135 - 145</td><td></td><td>mmol/L</td></tr></table></div>"
        },
        "status": "final",
        "subject": {
          "reference": "urn:uuid:5ccf3a60-7928-4061-af32-bdc27f3fcedf",
          "display": "Martine Couturier"
        },
        "effectiveDateTime": "2017-07-07T20:13:15Z",
        "specimen": {
          "reference": "urn:uuid:7ec457ab-965f-4599-96ba-7a3d4c714df4"
        }
      }
    },
    {
      "fullUrl": "urn:uuid:c373f503-273b-4a3c-ba3d-37cf05a73d5b",
      "resource": {
        "resourceType": "Observation",
        "id": "c373f503-273b-4a3c-ba3d-37cf05a73d5b",
        "meta": {
          "profile": [
            "http://hl7.eu/fhir/laboratory/StructureDefinition/Observation-resultslab-eu-lab"
          ]
        },
        "performer": [
          {
            "display": "The Central European Lab"
          }
        ],
        "category": [
          {
            "coding": [
              {
                "system": "http://terminology.hl7.org/CodeSystem/observation-category",
                "code": "laboratory"
              }
            ]
          }
        ],
        "code": {
          "coding": [
            {
              "code": "6298-4",
              "system": "http://loinc.org",
              "display": "Potassium [Moles/volume] in Blood"
            }
          ],
          "text": "Potassium [Moles/volume] in Blood"
        },
        "valueQuantity": {
          "system": "http://unitsofmeasure.org",
          "value": 4.4,
          "unit": "mmol/L",
          "code": "mmol/L"
        },
        "referenceRange": [
          {
            "low": {
              "value": 3.5,
              "code": "mmol/L",
              "system": "http://unitsofmeasure.org"
            }
          },
          {
            "high": {
              "value": 5.1,
              "code": "mmol/L",
              "system": "http://unitsofmeasure.org"
            }
          }
        ],
        "text": {
          "status": "generated",
          "div": "<div xmlns=\"http://www.w3.org/1999/xhtml\"><table class=\"hl7__eu__lab__report\"><tr><th>Test</th><th>07-Jul-2017</th><th>Reference&#xA0;Range</th><th>Unit</th></tr><tr><td>Potassium [Moles/volume] in Blood</td><td>4.4</td><td>3.5 - 5.1</td><td></td><td>mmol/L</td></tr></table></div>"
        },
        "status": "final",
        "subject": {
          "reference": "urn:uuid:5ccf3a60-7928-4061-af32-bdc27f3fcedf",
          "display": "Martine Couturier"
        },
        "effectiveDateTime": "2017-07-07T20:13:15Z",
        "specimen": {
          "reference": "urn:uuid:7ec457ab-965f-4599-96ba-7a3d4c714df4"
        }
      }
    },
    {
      "fullUrl": "urn:uuid:5ac94090-6fdd-4bc5-9055-5ff71827e61c",
      "resource": {
        "resourceType": "Observation",
        "id": "5ac94090-6fdd-4bc5-9055-5ff71827e61c",
        "meta": {
          "profile": [
            "http://hl7.eu/fhir/laboratory/StructureDefinition/Observation-resultslab-eu-lab"
          ]
        },
        "performer": [
          {
            "display": "The Central European Lab"
          }
        ],
        "category": [
          {
            "coding": [
              {
                "system": "http://terminology.hl7.org/CodeSystem/observation-category",
                "code": "laboratory"
              }
            ]
          }
        ],
        "code": {
          "coding": [
            {
              "code": "2069-3",
              "system": "http://loinc.org",
              "display": "Chloride [Moles/volume] in Blood"
            }
          ],
          "text": "Chloride [Moles/volume] in Blood"
        },
        "valueQuantity": {
          "system": "http://unitsofmeasure.org",
          "value": 105.6,
          "unit": "mmol/L",
          "code": "mmol/L"
        },
        "referenceRange": [
          {
            "low": {
              "value": 98,
              "code": "mmol/L",
              "system": "http://unitsofmeasure.org"
            }
          },
          {
            "high": {
              "value": 107,
              "code": "mmol/L",
              "system": "http://unitsofmeasure.org"
            }
          }
        ],
        "text": {
          "status": "generated",
          "div": "<div xmlns=\"http://www.w3.org/1999/xhtml\"><table class=\"hl7__eu__lab__report\"><tr><th>Test</th><th>07-Jul-2017</th><th>Reference&#xA0;Range</th><th>Unit</th></tr><tr><td>Chloride [Moles/volume] in Blood</td><td>105.6</td><td>98 - 107</td><td></td><td>mmol/L</td></tr></table></div>"
        },
        "status": "final",
        "subject": {
          "reference": "urn:uuid:5ccf3a60-7928-4061-af32-bdc27f3fcedf",
          "display": "Martine Couturier"
        },
        "effectiveDateTime": "2017-07-07T20:13:15Z",
        "specimen": {
          "reference": "urn:uuid:7ec457ab-965f-4599-96ba-7a3d4c714df4"
        }
      }
    },
    {
      "fullUrl": "urn:uuid:bd3008df-628c-4792-a54d-87f42015eedf",
      "resource": {
        "resourceType": "Observation",
        "id": "bd3008df-628c-4792-a54d-87f42015eedf",
        "meta": {
          "profile": [
            "http://hl7.eu/fhir/laboratory/StructureDefinition/Observation-resultslab-eu-lab"
          ]
        },
        "performer": [
          {
            "display": "The Central European Lab"
          }
        ],
        "category": [
          {
            "coding": [
              {
                "system": "http://terminology.hl7.org/CodeSystem/observation-category",
                "code": "laboratory"
              }
            ]
          }
        ],
        "code": {
          "coding": [
            {
              "code": "20565-8",
              "system": "http://loinc.org",
              "display": "Carbon dioxide, total [Moles/volume] in Blood"
            }
          ],
          "text": "Carbon dioxide, total [Moles/volume] in Blood"
        },
        "valueQuantity": {
          "system": "http://unitsofmeasure.org",
          "value": 21.6,
          "unit": "mmol/L",
          "code": "mmol/L"
        },
        "referenceRange": [
          {
            "low": {
              "value": 22,
              "code": "mmol/L",
              "system": "http://unitsofmeasure.org"
            }
          },
          {
            "high": {
              "value": 29,
              "code": "mmol/L",
              "system": "http://unitsofmeasure.org"
            }
          }
        ],
        "interpretation": [
          {
            "coding": [
              {
                "code": "L",
                "system": "http://terminology.hl7.org/CodeSystem/v3-ObservationInterpretation",
                "display": "Low"
              }
            ]
          }
        ],
        "text": {
          "status": "generated",
          "div": "<div xmlns=\"http://www.w3.org/1999/xhtml\"><table class=\"hl7__eu__lab__report\"><tr><th>Test</th><th>07-Jul-2017</th><th>Reference&#xA0;Range</th><th>Unit</th></tr><tr><td>Carbon dioxide, total [Moles/volume] in Blood</td><td>21.6</td><td>22 - 29</td><td>L</td><td>mmol/L</td></tr></table></div>"
        },
        "status": "final",
        "subject": {
          "reference": "urn:uuid:5ccf3a60-7928-4061-af32-bdc27f3fcedf",
          "display": "Martine Couturier"
        },
        "effectiveDateTime": "2017-07-07T20:13:15Z",
        "specimen": {
          "reference": "urn:uuid:7ec457ab-965f-4599-96ba-7a3d4c714df4"
        }
      }
    },
    {
      "fullUrl": "urn:uuid:e2b86ad3-56fd-4348-8b8b-b7b116c260ae",
      "resource": {
        "resourceType": "Observation",
        "id": "e2b86ad3-56fd-4348-8b8b-b7b116c260ae",
        "meta": {
          "profile": [
            "http://hl7.eu/fhir/laboratory/StructureDefinition/Observation-resultslab-eu-lab"
          ]
        },
        "performer": [
          {
            "display": "The Central European Lab"
          }
        ],
        "category": [
          {
            "coding": [
              {
                "system": "http://terminology.hl7.org/CodeSystem/observation-category",
                "code": "laboratory"
              }
            ]
          }
        ],
        "code": {
          "coding": [
            {
              "code": "2093-3",
              "system": "http://loinc.org",
              "display": "Cholesterol [Mass/volume] in Serum or Plasma"
            }
          ],
          "text": "Cholesterol [Mass/volume] in Serum or Plasma"
        },
        "valueQuantity": {
          "system": "http://unitsofmeasure.org",
          "value": 209.9,
          "unit": "mg/dL",
          "code": "mg/dL"
        },
        "referenceRange": [
          {
            "low": {
              "value": 125,
              "code": "mg/dL",
              "system": "http://unitsofmeasure.org"
            }
          },
          {
            "high": {
              "value": 200,
              "code": "mg/dL",
              "system": "http://unitsofmeasure.org"
            }
          }
        ],
        "interpretation": [
          {
            "coding": [
              {
                "code": "H",
                "system": "http://terminology.hl7.org/CodeSystem/v3-ObservationInterpretation",
                "display": "High"
              }
            ]
          }
        ],
        "text": {
          "status": "generated",
          "div": "<div xmlns=\"http://www.w3.org/1999/xhtml\"><table class=\"hl7__eu__lab__report\"><tr><th>Test</th><th>07-Jul-2017</th><th>Reference&#xA0;Range</th><th>Unit</th></tr><tr><td>Cholesterol [Mass/volume] in Serum or Plasma</td><td>209.9</td><td>125 - 200</td><td>H</td><td>mg/dL</td></tr></table></div>"
        },
        "status": "final",
        "subject": {
          "reference": "urn:uuid:5ccf3a60-7928-4061-af32-bdc27f3fcedf",
          "display": "Martine Couturier"
        },
        "effectiveDateTime": "2017-07-07T20:13:15Z",
        "specimen": {
          "reference": "urn:uuid:69789031-2d46-402c-9dfa-755eefe75313"
        }
      }
    },
    {
      "fullUrl": "urn:uuid:d90f9155-b345-47d4-aed7-aace9a8a98d3",
      "resource": {
        "resourceType": "Observation",
        "id": "d90f9155-b345-47d4-aed7-aace9a8a98d3",
        "meta": {
          "profile": [
            "http://hl7.eu/fhir/laboratory/StructureDefinition/Observation-resultslab-eu-lab"
          ]
        },
        "performer": [
          {
            "display": "The Central European Lab"
          }
        ],
        "category": [
          {
            "coding": [
              {
                "system": "http://terminology.hl7.org/CodeSystem/observation-category",
                "code": "laboratory"
              }
            ]
          }
        ],
        "code": {
          "coding": [
            {
              "code": "2571-8",
              "system": "http://loinc.org",
              "display": "Triglyceride [Mass/volume] in Serum or Plasma"
            }
          ],
          "text": "Triglyceride [Mass/volume] in Serum or Plasma"
        },
        "valueQuantity": {
          "system": "http://unitsofmeasure.org",
          "value": 164.5,
          "unit": "mg/dL",
          "code": "mg/dL"
        },
        "referenceRange": [
          {
            "low": {
              "value": 35,
              "code": "mg/dL",
              "system": "http://unitsofmeasure.org"
            }
          },
          {
            "high": {
              "value": 150,
              "code": "mg/dL",
              "system": "http://unitsofmeasure.org"
            }
          }
        ],
        "interpretation": [
          {
            "coding": [
              {
                "code": "H",
                "system": "http://terminology.hl7.org/CodeSystem/v3-ObservationInterpretation",
                "display": "High"
              }
            ]
          }
        ],
        "text": {
          "status": "generated",
          "div": "<div xmlns=\"http://www.w3.org/1999/xhtml\"><table class=\"hl7__eu__lab__report\"><tr><th>Test</th><th>07-Jul-2017</th><th>Reference&#xA0;Range</th><th>Unit</th></tr><tr><td>Triglyceride [Mass/volume] in Serum or Plasma</td><td>164.5</td><td>35 - 150</td><td>H</td><td>mg/dL</td></tr></table></div>"
        },
        "status": "final",
        "subject": {
          "reference": "urn:uuid:5ccf3a60-7928-4061-af32-bdc27f3fcedf",
          "display": "Martine Couturier"
        },
        "effectiveDateTime": "2017-07-07T20:13:15Z",
        "specimen": {
          "reference": "urn:uuid:69789031-2d46-402c-9dfa-755eefe75313"
        }
      }
    },
    {
      "fullUrl": "urn:uuid:b0ed76f6-d6c1-46ab-826c-2903e21f4f48",
      "resource": {
        "resourceType": "Observation",
        "id": "b0ed76f6-d6c1-46ab-826c-2903e21f4f48",
        "meta": {
          "profile": [
            "http://hl7.eu/fhir/laboratory/StructureDefinition/Observation-resultslab-eu-lab"
          ]
        },
        "performer": [
          {
            "display": "The Central European Lab"
          }
        ],
        "category": [
          {
            "coding": [
              {
                "system": "http://terminology.hl7.org/CodeSystem/observation-category",
                "code": "laboratory"
              }
            ]
          }
        ],
        "code": {
          "coding": [
            {
              "code": "18262-6",
              "system": "http://loinc.org",
              "display": "Cholesterol in LDL [Mass/volume] in Serum or Plasma by Direct assay"
            }
          ],
          "text": "Cholesterol in LDL [Mass/volume] in Serum or Plasma by Direct assay"
        },
        "valueQuantity": {
          "system": "http://unitsofmeasure.org",
          "value": 119.7,
          "unit": "mg/dL",
          "code": "mg/dL"
        },
        "referenceRange": [
          {
            "low": {
              "value": 0,
              "code": "mg/dL",
              "system": "http://unitsofmeasure.org"
            }
          },
          {
            "high": {
              "value": 130,
              "code": "mg/dL",
              "system": "http://unitsofmeasure.org"
            }
          }
        ],
        "text": {
          "status": "generated",
          "div": "<div xmlns=\"http://www.w3.org/1999/xhtml\"><table class=\"hl7__eu__lab__report\"><tr><th>Test</th><th>07-Jul-2017</th><th>Reference&#xA0;Range</th><th>Unit</th></tr><tr><td>Cholesterol in LDL [Mass/volume] in Serum or Plasma by Direct assay</td><td>119.7</td><td>0 - 130</td><td></td><td>mg/dL</td></tr></table></div>"
        },
        "status": "final",
        "subject": {
          "reference": "urn:uuid:5ccf3a60-7928-4061-af32-bdc27f3fcedf",
          "display": "Martine Couturier"
        },
        "effectiveDateTime": "2017-07-07T20:13:15Z",
        "specimen": {
          "reference": "urn:uuid:69789031-2d46-402c-9dfa-755eefe75313"
        }
      }
    },
    {
      "fullUrl": "urn:uuid:8f111ec9-7d53-4d6e-9b29-be958c98e734",
      "resource": {
        "resourceType": "Observation",
        "id": "8f111ec9-7d53-4d6e-9b29-be958c98e734",
        "meta": {
          "profile": [
            "http://hl7.eu/fhir/laboratory/StructureDefinition/Observation-resultslab-eu-lab"
          ]
        },
        "performer": [
          {
            "display": "The Central European Lab"
          }
        ],
        "category": [
          {
            "coding": [
              {
                "system": "http://terminology.hl7.org/CodeSystem/observation-category",
                "code": "laboratory"
              }
            ]
          }
        ],
        "code": {
          "coding": [
            {
              "code": "2085-9",
              "system": "http://loinc.org",
              "display": "Cholesterol in HDL [Mass/volume] in Serum or Plasma"
            }
          ],
          "text": "Cholesterol in HDL [Mass/volume] in Serum or Plasma"
        },
        "valueQuantity": {
          "system": "http://unitsofmeasure.org",
          "value": 57.3,
          "unit": "mg/dL",
          "code": "mg/dL"
        },
        "referenceRange": [
          {
            "low": {
              "value": 40,
              "code": "mg/dL",
              "system": "http://unitsofmeasure.org"
            }
          },
          {
            "high": {
              "value": 100,
              "code": "mg/dL",
              "system": "http://unitsofmeasure.org"
            }
          }
        ],
        "text": {
          "status": "generated",
          "div": "<div xmlns=\"http://www.w3.org/1999/xhtml\"><table class=\"hl7__eu__lab__report\"><tr><th>Test</th><th>07-Jul-2017</th><th>Reference&#xA0;Range</th><th>Unit</th></tr><tr><td>Cholesterol in HDL [Mass/volume] in Serum or Plasma</td><td>57.3</td><td>40 - 100</td><td></td><td>mg/dL</td></tr></table></div>"
        },
        "status": "final",
        "subject": {
          "reference": "urn:uuid:5ccf3a60-7928-4061-af32-bdc27f3fcedf",
          "display": "Martine Couturier"
        },
        "effectiveDateTime": "2017-07-07T20:13:15Z",
        "specimen": {
          "reference": "urn:uuid:69789031-2d46-402c-9dfa-755eefe75313"
        }
      }
    },
    {
      "fullUrl": "urn:uuid:8e9ada68-ab59-4ef5-a72c-cc40dc68faef",
      "resource": {
        "resourceType": "Observation",
        "id": "8e9ada68-ab59-4ef5-a72c-cc40dc68faef",
        "meta": {
          "profile": [
            "http://hl7.eu/fhir/laboratory/StructureDefinition/Observation-resultslab-eu-lab"
          ]
        },
        "performer": [
          {
            "display": "The Central European Lab"
          }
        ],
        "category": [
          {
            "coding": [
              {
                "system": "http://terminology.hl7.org/CodeSystem/observation-category",
                "code": "laboratory"
              }
            ]
          }
        ],
        "code": {
          "coding": [
            {
              "code": "14959-1",
              "system": "http://loinc.org",
              "display": "Microalbumin/Creatinine [Mass Ratio] in Urine"
            }
          ],
          "text": "Microalbumin/Creatinine [Mass Ratio] in Urine"
        },
        "valueQuantity": {
          "system": "http://unitsofmeasure.org",
          "value": 13.8,
          "unit": "mg/g",
          "code": "mg/g"
        },
        "referenceRange": [
          {
            "low": {
              "value": 0,
              "code": "mg/g",
              "system": "http://unitsofmeasure.org"
            }
          },
          {
            "high": {
              "value": 30,
              "code": "mg/g",
              "system": "http://unitsofmeasure.org"
            }
          }
        ],
        "text": {
          "status": "generated",
          "div": "<div xmlns=\"http://www.w3.org/1999/xhtml\"><table class=\"hl7__eu__lab__report\"><tr><th>Test</th><th>07-Jul-2017</th><th>Reference&#xA0;Range</th><th>Unit</th></tr><tr><td>Microalbumin/Creatinine [Mass Ratio] in Urine</td><td>13.8</td><td>0 - 30</td><td></td><td>mg/g</td></tr></table></div>"
        },
        "status": "final",
        "subject": {
          "reference": "urn:uuid:5ccf3a60-7928-4061-af32-bdc27f3fcedf",
          "display": "Martine Couturier"
        },
        "effectiveDateTime": "2017-07-07T20:13:15Z",
        "specimen": {
          "reference": "urn:uuid:7d2af3cb-80be-4cae-84d2-d7aa17161406"
        }
      }
    },
    {
      "fullUrl": "urn:uuid:5cedf543-477b-455c-9c2c-20869281fba1",
      "resource": {
        "resourceType": "Observation",
        "id": "5cedf543-477b-455c-9c2c-20869281fba1",
        "meta": {
          "profile": [
            "http://hl7.eu/fhir/laboratory/StructureDefinition/Observation-resultslab-eu-lab"
          ]
        },
        "performer": [
          {
            "display": "The Central European Lab"
          }
        ],
        "category": [
          {
            "coding": [
              {
                "system": "http://terminology.hl7.org/CodeSystem/observation-category",
                "code": "laboratory"
              }
            ]
          }
        ],
        "code": {
          "coding": [
            {
              "code": "6690-2",
              "system": "http://loinc.org",
              "display": "Leukocytes [#/volume] in Blood by Automated count"
            }
          ],
          "text": "Leukocytes [#/volume] in Blood by Automated count"
        },
        "valueQuantity": {
          "system": "http://unitsofmeasure.org",
          "value": 9.1,
          "unit": "10*3/uL",
          "code": "10*3/uL"
        },
        "referenceRange": [
          {
            "low": {
              "value": 3.6,
              "code": "10*3/uL",
              "system": "http://unitsofmeasure.org"
            }
          },
          {
            "high": {
              "value": 10.5,
              "code": "10*3/uL",
              "system": "http://unitsofmeasure.org"
            }
          }
        ],
        "text": {
          "status": "generated",
          "div": "<div xmlns=\"http://www.w3.org/1999/xhtml\"><table class=\"hl7__eu__lab__report\"><tr><th>Test</th><th>07-Jul-2017</th><th>Reference&#xA0;Range</th><th>Unit</th></tr><tr><td>Leukocytes [#/volume] in Blood by Automated count</td><td>9.1</td><td>3.6 - 10.5</td><td></td><td>10*3/uL</td></tr></table></div>"
        },
        "status": "final",
        "subject": {
          "reference": "urn:uuid:5ccf3a60-7928-4061-af32-bdc27f3fcedf",
          "display": "Martine Couturier"
        },
        "effectiveDateTime": "2017-07-07T20:13:15Z",
        "specimen": {
          "reference": "urn:uuid:7ec457ab-965f-4599-96ba-7a3d4c714df4"
        }
      }
    },
    {
      "fullUrl": "urn:uuid:13946386-6d94-4f54-a7d5-b2cd28f807ba",
      "resource": {
        "resourceType": "Observation",
        "id": "13946386-6d94-4f54-a7d5-b2cd28f807ba",
        "meta": {
          "profile": [
            "http://hl7.eu/fhir/laboratory/StructureDefinition/Observation-resultslab-eu-lab"
          ]
        },
        "performer": [
          {
            "display": "The Central European Lab"
          }
        ],
        "category": [
          {
            "coding": [
              {
                "system": "http://terminology.hl7.org/CodeSystem/observation-category",
                "code": "laboratory"
              }
            ]
          }
        ],
        "code": {
          "coding": [
            {
              "code": "789-8",
              "system": "http://loinc.org",
              "display": "Erythrocytes [#/volume] in Blood by Automated count"
            }
          ],
          "text": "Erythrocytes [#/volume] in Blood by Automated count"
        },
        "valueQuantity": {
          "system": "http://unitsofmeasure.org",
          "value": 4.3,
          "unit": "10*6/uL",
          "code": "10*6/uL"
        },
        "referenceRange": [
          {
            "low": {
              "value": 4.2,
              "code": "10*6/uL",
              "system": "http://unitsofmeasure.org"
            }
          },
          {
            "high": {
              "value": 5.8,
              "code": "10*6/uL",
              "system": "http://unitsofmeasure.org"
            }
          }
        ],
        "text": {
          "status": "generated",
          "div": "<div xmlns=\"http://www.w3.org/1999/xhtml\"><table class=\"hl7__eu__lab__report\"><tr><th>Test</th><th>07-Jul-2017</th><th>Reference&#xA0;Range</th><th>Unit</th></tr><tr><td>Erythrocytes [#/volume] in Blood by Automated count</td><td>4.3</td><td>4.2 - 5.8</td><td></td><td>10*6/uL</td></tr></table></div>"
        },
        "status": "final",
        "subject": {
          "reference": "urn:uuid:5ccf3a60-7928-4061-af32-bdc27f3fcedf",
          "display": "Martine Couturier"
        },
        "effectiveDateTime": "2017-07-07T20:13:15Z",
        "specimen": {
          "reference": "urn:uuid:7ec457ab-965f-4599-96ba-7a3d4c714df4"
        }
      }
    },
    {
      "fullUrl": "urn:uuid:cf3f2578-298f-4e8a-90ae-14226a3cca5f",
      "resource": {
        "resourceType": "Observation",
        "id": "cf3f2578-298f-4e8a-90ae-14226a3cca5f",
        "meta": {
          "profile": [
            "http://hl7.eu/fhir/laboratory/StructureDefinition/Observation-resultslab-eu-lab"
          ]
        },
        "performer": [
          {
            "display": "The Central European Lab"
          }
        ],
        "category": [
          {
            "coding": [
              {
                "system": "http://terminology.hl7.org/CodeSystem/observation-category",
                "code": "laboratory"
              }
            ]
          }
        ],
        "code": {
          "coding": [
            {
              "code": "718-7",
              "system": "http://loinc.org",
              "display": "Hemoglobin [Mass/volume] in Blood"
            }
          ],
          "text": "Hemoglobin [Mass/volume] in Blood"
        },
        "valueQuantity": {
          "system": "http://unitsofmeasure.org",
          "value": 13.8,
          "unit": "g/dL",
          "code": "g/dL"
        },
        "referenceRange": [
          {
            "low": {
              "value": 12.1,
              "code": "g/dL",
              "system": "http://unitsofmeasure.org"
            }
          },
          {
            "high": {
              "value": 15.5,
              "code": "g/dL",
              "system": "http://unitsofmeasure.org"
            }
          }
        ],
        "text": {
          "status": "generated",
          "div": "<div xmlns=\"http://www.w3.org/1999/xhtml\"><table class=\"hl7__eu__lab__report\"><tr><th>Test</th><th>07-Jul-2017</th><th>Reference&#xA0;Range</th><th>Unit</th></tr><tr><td>Hemoglobin [Mass/volume] in Blood</td><td>13.8</td><td>12.1 - 15.5</td><td></td><td>g/dL</td></tr></table></div>"
        },
        "status": "final",
        "subject": {
          "reference": "urn:uuid:5ccf3a60-7928-4061-af32-bdc27f3fcedf",
          "display": "Martine Couturier"
        },
        "effectiveDateTime": "2017-07-07T20:13:15Z",
        "specimen": {
          "reference": "urn:uuid:7ec457ab-965f-4599-96ba-7a3d4c714df4"
        }
      }
    },
    {
      "fullUrl": "urn:uuid:9be23fe8-1587-43f6-a0bb-86654d873fc8",
      "resource": {
        "resourceType": "Observation",
        "id": "9be23fe8-1587-43f6-a0bb-86654d873fc8",
        "meta": {
          "profile": [
            "http://hl7.eu/fhir/laboratory/StructureDefinition/Observation-resultslab-eu-lab"
          ]
        },
        "performer": [
          {
            "display": "The Central European Lab"
          }
        ],
        "category": [
          {
            "coding": [
              {
                "system": "http://terminology.hl7.org/CodeSystem/observation-category",
                "code": "laboratory"
              }
            ]
          }
        ],
        "code": {
          "coding": [
            {
              "code": "4544-3",
              "system": "http://loinc.org",
              "display": "Hematocrit [Volume Fraction] of Blood by Automated count"
            }
          ],
          "text": "Hematocrit [Volume Fraction] of Blood by Automated count"
        },
        "valueQuantity": {
          "system": "http://unitsofmeasure.org",
          "value": 46.8,
          "unit": "%",
          "code": "%"
        },
        "referenceRange": [
          {
            "low": {
              "value": 37,
              "code": "%",
              "system": "http://unitsofmeasure.org"
            }
          },
          {
            "high": {
              "value": 52,
              "code": "%",
              "system": "http://unitsofmeasure.org"
            }
          }
        ],
        "text": {
          "status": "generated",
          "div": "<div xmlns=\"http://www.w3.org/1999/xhtml\"><table class=\"hl7__eu__lab__report\"><tr><th>Test</th><th>07-Jul-2017</th><th>Reference&#xA0;Range</th><th>Unit</th></tr><tr><td>Hematocrit [Volume Fraction] of Blood by Automated count</td><td>46.8</td><td>37 - 52</td><td></td><td>%</td></tr></table></div>"
        },
        "status": "final",
        "subject": {
          "reference": "urn:uuid:5ccf3a60-7928-4061-af32-bdc27f3fcedf",
          "display": "Martine Couturier"
        },
        "effectiveDateTime": "2017-07-07T20:13:15Z",
        "specimen": {
          "reference": "urn:uuid:7ec457ab-965f-4599-96ba-7a3d4c714df4"
        }
      }
    },
    {
      "fullUrl": "urn:uuid:a8a7d05f-ae9e-4c79-84cb-f9fe1e646bfd",
      "resource": {
        "resourceType": "Observation",
        "id": "a8a7d05f-ae9e-4c79-84cb-f9fe1e646bfd",
        "meta": {
          "profile": [
            "http://hl7.eu/fhir/laboratory/StructureDefinition/Observation-resultslab-eu-lab"
          ]
        },
        "performer": [
          {
            "display": "The Central European Lab"
          }
        ],
        "category": [
          {
            "coding": [
              {
                "system": "http://terminology.hl7.org/CodeSystem/observation-category",
                "code": "laboratory"
              }
            ]
          }
        ],
        "code": {
          "coding": [
            {
              "code": "787-2",
              "system": "http://loinc.org",
              "display": "MCV [Entitic volume] by Automated count"
            }
          ],
          "text": "MCV [Entitic volume] by Automated count"
        },
        "valueQuantity": {
          "system": "http://unitsofmeasure.org",
          "value": 92.2,
          "unit": "fL",
          "code": "fL"
        },
        "referenceRange": [
          {
            "low": {
              "value": 78,
              "code": "fL",
              "system": "http://unitsofmeasure.org"
            }
          },
          {
            "high": {
              "value": 98,
              "code": "fL",
              "system": "http://unitsofmeasure.org"
            }
          }
        ],
        "text": {
          "status": "generated",
          "div": "<div xmlns=\"http://www.w3.org/1999/xhtml\"><table class=\"hl7__eu__lab__report\"><tr><th>Test</th><th>07-Jul-2017</th><th>Reference&#xA0;Range</th><th>Unit</th></tr><tr><td>MCV [Entitic volume] by Automated count</td><td>92.2</td><td>78 - 98</td><td></td><td>fL</td></tr></table></div>"
        },
        "status": "final",
        "subject": {
          "reference": "urn:uuid:5ccf3a60-7928-4061-af32-bdc27f3fcedf",
          "display": "Martine Couturier"
        },
        "effectiveDateTime": "2017-07-07T20:13:15Z",
        "specimen": {
          "reference": "urn:uuid:7ec457ab-965f-4599-96ba-7a3d4c714df4"
        }
      }
    },
    {
      "fullUrl": "urn:uuid:aa95268e-45b4-4aee-9cfd-f685da3170fd",
      "resource": {
        "resourceType": "Observation",
        "id": "aa95268e-45b4-4aee-9cfd-f685da3170fd",
        "meta": {
          "profile": [
            "http://hl7.eu/fhir/laboratory/StructureDefinition/Observation-resultslab-eu-lab"
          ]
        },
        "performer": [
          {
            "display": "The Central European Lab"
          }
        ],
        "category": [
          {
            "coding": [
              {
                "system": "http://terminology.hl7.org/CodeSystem/observation-category",
                "code": "laboratory"
              }
            ]
          }
        ],
        "code": {
          "coding": [
            {
              "code": "785-6",
              "system": "http://loinc.org",
              "display": "MCH [Entitic mass] by Automated count"
            }
          ],
          "text": "MCH [Entitic mass] by Automated count"
        },
        "valueQuantity": {
          "system": "http://unitsofmeasure.org",
          "value": 28.9,
          "unit": "pg",
          "code": "pg"
        },
        "referenceRange": [
          {
            "low": {
              "value": 27,
              "code": "pg",
              "system": "http://unitsofmeasure.org"
            }
          },
          {
            "high": {
              "value": 34.5,
              "code": "pg",
              "system": "http://unitsofmeasure.org"
            }
          }
        ],
        "text": {
          "status": "generated",
          "div": "<div xmlns=\"http://www.w3.org/1999/xhtml\"><table class=\"hl7__eu__lab__report\"><tr><th>Test</th><th>07-Jul-2017</th><th>Reference&#xA0;Range</th><th>Unit</th></tr><tr><td>MCH [Entitic mass] by Automated count</td><td>28.9</td><td>27 - 34.5</td><td></td><td>pg</td></tr></table></div>"
        },
        "status": "final",
        "subject": {
          "reference": "urn:uuid:5ccf3a60-7928-4061-af32-bdc27f3fcedf",
          "display": "Martine Couturier"
        },
        "effectiveDateTime": "2017-07-07T20:13:15Z",
        "specimen": {
          "reference": "urn:uuid:7ec457ab-965f-4599-96ba-7a3d4c714df4"
        }
      }
    },
    {
      "fullUrl": "urn:uuid:e3102b1b-6b1e-42cd-ad3b-815cd56fddd7",
      "resource": {
        "resourceType": "Observation",
        "id": "e3102b1b-6b1e-42cd-ad3b-815cd56fddd7",
        "meta": {
          "profile": [
            "http://hl7.eu/fhir/laboratory/StructureDefinition/Observation-resultslab-eu-lab"
          ]
        },
        "performer": [
          {
            "display": "The Central European Lab"
          }
        ],
        "category": [
          {
            "coding": [
              {
                "system": "http://terminology.hl7.org/CodeSystem/observation-category",
                "code": "laboratory"
              }
            ]
          }
        ],
        "code": {
          "coding": [
            {
              "code": "786-4",
              "system": "http://loinc.org",
              "display": "MCHC [Mass/volume] by Automated count"
            }
          ],
          "text": "MCHC [Mass/volume] by Automated count"
        },
        "valueQuantity": {
          "system": "http://unitsofmeasure.org",
          "value": 34.8,
          "unit": "g/dL",
          "code": "g/dL"
        },
        "referenceRange": [
          {
            "low": {
              "value": 31,
              "code": "g/dL",
              "system": "http://unitsofmeasure.org"
            }
          },
          {
            "high": {
              "value": 35,
              "code": "g/dL",
              "system": "http://unitsofmeasure.org"
            }
          }
        ],
        "text": {
          "status": "generated",
          "div": "<div xmlns=\"http://www.w3.org/1999/xhtml\"><table class=\"hl7__eu__lab__report\"><tr><th>Test</th><th>07-Jul-2017</th><th>Reference&#xA0;Range</th><th>Unit</th></tr><tr><td>MCHC [Mass/volume] by Automated count</td><td>34.8</td><td>31 - 35</td><td></td><td>g/dL</td></tr></table></div>"
        },
        "status": "final",
        "subject": {
          "reference": "urn:uuid:5ccf3a60-7928-4061-af32-bdc27f3fcedf",
          "display": "Martine Couturier"
        },
        "effectiveDateTime": "2017-07-07T20:13:15Z",
        "specimen": {
          "reference": "urn:uuid:7ec457ab-965f-4599-96ba-7a3d4c714df4"
        }
      }
    },
    {
      "fullUrl": "urn:uuid:81a0d596-53ad-4d8b-a35f-277e8182a145",
      "resource": {
        "resourceType": "Observation",
        "id": "81a0d596-53ad-4d8b-a35f-277e8182a145",
        "meta": {
          "profile": [
            "http://hl7.eu/fhir/laboratory/StructureDefinition/Observation-resultslab-eu-lab"
          ]
        },
        "performer": [
          {
            "display": "The Central European Lab"
          }
        ],
        "category": [
          {
            "coding": [
              {
                "system": "http://terminology.hl7.org/CodeSystem/observation-category",
                "code": "laboratory"
              }
            ]
          }
        ],
        "code": {
          "coding": [
            {
              "code": "21000-5",
              "system": "http://loinc.org",
              "display": "Erythrocyte distribution width [Entitic volume] by Automated count"
            }
          ],
          "text": "Erythrocyte distribution width [Entitic volume] by Automated count"
        },
        "valueQuantity": {
          "system": "http://unitsofmeasure.org",
          "value": 43.1,
          "unit": "fL",
          "code": "fL"
        },
        "referenceRange": [
          {
            "low": {
              "value": 36,
              "code": "fL",
              "system": "http://unitsofmeasure.org"
            }
          },
          {
            "high": {
              "value": 55,
              "code": "fL",
              "system": "http://unitsofmeasure.org"
            }
          }
        ],
        "text": {
          "status": "generated",
          "div": "<div xmlns=\"http://www.w3.org/1999/xhtml\"><table class=\"hl7__eu__lab__report\"><tr><th>Test</th><th>07-Jul-2017</th><th>Reference&#xA0;Range</th><th>Unit</th></tr><tr><td>Erythrocyte distribution width [Entitic volume] by Automated count</td><td>43.1</td><td>36 - 55</td><td></td><td>fL</td></tr></table></div>"
        },
        "status": "final",
        "subject": {
          "reference": "urn:uuid:5ccf3a60-7928-4061-af32-bdc27f3fcedf",
          "display": "Martine Couturier"
        },
        "effectiveDateTime": "2017-07-07T20:13:15Z",
        "specimen": {
          "reference": "urn:uuid:7ec457ab-965f-4599-96ba-7a3d4c714df4"
        }
      }
    },
    {
      "fullUrl": "urn:uuid:3bbba3a8-a054-4153-922a-f1e753a4471b",
      "resource": {
        "resourceType": "Observation",
        "id": "3bbba3a8-a054-4153-922a-f1e753a4471b",
        "meta": {
          "profile": [
            "http://hl7.eu/fhir/laboratory/StructureDefinition/Observation-resultslab-eu-lab"
          ]
        },
        "performer": [
          {
            "display": "The Central European Lab"
          }
        ],
        "category": [
          {
            "coding": [
              {
                "system": "http://terminology.hl7.org/CodeSystem/observation-category",
                "code": "laboratory"
              }
            ]
          }
        ],
        "code": {
          "coding": [
            {
              "code": "777-3",
              "system": "http://loinc.org",
              "display": "Platelets [#/volume] in Blood by Automated count"
            }
          ],
          "text": "Platelets [#/volume] in Blood by Automated count"
        },
        "valueQuantity": {
          "system": "http://unitsofmeasure.org",
          "value": 345.1,
          "unit": "10*3/uL",
          "code": "10*3/uL"
        },
        "referenceRange": [
          {
            "low": {
              "value": 150,
              "code": "10*3/uL",
              "system": "http://unitsofmeasure.org"
            }
          },
          {
            "high": {
              "value": 450,
              "code": "10*3/uL",
              "system": "http://unitsofmeasure.org"
            }
          }
        ],
        "text": {
          "status": "generated",
          "div": "<div xmlns=\"http://www.w3.org/1999/xhtml\"><table class=\"hl7__eu__lab__report\"><tr><th>Test</th><th>07-Jul-2017</th><th>Reference&#xA0;Range</th><th>Unit</th></tr><tr><td>Platelets [#/volume] in Blood by Automated count</td><td>345.1</td><td>150 - 450</td><td></td><td>10*3/uL</td></tr></table></div>"
        },
        "status": "final",
        "subject": {
          "reference": "urn:uuid:5ccf3a60-7928-4061-af32-bdc27f3fcedf",
          "display": "Martine Couturier"
        },
        "effectiveDateTime": "2017-07-07T20:13:15Z",
        "specimen": {
          "reference": "urn:uuid:7ec457ab-965f-4599-96ba-7a3d4c714df4"
        }
      }
    },
    {
      "fullUrl": "urn:uuid:57e314eb-7060-474a-b429-f3826414268b",
      "resource": {
        "resourceType": "Observation",
        "id": "57e314eb-7060-474a-b429-f3826414268b",
        "meta": {
          "profile": [
            "http://hl7.eu/fhir/laboratory/StructureDefinition/Observation-resultslab-eu-lab"
          ]
        },
        "performer": [
          {
            "display": "The Central European Lab"
          }
        ],
        "category": [
          {
            "coding": [
              {
                "system": "http://terminology.hl7.org/CodeSystem/observation-category",
                "code": "laboratory"
              }
            ]
          }
        ],
        "code": {
          "coding": [
            {
              "code": "32207-3",
              "system": "http://loinc.org",
              "display": "Platelet distribution width [Entitic volume] in Blood by Automated count"
            }
          ],
          "text": "Platelet distribution width [Entitic volume] in Blood by Automated count"
        },
        "valueQuantity": {
          "system": "http://unitsofmeasure.org",
          "value": 365.8,
          "unit": "fL",
          "code": "fL"
        },
        "referenceRange": [
          {
            "low": {
              "value": 11.6,
              "code": "fL",
              "system": "http://unitsofmeasure.org"
            }
          },
          {
            "high": {
              "value": 17.4,
              "code": "fL",
              "system": "http://unitsofmeasure.org"
            }
          }
        ],
        "interpretation": [
          {
            "coding": [
              {
                "code": "H",
                "system": "http://terminology.hl7.org/CodeSystem/v3-ObservationInterpretation",
                "display": "High"
              }
            ]
          }
        ],
        "text": {
          "status": "generated",
          "div": "<div xmlns=\"http://www.w3.org/1999/xhtml\"><table class=\"hl7__eu__lab__report\"><tr><th>Test</th><th>07-Jul-2017</th><th>Reference&#xA0;Range</th><th>Unit</th></tr><tr><td>Platelet distribution width [Entitic volume] in Blood by Automated count</td><td>365.8</td><td>11.6 - 17.4</td><td>H</td><td>fL</td></tr></table></div>"
        },
        "status": "final",
        "subject": {
          "reference": "urn:uuid:5ccf3a60-7928-4061-af32-bdc27f3fcedf",
          "display": "Martine Couturier"
        },
        "effectiveDateTime": "2017-07-07T20:13:15Z",
        "specimen": {
          "reference": "urn:uuid:7ec457ab-965f-4599-96ba-7a3d4c714df4"
        }
      }
    },
    {
      "fullUrl": "urn:uuid:18f14925-4961-4a2b-9339-a5e44d7b3d84",
      "resource": {
        "resourceType": "Observation",
        "id": "18f14925-4961-4a2b-9339-a5e44d7b3d84",
        "meta": {
          "profile": [
            "http://hl7.eu/fhir/laboratory/StructureDefinition/Observation-resultslab-eu-lab"
          ]
        },
        "performer": [
          {
            "display": "The Central European Lab"
          }
        ],
        "category": [
          {
            "coding": [
              {
                "system": "http://terminology.hl7.org/CodeSystem/observation-category",
                "code": "laboratory"
              }
            ]
          }
        ],
        "code": {
          "coding": [
            {
              "code": "32623-1",
              "system": "http://loinc.org",
              "display": "Platelet mean volume [Entitic volume] in Blood by Automated count"
            }
          ],
          "text": "Platelet mean volume [Entitic volume] in Blood by Automated count"
        },
        "valueQuantity": {
          "system": "http://unitsofmeasure.org",
          "value": 11.2,
          "unit": "fL",
          "code": "fL"
        },
        "referenceRange": [
          {
            "low": {
              "value": 7.2,
              "code": "fL",
              "system": "http://unitsofmeasure.org"
            }
          },
          {
            "high": {
              "value": 13.8,
              "code": "fL",
              "system": "http://unitsofmeasure.org"
            }
          }
        ],
        "text": {
          "status": "generated",
          "div": "<div xmlns=\"http://www.w3.org/1999/xhtml\"><table class=\"hl7__eu__lab__report\"><tr><th>Test</th><th>07-Jul-2017</th><th>Reference&#xA0;Range</th><th>Unit</th></tr><tr><td>Platelet mean volume [Entitic volume] in Blood by Automated count</td><td>11.2</td><td>7.2 - 13.8</td><td></td><td>fL</td></tr></table></div>"
        },
        "status": "final",
        "subject": {
          "reference": "urn:uuid:5ccf3a60-7928-4061-af32-bdc27f3fcedf",
          "display": "Martine Couturier"
        },
        "effectiveDateTime": "2017-07-07T20:13:15Z",
        "specimen": {
          "reference": "urn:uuid:7ec457ab-965f-4599-96ba-7a3d4c714df4"
        }
      }
    },
    {
      "fullUrl": "urn:uuid:e5b09c4e-f275-49a8-8f39-36f854b69e0f",
      "resource": {
        "resourceType": "Device",
        "id": "e5b09c4e-f275-49a8-8f39-36f854b69e0f",
        "deviceName": [
          {
            "name": "SYNDERAI Synthetic Generator",
            "type": "manufacturer-name"
          }
        ],
        "version": [
          {
            "value": "5.0"
          }
        ],
        "text": {
          "status": "generated",
          "div": "<div xmlns=\"http://www.w3.org/1999/xhtml\">SYNDERAI Synthetic Generator v5.0</div>"
        },
        "status": "active\"",
        "distinctIdentifier": "synderai-generator-50",
        "manufacturer": "SYNDERAI Project"
      }
    },
    {
      "fullUrl": "urn:uuid:b8ff5e3d-afba-431f-b099-e270d677090e",
      "resource": {
        "resourceType": "Provenance",
        "id": "b8ff5e3d-afba-431f-b099-e270d677090e",
        "target": [
          {
            "reference": "Patient/5ccf3a60-7928-4061-af32-bdc27f3fcedf"
          },
          {
            "reference": "Bundle/a6025fdc-5ef4-435f-8337-ad7c05d958da"
          },
          {
            "reference": "Composition/969e3d8d-ee9c-490a-8425-56971672547e"
          },
          {
            "reference": "PractitionerRole/c2d26edb-330a-40d2-b520-333fc685f1ca"
          },
          {
            "reference": "Practitioner/2dd18a88-884d-425d-bccb-6c2c1e9c6651"
          },
          {
            "reference": "PractitionerRole/49fdd4bb-99ae-45fb-b575-5fd3c3fa59fe"
          },
          {
            "reference": "Organization/20cc88d9-16ed-4721-b7ab-ab7d5930846b"
          }
        ],
        "activity": {
          "text": "Synthetic Example Data Generation"
        },
        "policy": [
          "https://synderai.net/synderai-synthetic-data-policy"
        ],
        "agent": [
          {
            "type": {
              "text": "author"
            },
            "who": {
              "reference": "Device/e5b09c4e-f275-49a8-8f39-36f854b69e0f"
            }
          }
        ],
        "reason": [
          {
            "text": "Interoperability Testing and Training (non-clinical use)"
          }
        ],
        "text": {
          "status": "generated",
          "div": "<div xmlns=\"http://www.w3.org/1999/xhtml\">Provenance for SYNDERAI Synthetic Example Data Resource</div>"
        },
        "recorded": "2017-07-07T22:13:15Z"
      }
    },
    {
      "fullUrl": "urn:uuid:c2d26edb-330a-40d2-b520-333fc685f1ca",
      "resource": {
        "resourceType": "PractitionerRole",
        "id": "c2d26edb-330a-40d2-b520-333fc685f1ca",
        "meta": {
          "profile": [
            "http://hl7.eu/fhir/base/StructureDefinition/practitionerRole-eu"
          ]
        },
        "text": {
          "status": "generated",
          "div": "<div xmlns=\"http://www.w3.org/1999/xhtml\">Laboratory Role Id: c2d26edb-330a-40d2-b520-333fc685f1ca</div>"
        },
        "practitioner": {
          "reference": "urn:uuid:2dd18a88-884d-425d-bccb-6c2c1e9c6651"
        }
      }
    },
    {
      "fullUrl": "urn:uuid:2dd18a88-884d-425d-bccb-6c2c1e9c6651",
      "resource": {
        "resourceType": "Practitioner",
        "id": "2dd18a88-884d-425d-bccb-6c2c1e9c6651",
        "meta": {
          "profile": [
            "http://hl7.eu/fhir/base/StructureDefinition/practitioner-eu"
          ]
        },
        "identifier": [
          {
            "assigner": {
              "display": "HL7 Europe"
            },
            "system": "urn:oid:2.16.840.1.113883.2.51.999",
            "value": "c8452589-b27e-428c-b42a-229ccff76d48"
          }
        ],
        "name": [
          {
            "prefix": [
              "dr"
            ],
            "given": [
              "Ex"
            ],
            "family": "Ample"
          }
        ],
        "address": [
          {
            "line": [
              "Laboratoire Central Européenne",
              "Boulevard du Jardin Botanique 32"
            ],
            "postalCode": "1000",
            "city": "Brussels",
            "country": "Belgium"
          }
        ],
        "text": {
          "status": "generated",
          "div": "<div xmlns=\"http://www.w3.org/1999/xhtml\">Laboratory: Laboratoire Central Européenne, 1000 Brussels, Belgium</div>"
        }
      }
    }
  ],
  "type": "document",
  "timestamp": "2017-07-07T22:13:15Z"
}
