{
  "resourceType": "Bundle",
  "id": "51eb55b7-5bb6-45d5-958b-691e58d0bd94",
  "meta": {
    "profile": [
      "http://hl7.eu/fhir/laboratory/StructureDefinition/Bundle-eu-lab"
    ]
  },
  "identifier": {
    "assigner": {
      "display": "HL7 Europe"
    },
    "system": "urn:oid:2.16.840.1.113883.2.51.999",
    "value": "18e91c7a-e167-422c-ab59-7128bf7d1ae3"
  },
  "entry": [
    {
      "fullUrl": "urn:uuid:1c90389c-e958-4f17-92b9-41fb7195a421",
      "resource": {
        "resourceType": "Composition",
        "id": "1c90389c-e958-4f17-92b9-41fb7195a421",
        "meta": {
          "profile": [
            "http://hl7.eu/fhir/laboratory/StructureDefinition/Composition-eu-lab"
          ]
        },
        "identifier": {
          "assigner": {
            "display": "HL7 Europe"
          },
          "system": "urn:oid:2.16.840.1.113883.2.51.999",
          "value": "133fe7aa-05de-4819-ae48-d785a76fea55"
        },
        "author": [
          {
            "reference": "urn:uuid:2f6a8793-f757-42e5-883c-3e36eae5e2c2"
          }
        ],
        "category": [
          {
            "coding": [
              {
                "code": "26436-6",
                "system": "http://loinc.org",
                "display": "Laboratory studies (set)"
              }
            ]
          }
        ],
        "type": {
          "coding": [
            {
              "code": "11502-2",
              "system": "http://loinc.org",
              "display": "Laboratory report"
            }
          ],
          "text": "Laboratory Report"
        },
        "section": [
          {
            "code": {
              "coding": [
                {
                  "code": "26436-6",
                  "system": "http://loinc.org",
                  "display": "Laboratory studies (set)"
                }
              ],
              "text": "Laboratory studies"
            },
            "section": [
              {
                "code": {
                  "coding": [
                    {
                      "code": "$18719-5",
                      "system": "http://loinc.org",
                      "display": "Chemistry studies (set)"
                    }
                  ],
                  "text": "Chemistry"
                },
                "entry": [
                  {
                    "reference": "urn:uuid:8e6878a0-dfe7-42ed-9d9c-e5990a9833b0"
                  },
                  {
                    "reference": "urn:uuid:42935a1e-7abd-4a2f-93ed-03f4dbd35ba5"
                  },
                  {
                    "reference": "urn:uuid:7514f3ac-2f42-401b-9981-381bf62748e8"
                  },
                  {
                    "reference": "urn:uuid:2d83572e-514a-406c-8d79-6640c27d8a12"
                  },
                  {
                    "reference": "urn:uuid:e609f44d-ed40-4f69-bdea-861ffe3b0ce9"
                  },
                  {
                    "reference": "urn:uuid:4cea1292-f3ee-457b-9489-4d873f822ca0"
                  },
                  {
                    "reference": "urn:uuid:e1eb6e03-c626-4526-8e25-f7f5421199f5"
                  },
                  {
                    "reference": "urn:uuid:64d03e1f-31ab-400c-a0eb-01afb118cd36"
                  },
                  {
                    "reference": "urn:uuid:0a7e1396-aaf8-4ed4-bc9b-a5b628e5e4a2"
                  },
                  {
                    "reference": "urn:uuid:6917e130-1902-4774-9422-96cd7a2ae4a4"
                  },
                  {
                    "reference": "urn:uuid:3cbcaafa-41b3-49c3-91da-0ab7e3b676ae"
                  },
                  {
                    "reference": "urn:uuid:effd83de-a92d-408e-a71b-ed724e4f10e4"
                  },
                  {
                    "reference": "urn:uuid:bf293abb-a4c9-4cb4-9971-72621978cab5"
                  },
                  {
                    "reference": "urn:uuid:7080c873-9b2b-4517-9c23-4fda0d6cc5ee"
                  },
                  {
                    "reference": "urn:uuid:06036f39-f64a-4134-b4e5-22ab2ff81372"
                  },
                  {
                    "reference": "urn:uuid:3ff913a8-59a6-4dc6-b47f-89ce3bc8d0c3"
                  },
                  {
                    "reference": "urn:uuid:115d6fc2-1897-4b3b-9ba4-c4c796e270f2"
                  },
                  {
                    "reference": "urn:uuid:f22b3693-f0d8-4302-af9c-7d02f89e5d63"
                  },
                  {
                    "reference": "urn:uuid:305bd8cb-b2a0-4ac5-8f1a-c623d18c7f58"
                  }
                ],
                "text": {
                  "status": "generated",
                  "div": "<div xmlns=\"http://www.w3.org/1999/xhtml\"><h3>Chemistry</h3><table class=\"hl7__eu__lab__report\"><thead><tr><th>Test</th><th>02-SEP-2019</th><th>Reference&#xA0;Range</th><th>Unit</th></tr></thead><tbody><tr><td>Glucose [Mass/volume] in Blood</td><td><strong>67.5 L</strong></td><td>70 - 140</td><td>mg/dL</td></tr><tr><td>Urea nitrogen [Mass/volume] in Blood</td><td>9.8</td><td>7 - 20</td><td>mg/dL</td></tr><tr><td>Creatinine [Mass/volume] in Blood</td><td><strong>3.2 H</strong></td><td>0.6 - 1.3</td><td>mg/dL</td></tr><tr><td>Calcium [Mass/volume] in Blood</td><td>9.2</td><td>8.5 - 10.5</td><td>mg/dL</td></tr><tr><td>Sodium [Moles/volume] in Blood</td><td>137.4</td><td>135 - 145</td><td>mmol/L</td></tr><tr><td>Potassium [Moles/volume] in Blood</td><td>4.4</td><td>3.5 - 5.1</td><td>mmol/L</td></tr><tr><td>Chloride [Moles/volume] in Blood</td><td>103.3</td><td>98 - 108</td><td>mmol/L</td></tr><tr><td>Carbon dioxide, total [Moles/volume] in Blood</td><td>25.8</td><td>22 - 32</td><td>mmol/L</td></tr><tr><td>Protein [Mass/volume] in Serum or Plasma</td><td>7.5</td><td>6.6 - 8.3</td><td>g/dL</td></tr><tr><td>Albumin [Mass/volume] in Serum or Plasma</td><td>4.3</td><td>3.5 - 5.5</td><td>g/dL</td></tr><tr><td>Globulin [Mass/volume] in Serum by calculation</td><td>2.5</td><td>2 - 3.5</td><td>g/L</td></tr><tr><td>Bilirubin.total [Mass/volume] in Serum or Plasma</td><td>0.4</td><td>0.3 - 1.2</td><td>mg/dL</td></tr><tr><td>Alkaline phosphatase [Enzymatic activity/volume] in Serum or Plasma</td><td>70.1</td><td>53 - 130</td><td>U/L</td></tr><tr><td>Alanine aminotransferase [Enzymatic activity/volume] in Serum or Plasma</td><td>41.8</td><td>7 - 60</td><td>U/L</td></tr><tr><td>Aspartate aminotransferase [Enzymatic activity/volume] in Serum or Plasma</td><td>30.3</td><td>10 - 49</td><td>U/L</td></tr><tr><td>Cholesterol [Mass/volume] in Serum or Plasma</td><td>150.1</td><td>125 - 200</td><td>mg/dL</td></tr><tr><td>Triglyceride [Mass/volume] in Serum or Plasma</td><td><strong>178.4 H</strong></td><td>40 - 150</td><td>mg/dL</td></tr><tr><td>Cholesterol in LDL [Mass/volume] in Serum or Plasma by Direct assay</td><td>92.7</td><td>0 - 190</td><td>mg/dL</td></tr><tr><td>Cholesterol in HDL [Mass/volume] in Serum or Plasma</td><td><strong>38.1 L</strong></td><td>40 - 60</td><td>mg/dL</td></tr></tbody></table></div>"
                },
                "title": "Chemistry"
              }
            ],
            "title": "Laboratory Report"
          },
          {
            "text": {
              "status": "generated",
              "div": "<div xmlns=\"http://www.w3.org/1999/xhtml\"><h3>Annotation</h3><table class=\"hl7__eu__lab__report\"><tr><th>Conclusion and Recommendations based on this report and previous findings known to us</th></tr><tr><td>The patient shows elevated creatinine, suggesting impaired renal function, and mild hypoglycemia. Triglycerides are elevated and HDL cholesterol is low, indicating increased cardiovascular risk. Other parameters, including liver enzymes, electrolytes, and proteins, are within normal limits. Renal function and metabolic status should be further evaluated and monitored.</td></tr></table></div>"
            },
            "code": {
              "coding": [
                {
                  "system": "http://loinc.org",
                  "code": "48767-8",
                  "display": "Annotation comment"
                }
              ]
            },
            "title": "Annotation comment"
          }
        ],
        "status": "final",
        "subject": {
          "reference": "urn:uuid:5090d9aa-37e9-48a1-a727-73894c29b2e9",
          "display": "Leonhard Köhler"
        },
        "date": "2019-09-02T04:48:23Z",
        "title": "Laboratory Report",
        "confidentiality": "N"
      }
    },
    {
      "fullUrl": "urn:uuid:73d66a6a-d4a0-491a-81e0-4d8c27563a04",
      "resource": {
        "resourceType": "DiagnosticReport",
        "id": "73d66a6a-d4a0-491a-81e0-4d8c27563a04",
        "meta": {
          "profile": [
            "http://hl7.eu/fhir/laboratory/StructureDefinition/DiagnosticReport-eu-lab"
          ]
        },
        "identifier": [
          {
            "assigner": {
              "display": "HL7 Europe"
            },
            "system": "urn:oid:2.16.840.1.113883.2.51.999",
            "value": "746687d8-9e65-4541-9339-893333bb519f"
          }
        ],
        "extension": [
          {
            "url": "http://hl7.org/fhir/5.0/StructureDefinition/extension-DiagnosticReport.composition",
            "valueReference": {
              "reference": "urn:uuid:133fe7aa-05de-4819-ae48-d785a76fea55"
            }
          }
        ],
        "category": [
          {
            "coding": [
              {
                "code": "26436-6",
                "system": "http://loinc.org",
                "display": "Laboratory studies (set)"
              }
            ]
          }
        ],
        "specimen": [
          {
            "reference": "urn:uuid:9c50ce02-d072-467a-b961-258869dc40b5"
          },
          {
            "reference": "urn:uuid:5627d55d-4be4-404f-956c-5a63a909f786"
          },
          {
            "reference": "urn:uuid:d82edbb3-7737-474d-bfb9-9cbca6ae262c"
          }
        ],
        "result": [
          {
            "reference": "urn:uuid:8e6878a0-dfe7-42ed-9d9c-e5990a9833b0"
          },
          {
            "reference": "urn:uuid:42935a1e-7abd-4a2f-93ed-03f4dbd35ba5"
          },
          {
            "reference": "urn:uuid:7514f3ac-2f42-401b-9981-381bf62748e8"
          },
          {
            "reference": "urn:uuid:2d83572e-514a-406c-8d79-6640c27d8a12"
          },
          {
            "reference": "urn:uuid:e609f44d-ed40-4f69-bdea-861ffe3b0ce9"
          },
          {
            "reference": "urn:uuid:4cea1292-f3ee-457b-9489-4d873f822ca0"
          },
          {
            "reference": "urn:uuid:e1eb6e03-c626-4526-8e25-f7f5421199f5"
          },
          {
            "reference": "urn:uuid:64d03e1f-31ab-400c-a0eb-01afb118cd36"
          },
          {
            "reference": "urn:uuid:0a7e1396-aaf8-4ed4-bc9b-a5b628e5e4a2"
          },
          {
            "reference": "urn:uuid:6917e130-1902-4774-9422-96cd7a2ae4a4"
          },
          {
            "reference": "urn:uuid:3cbcaafa-41b3-49c3-91da-0ab7e3b676ae"
          },
          {
            "reference": "urn:uuid:effd83de-a92d-408e-a71b-ed724e4f10e4"
          },
          {
            "reference": "urn:uuid:bf293abb-a4c9-4cb4-9971-72621978cab5"
          },
          {
            "reference": "urn:uuid:7080c873-9b2b-4517-9c23-4fda0d6cc5ee"
          },
          {
            "reference": "urn:uuid:06036f39-f64a-4134-b4e5-22ab2ff81372"
          },
          {
            "reference": "urn:uuid:3ff913a8-59a6-4dc6-b47f-89ce3bc8d0c3"
          },
          {
            "reference": "urn:uuid:115d6fc2-1897-4b3b-9ba4-c4c796e270f2"
          },
          {
            "reference": "urn:uuid:f22b3693-f0d8-4302-af9c-7d02f89e5d63"
          },
          {
            "reference": "urn:uuid:305bd8cb-b2a0-4ac5-8f1a-c623d18c7f58"
          }
        ],
        "status": "registered",
        "code": {
          "coding": [
            {
              "code": "11502-2",
              "system": "http://loinc.org",
              "display": "Laboratory report"
            }
          ]
        },
        "subject": {
          "reference": "urn:uuid:5090d9aa-37e9-48a1-a727-73894c29b2e9",
          "display": "Leonhard Köhler"
        }
      }
    },
    {
      "fullUrl": "urn:uuid:5090d9aa-37e9-48a1-a727-73894c29b2e9",
      "resource": {
        "resourceType": "Patient",
        "id": "5090d9aa-37e9-48a1-a727-73894c29b2e9",
        "meta": {
          "security": [
            {
              "system": "http://terminology.hl7.org/CodeSystem/v3-ActReason",
              "code": "HTEST"
            },
            {
              "system": "http://terminology.hl7.org/CodeSystem/v3-ActReason",
              "code": "TRAIN"
            }
          ],
          "tag": [
            {
              "system": "https://synderai.net/fhir/CodeSystem/tags",
              "code": "synthetic",
              "display": "SYNDERAI Synthetic data"
            }
          ],
          "profile": [
            "http://hl7.eu/fhir/base/StructureDefinition/patient-eu-core"
          ]
        },
        "identifier": [
          {
            "type": {
              "coding": [
                {
                  "code": "PT",
                  "system": "http://terminology.hl7.org/CodeSystem/v2-0203"
                }
              ]
            },
            "system": "http://ec.europa.eu/identifier/eci",
            "value": "5321-442678-4"
          },
          {
            "type": {
              "coding": [
                {
                  "code": "MR",
                  "system": "http://terminology.hl7.org/CodeSystem/v2-0203"
                }
              ]
            },
            "system": "http://local.setting.eu/identifier",
            "value": "ffa9f0d8-c016-d46c-e666-000f53715b47"
          }
        ],
        "name": [
          {
            "family": "Köhler"
          },
          {
            "given": [
              "Leonhard"
            ]
          },
          {
            "text": "Leonhard Köhler"
          }
        ],
        "address": [
          {
            "line": [
              "Henckweg 97/34"
            ],
            "use": "home",
            "type": "physical",
            "postalCode": "87629",
            "city": "Füssen",
            "country": "Germany"
          }
        ],
        "telecom": [
          {
            "system": "phone",
            "value": "00028839855"
          }
        ],
        "extension": [
          {
            "url": "http://hl7.org/fhir/StructureDefinition/patient-nationality",
            "valueCodeableConcept": {
              "coding": [
                {
                  "code": "DE",
                  "system": "http://hl7.org/fhir/ValueSet/country"
                }
              ]
            }
          }
        ],
        "text": {
          "status": "generated",
          "div": "<div xmlns=\"http://www.w3.org/1999/xhtml\"><table class=\"hl7__ips\"><tr><td>Leonhard Köhler</td><td>male</td><td>19-Dec-1949</td></tr></table></div>"
        },
        "gender": "male",
        "birthDate": "1949-12-19"
      }
    },
    {
      "fullUrl": "urn:uuid:95ac55fa-daea-4597-80ca-6e0d05ef509a",
      "resource": {
        "resourceType": "ServiceRequest",
        "id": "95ac55fa-daea-4597-80ca-6e0d05ef509a",
        "meta": {
          "profile": [
            "http://hl7.eu/fhir/laboratory/StructureDefinition/ServiceRequest-eu-lab"
          ]
        },
        "identifier": [
          {
            "system": "http://example.org",
            "value": "336abe73-d3b6-4350-9983-bde5a32e215d"
          }
        ],
        "specimen": [
          {
            "reference": "urn:uuid:9c50ce02-d072-467a-b961-258869dc40b5"
          },
          {
            "reference": "urn:uuid:5627d55d-4be4-404f-956c-5a63a909f786"
          },
          {
            "reference": "urn:uuid:d82edbb3-7737-474d-bfb9-9cbca6ae262c"
          }
        ],
        "reasonCode": [
          {
            "coding": [
              {
                "code": "55822004",
                "system": "http://snomed.info/sct",
                "display": "Hyperlipidemia"
              }
            ]
          },
          {
            "coding": [
              {
                "code": "414545008",
                "system": "http://snomed.info/sct",
                "display": "Ischemic heart disease"
              }
            ]
          },
          {
            "coding": [
              {
                "code": "59621000",
                "system": "http://snomed.info/sct",
                "display": "Essential hypertension"
              }
            ]
          },
          {
            "coding": [
              {
                "code": "239873007",
                "system": "http://snomed.info/sct",
                "display": "Osteoarthritis of knee"
              }
            ]
          },
          {
            "coding": [
              {
                "code": "271737000",
                "system": "http://snomed.info/sct",
                "display": "Anemia"
              }
            ]
          },
          {
            "coding": [
              {
                "code": "15777000",
                "system": "http://snomed.info/sct",
                "display": "Prediabetes"
              }
            ]
          }
        ],
        "status": "active",
        "intent": "order",
        "code": {
          "coding": [
            {
              "code": "108252007",
              "system": "http://snomed.info/sct",
              "display": "Laboratory procedure"
            }
          ]
        },
        "subject": {
          "reference": "urn:uuid:5090d9aa-37e9-48a1-a727-73894c29b2e9",
          "display": "Leonhard Köhler"
        },
        "requester": {
          "reference": "urn:uuid:6f1c2e5e-c48e-4add-a1f6-1e602113b5fb"
        }
      }
    },
    {
      "fullUrl": "urn:uuid:6f1c2e5e-c48e-4add-a1f6-1e602113b5fb",
      "resource": {
        "resourceType": "PractitionerRole",
        "id": "6f1c2e5e-c48e-4add-a1f6-1e602113b5fb",
        "meta": {
          "profile": [
            "http://hl7.eu/fhir/base/StructureDefinition/practitionerRole-eu"
          ]
        },
        "text": {
          "status": "generated",
          "div": "<div xmlns=\"http://www.w3.org/1999/xhtml\">Provider Role Id: 6f1c2e5e-c48e-4add-a1f6-1e602113b5fb</div>"
        },
        "organization": {
          "reference": "urn:uuid:23c41881-421d-4ff6-b899-465554ad08d9"
        }
      }
    },
    {
      "fullUrl": "urn:uuid:23c41881-421d-4ff6-b899-465554ad08d9",
      "resource": {
        "resourceType": "Organization",
        "id": "23c41881-421d-4ff6-b899-465554ad08d9",
        "meta": {
          "profile": [
            "http://hl7.eu/fhir/base/StructureDefinition/organization-eu"
          ]
        },
        "identifier": [
          {
            "assigner": {
              "display": "HL7 Europe"
            },
            "system": "urn:oid:2.16.840.1.113883.2.51.999",
            "value": "d2b7e3ab-b290-4ac3-9054-37ba949aca4d"
          }
        ],
        "address": [
          {
            "line": [
              "Feistlestraße 2"
            ],
            "city": "Füssen",
            "postalCode": "87629",
            "country": "Germany"
          }
        ],
        "text": {
          "status": "generated",
          "div": "<div xmlns=\"http://www.w3.org/1999/xhtml\">Provider Organization: hier ist kein Ärztehaus</div>"
        },
        "name": "hier ist kein Ärztehaus"
      }
    },
    {
      "fullUrl": "urn:uuid:9c50ce02-d072-467a-b961-258869dc40b5",
      "resource": {
        "resourceType": "Specimen",
        "id": "9c50ce02-d072-467a-b961-258869dc40b5",
        "meta": {
          "profile": [
            "http://hl7.eu/fhir/laboratory/StructureDefinition/Specimen-eu-lab"
          ]
        },
        "collection": {
          "collectedDateTime": "2019-09-02"
        },
        "text": {
          "status": "generated",
          "div": "<div xmlns=\"http://www.w3.org/1999/xhtml\"><table class=\"hl7__eu__lab__report\"><tr><th>Specimen</th><th>Collection Date</th></tr><tr><td>Whole blood specimen (specimen)</td><td><span class=\"nb\">02-Sep-2019</span></td></tr></table></div>"
        },
        "type": {
          "coding": [
            {
              "code": "258580003",
              "system": "http://snomed.info/sct",
              "display": "Whole blood specimen (specimen)"
            }
          ]
        }
      }
    },
    {
      "fullUrl": "urn:uuid:5627d55d-4be4-404f-956c-5a63a909f786",
      "resource": {
        "resourceType": "Specimen",
        "id": "5627d55d-4be4-404f-956c-5a63a909f786",
        "meta": {
          "profile": [
            "http://hl7.eu/fhir/laboratory/StructureDefinition/Specimen-eu-lab"
          ]
        },
        "collection": {
          "collectedDateTime": "2019-09-02"
        },
        "text": {
          "status": "generated",
          "div": "<div xmlns=\"http://www.w3.org/1999/xhtml\"><table class=\"hl7__eu__lab__report\"><tr><th>Specimen</th><th>Collection Date</th></tr><tr><td>Acellular blood (serum or plasma) specimen</td><td><span class=\"nb\">02-Sep-2019</span></td></tr></table></div>"
        },
        "type": {
          "coding": [
            {
              "code": "122592007",
              "system": "http://snomed.info/sct",
              "display": "Acellular blood (serum or plasma) specimen"
            }
          ]
        }
      }
    },
    {
      "fullUrl": "urn:uuid:d82edbb3-7737-474d-bfb9-9cbca6ae262c",
      "resource": {
        "resourceType": "Specimen",
        "id": "d82edbb3-7737-474d-bfb9-9cbca6ae262c",
        "meta": {
          "profile": [
            "http://hl7.eu/fhir/laboratory/StructureDefinition/Specimen-eu-lab"
          ]
        },
        "collection": {
          "collectedDateTime": "2019-09-02"
        },
        "text": {
          "status": "generated",
          "div": "<div xmlns=\"http://www.w3.org/1999/xhtml\"><table class=\"hl7__eu__lab__report\"><tr><th>Specimen</th><th>Collection Date</th></tr><tr><td>Serum specimen</td><td><span class=\"nb\">02-Sep-2019</span></td></tr></table></div>"
        },
        "type": {
          "coding": [
            {
              "code": "119364003",
              "system": "http://snomed.info/sct",
              "display": "Serum specimen"
            }
          ]
        }
      }
    },
    {
      "fullUrl": "urn:uuid:8e6878a0-dfe7-42ed-9d9c-e5990a9833b0",
      "resource": {
        "resourceType": "Observation",
        "id": "8e6878a0-dfe7-42ed-9d9c-e5990a9833b0",
        "meta": {
          "profile": [
            "http://hl7.eu/fhir/laboratory/StructureDefinition/Observation-resultslab-eu-lab"
          ]
        },
        "performer": [
          {
            "display": "The Central European Lab"
          }
        ],
        "category": [
          {
            "coding": [
              {
                "system": "http://terminology.hl7.org/CodeSystem/observation-category",
                "code": "laboratory"
              }
            ]
          }
        ],
        "code": {
          "coding": [
            {
              "code": "2339-0",
              "system": "http://loinc.org",
              "display": "Glucose [Mass/volume] in Blood"
            }
          ],
          "text": "Glucose [Mass/volume] in Blood"
        },
        "valueQuantity": {
          "system": "http://unitsofmeasure.org",
          "value": 67.5,
          "unit": "mg/dL",
          "code": "mg/dL"
        },
        "referenceRange": [
          {
            "low": {
              "value": 70,
              "code": "mg/dL",
              "system": "http://unitsofmeasure.org"
            }
          },
          {
            "high": {
              "value": 140,
              "code": "mg/dL",
              "system": "http://unitsofmeasure.org"
            }
          }
        ],
        "interpretation": [
          {
            "coding": [
              {
                "code": "L",
                "system": "http://terminology.hl7.org/CodeSystem/v3-ObservationInterpretation",
                "display": "Low"
              }
            ]
          }
        ],
        "text": {
          "status": "generated",
          "div": "<div xmlns=\"http://www.w3.org/1999/xhtml\"><table class=\"hl7__eu__lab__report\"><tr><th>Test</th><th>02-Sep-2019</th><th>Reference&#xA0;Range</th><th>Unit</th></tr><tr><td>Glucose [Mass/volume] in Blood</td><td>67.5</td><td>70 - 140</td><td>L</td><td>mg/dL</td></tr></table></div>"
        },
        "status": "final",
        "subject": {
          "reference": "urn:uuid:5090d9aa-37e9-48a1-a727-73894c29b2e9",
          "display": "Leonhard Köhler"
        },
        "effectiveDateTime": "2019-09-02T02:48:23Z",
        "specimen": {
          "reference": "urn:uuid:9c50ce02-d072-467a-b961-258869dc40b5"
        }
      }
    },
    {
      "fullUrl": "urn:uuid:42935a1e-7abd-4a2f-93ed-03f4dbd35ba5",
      "resource": {
        "resourceType": "Observation",
        "id": "42935a1e-7abd-4a2f-93ed-03f4dbd35ba5",
        "meta": {
          "profile": [
            "http://hl7.eu/fhir/laboratory/StructureDefinition/Observation-resultslab-eu-lab"
          ]
        },
        "performer": [
          {
            "display": "The Central European Lab"
          }
        ],
        "category": [
          {
            "coding": [
              {
                "system": "http://terminology.hl7.org/CodeSystem/observation-category",
                "code": "laboratory"
              }
            ]
          }
        ],
        "code": {
          "coding": [
            {
              "code": "6299-2",
              "system": "http://loinc.org",
              "display": "Urea nitrogen [Mass/volume] in Blood"
            }
          ],
          "text": "Urea nitrogen [Mass/volume] in Blood"
        },
        "valueQuantity": {
          "system": "http://unitsofmeasure.org",
          "value": 9.8,
          "unit": "mg/dL",
          "code": "mg/dL"
        },
        "referenceRange": [
          {
            "low": {
              "value": 7,
              "code": "mg/dL",
              "system": "http://unitsofmeasure.org"
            }
          },
          {
            "high": {
              "value": 20,
              "code": "mg/dL",
              "system": "http://unitsofmeasure.org"
            }
          }
        ],
        "text": {
          "status": "generated",
          "div": "<div xmlns=\"http://www.w3.org/1999/xhtml\"><table class=\"hl7__eu__lab__report\"><tr><th>Test</th><th>02-Sep-2019</th><th>Reference&#xA0;Range</th><th>Unit</th></tr><tr><td>Urea nitrogen [Mass/volume] in Blood</td><td>9.8</td><td>7 - 20</td><td></td><td>mg/dL</td></tr></table></div>"
        },
        "status": "final",
        "subject": {
          "reference": "urn:uuid:5090d9aa-37e9-48a1-a727-73894c29b2e9",
          "display": "Leonhard Köhler"
        },
        "effectiveDateTime": "2019-09-02T02:48:23Z",
        "specimen": {
          "reference": "urn:uuid:9c50ce02-d072-467a-b961-258869dc40b5"
        }
      }
    },
    {
      "fullUrl": "urn:uuid:7514f3ac-2f42-401b-9981-381bf62748e8",
      "resource": {
        "resourceType": "Observation",
        "id": "7514f3ac-2f42-401b-9981-381bf62748e8",
        "meta": {
          "profile": [
            "http://hl7.eu/fhir/laboratory/StructureDefinition/Observation-resultslab-eu-lab"
          ]
        },
        "performer": [
          {
            "display": "The Central European Lab"
          }
        ],
        "category": [
          {
            "coding": [
              {
                "system": "http://terminology.hl7.org/CodeSystem/observation-category",
                "code": "laboratory"
              }
            ]
          }
        ],
        "code": {
          "coding": [
            {
              "code": "38483-4",
              "system": "http://loinc.org",
              "display": "Creatinine [Mass/volume] in Blood"
            }
          ],
          "text": "Creatinine [Mass/volume] in Blood"
        },
        "valueQuantity": {
          "system": "http://unitsofmeasure.org",
          "value": 3.2,
          "unit": "mg/dL",
          "code": "mg/dL"
        },
        "referenceRange": [
          {
            "low": {
              "value": 0.6,
              "code": "mg/dL",
              "system": "http://unitsofmeasure.org"
            }
          },
          {
            "high": {
              "value": 1.3,
              "code": "mg/dL",
              "system": "http://unitsofmeasure.org"
            }
          }
        ],
        "interpretation": [
          {
            "coding": [
              {
                "code": "H",
                "system": "http://terminology.hl7.org/CodeSystem/v3-ObservationInterpretation",
                "display": "High"
              }
            ]
          }
        ],
        "text": {
          "status": "generated",
          "div": "<div xmlns=\"http://www.w3.org/1999/xhtml\"><table class=\"hl7__eu__lab__report\"><tr><th>Test</th><th>02-Sep-2019</th><th>Reference&#xA0;Range</th><th>Unit</th></tr><tr><td>Creatinine [Mass/volume] in Blood</td><td>3.2</td><td>0.6 - 1.3</td><td>H</td><td>mg/dL</td></tr></table></div>"
        },
        "status": "final",
        "subject": {
          "reference": "urn:uuid:5090d9aa-37e9-48a1-a727-73894c29b2e9",
          "display": "Leonhard Köhler"
        },
        "effectiveDateTime": "2019-09-02T02:48:23Z",
        "specimen": {
          "reference": "urn:uuid:9c50ce02-d072-467a-b961-258869dc40b5"
        }
      }
    },
    {
      "fullUrl": "urn:uuid:2d83572e-514a-406c-8d79-6640c27d8a12",
      "resource": {
        "resourceType": "Observation",
        "id": "2d83572e-514a-406c-8d79-6640c27d8a12",
        "meta": {
          "profile": [
            "http://hl7.eu/fhir/laboratory/StructureDefinition/Observation-resultslab-eu-lab"
          ]
        },
        "performer": [
          {
            "display": "The Central European Lab"
          }
        ],
        "category": [
          {
            "coding": [
              {
                "system": "http://terminology.hl7.org/CodeSystem/observation-category",
                "code": "laboratory"
              }
            ]
          }
        ],
        "code": {
          "coding": [
            {
              "code": "49765-1",
              "system": "http://loinc.org",
              "display": "Calcium [Mass/volume] in Blood"
            }
          ],
          "text": "Calcium [Mass/volume] in Blood"
        },
        "valueQuantity": {
          "system": "http://unitsofmeasure.org",
          "value": 9.2,
          "unit": "mg/dL",
          "code": "mg/dL"
        },
        "referenceRange": [
          {
            "low": {
              "value": 8.5,
              "code": "mg/dL",
              "system": "http://unitsofmeasure.org"
            }
          },
          {
            "high": {
              "value": 10.5,
              "code": "mg/dL",
              "system": "http://unitsofmeasure.org"
            }
          }
        ],
        "text": {
          "status": "generated",
          "div": "<div xmlns=\"http://www.w3.org/1999/xhtml\"><table class=\"hl7__eu__lab__report\"><tr><th>Test</th><th>02-Sep-2019</th><th>Reference&#xA0;Range</th><th>Unit</th></tr><tr><td>Calcium [Mass/volume] in Blood</td><td>9.2</td><td>8.5 - 10.5</td><td></td><td>mg/dL</td></tr></table></div>"
        },
        "status": "final",
        "subject": {
          "reference": "urn:uuid:5090d9aa-37e9-48a1-a727-73894c29b2e9",
          "display": "Leonhard Köhler"
        },
        "effectiveDateTime": "2019-09-02T02:48:23Z",
        "specimen": {
          "reference": "urn:uuid:9c50ce02-d072-467a-b961-258869dc40b5"
        }
      }
    },
    {
      "fullUrl": "urn:uuid:e609f44d-ed40-4f69-bdea-861ffe3b0ce9",
      "resource": {
        "resourceType": "Observation",
        "id": "e609f44d-ed40-4f69-bdea-861ffe3b0ce9",
        "meta": {
          "profile": [
            "http://hl7.eu/fhir/laboratory/StructureDefinition/Observation-resultslab-eu-lab"
          ]
        },
        "performer": [
          {
            "display": "The Central European Lab"
          }
        ],
        "category": [
          {
            "coding": [
              {
                "system": "http://terminology.hl7.org/CodeSystem/observation-category",
                "code": "laboratory"
              }
            ]
          }
        ],
        "code": {
          "coding": [
            {
              "code": "2947-0",
              "system": "http://loinc.org",
              "display": "Sodium [Moles/volume] in Blood"
            }
          ],
          "text": "Sodium [Moles/volume] in Blood"
        },
        "valueQuantity": {
          "system": "http://unitsofmeasure.org",
          "value": 137.4,
          "unit": "mmol/L",
          "code": "mmol/L"
        },
        "referenceRange": [
          {
            "low": {
              "value": 135,
              "code": "mmol/L",
              "system": "http://unitsofmeasure.org"
            }
          },
          {
            "high": {
              "value": 145,
              "code": "mmol/L",
              "system": "http://unitsofmeasure.org"
            }
          }
        ],
        "text": {
          "status": "generated",
          "div": "<div xmlns=\"http://www.w3.org/1999/xhtml\"><table class=\"hl7__eu__lab__report\"><tr><th>Test</th><th>02-Sep-2019</th><th>Reference&#xA0;Range</th><th>Unit</th></tr><tr><td>Sodium [Moles/volume] in Blood</td><td>137.4</td><td>135 - 145</td><td></td><td>mmol/L</td></tr></table></div>"
        },
        "status": "final",
        "subject": {
          "reference": "urn:uuid:5090d9aa-37e9-48a1-a727-73894c29b2e9",
          "display": "Leonhard Köhler"
        },
        "effectiveDateTime": "2019-09-02T02:48:23Z",
        "specimen": {
          "reference": "urn:uuid:9c50ce02-d072-467a-b961-258869dc40b5"
        }
      }
    },
    {
      "fullUrl": "urn:uuid:4cea1292-f3ee-457b-9489-4d873f822ca0",
      "resource": {
        "resourceType": "Observation",
        "id": "4cea1292-f3ee-457b-9489-4d873f822ca0",
        "meta": {
          "profile": [
            "http://hl7.eu/fhir/laboratory/StructureDefinition/Observation-resultslab-eu-lab"
          ]
        },
        "performer": [
          {
            "display": "The Central European Lab"
          }
        ],
        "category": [
          {
            "coding": [
              {
                "system": "http://terminology.hl7.org/CodeSystem/observation-category",
                "code": "laboratory"
              }
            ]
          }
        ],
        "code": {
          "coding": [
            {
              "code": "6298-4",
              "system": "http://loinc.org",
              "display": "Potassium [Moles/volume] in Blood"
            }
          ],
          "text": "Potassium [Moles/volume] in Blood"
        },
        "valueQuantity": {
          "system": "http://unitsofmeasure.org",
          "value": 4.4,
          "unit": "mmol/L",
          "code": "mmol/L"
        },
        "referenceRange": [
          {
            "low": {
              "value": 3.5,
              "code": "mmol/L",
              "system": "http://unitsofmeasure.org"
            }
          },
          {
            "high": {
              "value": 5.1,
              "code": "mmol/L",
              "system": "http://unitsofmeasure.org"
            }
          }
        ],
        "text": {
          "status": "generated",
          "div": "<div xmlns=\"http://www.w3.org/1999/xhtml\"><table class=\"hl7__eu__lab__report\"><tr><th>Test</th><th>02-Sep-2019</th><th>Reference&#xA0;Range</th><th>Unit</th></tr><tr><td>Potassium [Moles/volume] in Blood</td><td>4.4</td><td>3.5 - 5.1</td><td></td><td>mmol/L</td></tr></table></div>"
        },
        "status": "final",
        "subject": {
          "reference": "urn:uuid:5090d9aa-37e9-48a1-a727-73894c29b2e9",
          "display": "Leonhard Köhler"
        },
        "effectiveDateTime": "2019-09-02T02:48:23Z",
        "specimen": {
          "reference": "urn:uuid:9c50ce02-d072-467a-b961-258869dc40b5"
        }
      }
    },
    {
      "fullUrl": "urn:uuid:e1eb6e03-c626-4526-8e25-f7f5421199f5",
      "resource": {
        "resourceType": "Observation",
        "id": "e1eb6e03-c626-4526-8e25-f7f5421199f5",
        "meta": {
          "profile": [
            "http://hl7.eu/fhir/laboratory/StructureDefinition/Observation-resultslab-eu-lab"
          ]
        },
        "performer": [
          {
            "display": "The Central European Lab"
          }
        ],
        "category": [
          {
            "coding": [
              {
                "system": "http://terminology.hl7.org/CodeSystem/observation-category",
                "code": "laboratory"
              }
            ]
          }
        ],
        "code": {
          "coding": [
            {
              "code": "2069-3",
              "system": "http://loinc.org",
              "display": "Chloride [Moles/volume] in Blood"
            }
          ],
          "text": "Chloride [Moles/volume] in Blood"
        },
        "valueQuantity": {
          "system": "http://unitsofmeasure.org",
          "value": 103.3,
          "unit": "mmol/L",
          "code": "mmol/L"
        },
        "referenceRange": [
          {
            "low": {
              "value": 98,
              "code": "mmol/L",
              "system": "http://unitsofmeasure.org"
            }
          },
          {
            "high": {
              "value": 108,
              "code": "mmol/L",
              "system": "http://unitsofmeasure.org"
            }
          }
        ],
        "text": {
          "status": "generated",
          "div": "<div xmlns=\"http://www.w3.org/1999/xhtml\"><table class=\"hl7__eu__lab__report\"><tr><th>Test</th><th>02-Sep-2019</th><th>Reference&#xA0;Range</th><th>Unit</th></tr><tr><td>Chloride [Moles/volume] in Blood</td><td>103.3</td><td>98 - 108</td><td></td><td>mmol/L</td></tr></table></div>"
        },
        "status": "final",
        "subject": {
          "reference": "urn:uuid:5090d9aa-37e9-48a1-a727-73894c29b2e9",
          "display": "Leonhard Köhler"
        },
        "effectiveDateTime": "2019-09-02T02:48:23Z",
        "specimen": {
          "reference": "urn:uuid:9c50ce02-d072-467a-b961-258869dc40b5"
        }
      }
    },
    {
      "fullUrl": "urn:uuid:64d03e1f-31ab-400c-a0eb-01afb118cd36",
      "resource": {
        "resourceType": "Observation",
        "id": "64d03e1f-31ab-400c-a0eb-01afb118cd36",
        "meta": {
          "profile": [
            "http://hl7.eu/fhir/laboratory/StructureDefinition/Observation-resultslab-eu-lab"
          ]
        },
        "performer": [
          {
            "display": "The Central European Lab"
          }
        ],
        "category": [
          {
            "coding": [
              {
                "system": "http://terminology.hl7.org/CodeSystem/observation-category",
                "code": "laboratory"
              }
            ]
          }
        ],
        "code": {
          "coding": [
            {
              "code": "20565-8",
              "system": "http://loinc.org",
              "display": "Carbon dioxide, total [Moles/volume] in Blood"
            }
          ],
          "text": "Carbon dioxide, total [Moles/volume] in Blood"
        },
        "valueQuantity": {
          "system": "http://unitsofmeasure.org",
          "value": 25.8,
          "unit": "mmol/L",
          "code": "mmol/L"
        },
        "referenceRange": [
          {
            "low": {
              "value": 22,
              "code": "mmol/L",
              "system": "http://unitsofmeasure.org"
            }
          },
          {
            "high": {
              "value": 32,
              "code": "mmol/L",
              "system": "http://unitsofmeasure.org"
            }
          }
        ],
        "text": {
          "status": "generated",
          "div": "<div xmlns=\"http://www.w3.org/1999/xhtml\"><table class=\"hl7__eu__lab__report\"><tr><th>Test</th><th>02-Sep-2019</th><th>Reference&#xA0;Range</th><th>Unit</th></tr><tr><td>Carbon dioxide, total [Moles/volume] in Blood</td><td>25.8</td><td>22 - 32</td><td></td><td>mmol/L</td></tr></table></div>"
        },
        "status": "final",
        "subject": {
          "reference": "urn:uuid:5090d9aa-37e9-48a1-a727-73894c29b2e9",
          "display": "Leonhard Köhler"
        },
        "effectiveDateTime": "2019-09-02T02:48:23Z",
        "specimen": {
          "reference": "urn:uuid:9c50ce02-d072-467a-b961-258869dc40b5"
        }
      }
    },
    {
      "fullUrl": "urn:uuid:0a7e1396-aaf8-4ed4-bc9b-a5b628e5e4a2",
      "resource": {
        "resourceType": "Observation",
        "id": "0a7e1396-aaf8-4ed4-bc9b-a5b628e5e4a2",
        "meta": {
          "profile": [
            "http://hl7.eu/fhir/laboratory/StructureDefinition/Observation-resultslab-eu-lab"
          ]
        },
        "performer": [
          {
            "display": "The Central European Lab"
          }
        ],
        "category": [
          {
            "coding": [
              {
                "system": "http://terminology.hl7.org/CodeSystem/observation-category",
                "code": "laboratory"
              }
            ]
          }
        ],
        "code": {
          "coding": [
            {
              "code": "2885-2",
              "system": "http://loinc.org",
              "display": "Protein [Mass/volume] in Serum or Plasma"
            }
          ],
          "text": "Protein [Mass/volume] in Serum or Plasma"
        },
        "valueQuantity": {
          "system": "http://unitsofmeasure.org",
          "value": 7.5,
          "unit": "g/dL",
          "code": "g/dL"
        },
        "referenceRange": [
          {
            "low": {
              "value": 6.6,
              "code": "g/dL",
              "system": "http://unitsofmeasure.org"
            }
          },
          {
            "high": {
              "value": 8.3,
              "code": "g/dL",
              "system": "http://unitsofmeasure.org"
            }
          }
        ],
        "text": {
          "status": "generated",
          "div": "<div xmlns=\"http://www.w3.org/1999/xhtml\"><table class=\"hl7__eu__lab__report\"><tr><th>Test</th><th>02-Sep-2019</th><th>Reference&#xA0;Range</th><th>Unit</th></tr><tr><td>Protein [Mass/volume] in Serum or Plasma</td><td>7.5</td><td>6.6 - 8.3</td><td></td><td>g/dL</td></tr></table></div>"
        },
        "status": "final",
        "subject": {
          "reference": "urn:uuid:5090d9aa-37e9-48a1-a727-73894c29b2e9",
          "display": "Leonhard Köhler"
        },
        "effectiveDateTime": "2019-09-02T02:48:23Z",
        "specimen": {
          "reference": "urn:uuid:5627d55d-4be4-404f-956c-5a63a909f786"
        }
      }
    },
    {
      "fullUrl": "urn:uuid:6917e130-1902-4774-9422-96cd7a2ae4a4",
      "resource": {
        "resourceType": "Observation",
        "id": "6917e130-1902-4774-9422-96cd7a2ae4a4",
        "meta": {
          "profile": [
            "http://hl7.eu/fhir/laboratory/StructureDefinition/Observation-resultslab-eu-lab"
          ]
        },
        "performer": [
          {
            "display": "The Central European Lab"
          }
        ],
        "category": [
          {
            "coding": [
              {
                "system": "http://terminology.hl7.org/CodeSystem/observation-category",
                "code": "laboratory"
              }
            ]
          }
        ],
        "code": {
          "coding": [
            {
              "code": "1751-7",
              "system": "http://loinc.org",
              "display": "Albumin [Mass/volume] in Serum or Plasma"
            }
          ],
          "text": "Albumin [Mass/volume] in Serum or Plasma"
        },
        "valueQuantity": {
          "system": "http://unitsofmeasure.org",
          "value": 4.3,
          "unit": "g/dL",
          "code": "g/dL"
        },
        "referenceRange": [
          {
            "low": {
              "value": 3.5,
              "code": "g/dL",
              "system": "http://unitsofmeasure.org"
            }
          },
          {
            "high": {
              "value": 5.5,
              "code": "g/dL",
              "system": "http://unitsofmeasure.org"
            }
          }
        ],
        "text": {
          "status": "generated",
          "div": "<div xmlns=\"http://www.w3.org/1999/xhtml\"><table class=\"hl7__eu__lab__report\"><tr><th>Test</th><th>02-Sep-2019</th><th>Reference&#xA0;Range</th><th>Unit</th></tr><tr><td>Albumin [Mass/volume] in Serum or Plasma</td><td>4.3</td><td>3.5 - 5.5</td><td></td><td>g/dL</td></tr></table></div>"
        },
        "status": "final",
        "subject": {
          "reference": "urn:uuid:5090d9aa-37e9-48a1-a727-73894c29b2e9",
          "display": "Leonhard Köhler"
        },
        "effectiveDateTime": "2019-09-02T02:48:23Z",
        "specimen": {
          "reference": "urn:uuid:5627d55d-4be4-404f-956c-5a63a909f786"
        }
      }
    },
    {
      "fullUrl": "urn:uuid:3cbcaafa-41b3-49c3-91da-0ab7e3b676ae",
      "resource": {
        "resourceType": "Observation",
        "id": "3cbcaafa-41b3-49c3-91da-0ab7e3b676ae",
        "meta": {
          "profile": [
            "http://hl7.eu/fhir/laboratory/StructureDefinition/Observation-resultslab-eu-lab"
          ]
        },
        "performer": [
          {
            "display": "The Central European Lab"
          }
        ],
        "category": [
          {
            "coding": [
              {
                "system": "http://terminology.hl7.org/CodeSystem/observation-category",
                "code": "laboratory"
              }
            ]
          }
        ],
        "code": {
          "coding": [
            {
              "code": "10834-0",
              "system": "http://loinc.org",
              "display": "Globulin [Mass/volume] in Serum by calculation"
            }
          ],
          "text": "Globulin [Mass/volume] in Serum by calculation"
        },
        "valueQuantity": {
          "system": "http://unitsofmeasure.org",
          "value": 2.5,
          "unit": "g/L",
          "code": "g/L"
        },
        "referenceRange": [
          {
            "low": {
              "value": 2,
              "code": "g/L",
              "system": "http://unitsofmeasure.org"
            }
          },
          {
            "high": {
              "value": 3.5,
              "code": "g/L",
              "system": "http://unitsofmeasure.org"
            }
          }
        ],
        "text": {
          "status": "generated",
          "div": "<div xmlns=\"http://www.w3.org/1999/xhtml\"><table class=\"hl7__eu__lab__report\"><tr><th>Test</th><th>02-Sep-2019</th><th>Reference&#xA0;Range</th><th>Unit</th></tr><tr><td>Globulin [Mass/volume] in Serum by calculation</td><td>2.5</td><td>2 - 3.5</td><td></td><td>g/L</td></tr></table></div>"
        },
        "status": "final",
        "subject": {
          "reference": "urn:uuid:5090d9aa-37e9-48a1-a727-73894c29b2e9",
          "display": "Leonhard Köhler"
        },
        "effectiveDateTime": "2019-09-02T02:48:23Z",
        "specimen": {
          "reference": "urn:uuid:d82edbb3-7737-474d-bfb9-9cbca6ae262c"
        }
      }
    },
    {
      "fullUrl": "urn:uuid:effd83de-a92d-408e-a71b-ed724e4f10e4",
      "resource": {
        "resourceType": "Observation",
        "id": "effd83de-a92d-408e-a71b-ed724e4f10e4",
        "meta": {
          "profile": [
            "http://hl7.eu/fhir/laboratory/StructureDefinition/Observation-resultslab-eu-lab"
          ]
        },
        "performer": [
          {
            "display": "The Central European Lab"
          }
        ],
        "category": [
          {
            "coding": [
              {
                "system": "http://terminology.hl7.org/CodeSystem/observation-category",
                "code": "laboratory"
              }
            ]
          }
        ],
        "code": {
          "coding": [
            {
              "code": "1975-2",
              "system": "http://loinc.org",
              "display": "Bilirubin.total [Mass/volume] in Serum or Plasma"
            }
          ],
          "text": "Bilirubin.total [Mass/volume] in Serum or Plasma"
        },
        "valueQuantity": {
          "system": "http://unitsofmeasure.org",
          "value": 0.4,
          "unit": "mg/dL",
          "code": "mg/dL"
        },
        "referenceRange": [
          {
            "low": {
              "value": 0.3,
              "code": "mg/dL",
              "system": "http://unitsofmeasure.org"
            }
          },
          {
            "high": {
              "value": 1.2,
              "code": "mg/dL",
              "system": "http://unitsofmeasure.org"
            }
          }
        ],
        "text": {
          "status": "generated",
          "div": "<div xmlns=\"http://www.w3.org/1999/xhtml\"><table class=\"hl7__eu__lab__report\"><tr><th>Test</th><th>02-Sep-2019</th><th>Reference&#xA0;Range</th><th>Unit</th></tr><tr><td>Bilirubin.total [Mass/volume] in Serum or Plasma</td><td>0.4</td><td>0.3 - 1.2</td><td></td><td>mg/dL</td></tr></table></div>"
        },
        "status": "final",
        "subject": {
          "reference": "urn:uuid:5090d9aa-37e9-48a1-a727-73894c29b2e9",
          "display": "Leonhard Köhler"
        },
        "effectiveDateTime": "2019-09-02T02:48:23Z",
        "specimen": {
          "reference": "urn:uuid:5627d55d-4be4-404f-956c-5a63a909f786"
        }
      }
    },
    {
      "fullUrl": "urn:uuid:bf293abb-a4c9-4cb4-9971-72621978cab5",
      "resource": {
        "resourceType": "Observation",
        "id": "bf293abb-a4c9-4cb4-9971-72621978cab5",
        "meta": {
          "profile": [
            "http://hl7.eu/fhir/laboratory/StructureDefinition/Observation-resultslab-eu-lab"
          ]
        },
        "performer": [
          {
            "display": "The Central European Lab"
          }
        ],
        "category": [
          {
            "coding": [
              {
                "system": "http://terminology.hl7.org/CodeSystem/observation-category",
                "code": "laboratory"
              }
            ]
          }
        ],
        "code": {
          "coding": [
            {
              "code": "6768-6",
              "system": "http://loinc.org",
              "display": "Alkaline phosphatase [Enzymatic activity/volume] in Serum or Plasma"
            }
          ],
          "text": "Alkaline phosphatase [Enzymatic activity/volume] in Serum or Plasma"
        },
        "valueQuantity": {
          "system": "http://unitsofmeasure.org",
          "value": 70.1,
          "unit": "U/L",
          "code": "U/L"
        },
        "referenceRange": [
          {
            "low": {
              "value": 53,
              "code": "U/L",
              "system": "http://unitsofmeasure.org"
            }
          },
          {
            "high": {
              "value": 130,
              "code": "U/L",
              "system": "http://unitsofmeasure.org"
            }
          }
        ],
        "text": {
          "status": "generated",
          "div": "<div xmlns=\"http://www.w3.org/1999/xhtml\"><table class=\"hl7__eu__lab__report\"><tr><th>Test</th><th>02-Sep-2019</th><th>Reference&#xA0;Range</th><th>Unit</th></tr><tr><td>Alkaline phosphatase [Enzymatic activity/volume] in Serum or Plasma</td><td>70.1</td><td>53 - 130</td><td></td><td>U/L</td></tr></table></div>"
        },
        "status": "final",
        "subject": {
          "reference": "urn:uuid:5090d9aa-37e9-48a1-a727-73894c29b2e9",
          "display": "Leonhard Köhler"
        },
        "effectiveDateTime": "2019-09-02T02:48:23Z",
        "specimen": {
          "reference": "urn:uuid:5627d55d-4be4-404f-956c-5a63a909f786"
        }
      }
    },
    {
      "fullUrl": "urn:uuid:7080c873-9b2b-4517-9c23-4fda0d6cc5ee",
      "resource": {
        "resourceType": "Observation",
        "id": "7080c873-9b2b-4517-9c23-4fda0d6cc5ee",
        "meta": {
          "profile": [
            "http://hl7.eu/fhir/laboratory/StructureDefinition/Observation-resultslab-eu-lab"
          ]
        },
        "performer": [
          {
            "display": "The Central European Lab"
          }
        ],
        "category": [
          {
            "coding": [
              {
                "system": "http://terminology.hl7.org/CodeSystem/observation-category",
                "code": "laboratory"
              }
            ]
          }
        ],
        "code": {
          "coding": [
            {
              "code": "1742-6",
              "system": "http://loinc.org",
              "display": "Alanine aminotransferase [Enzymatic activity/volume] in Serum or Plasma"
            }
          ],
          "text": "Alanine aminotransferase [Enzymatic activity/volume] in Serum or Plasma"
        },
        "valueQuantity": {
          "system": "http://unitsofmeasure.org",
          "value": 41.8,
          "unit": "U/L",
          "code": "U/L"
        },
        "referenceRange": [
          {
            "low": {
              "value": 7,
              "code": "U/L",
              "system": "http://unitsofmeasure.org"
            }
          },
          {
            "high": {
              "value": 60,
              "code": "U/L",
              "system": "http://unitsofmeasure.org"
            }
          }
        ],
        "text": {
          "status": "generated",
          "div": "<div xmlns=\"http://www.w3.org/1999/xhtml\"><table class=\"hl7__eu__lab__report\"><tr><th>Test</th><th>02-Sep-2019</th><th>Reference&#xA0;Range</th><th>Unit</th></tr><tr><td>Alanine aminotransferase [Enzymatic activity/volume] in Serum or Plasma</td><td>41.8</td><td>7 - 60</td><td></td><td>U/L</td></tr></table></div>"
        },
        "status": "final",
        "subject": {
          "reference": "urn:uuid:5090d9aa-37e9-48a1-a727-73894c29b2e9",
          "display": "Leonhard Köhler"
        },
        "effectiveDateTime": "2019-09-02T02:48:23Z",
        "specimen": {
          "reference": "urn:uuid:5627d55d-4be4-404f-956c-5a63a909f786"
        }
      }
    },
    {
      "fullUrl": "urn:uuid:06036f39-f64a-4134-b4e5-22ab2ff81372",
      "resource": {
        "resourceType": "Observation",
        "id": "06036f39-f64a-4134-b4e5-22ab2ff81372",
        "meta": {
          "profile": [
            "http://hl7.eu/fhir/laboratory/StructureDefinition/Observation-resultslab-eu-lab"
          ]
        },
        "performer": [
          {
            "display": "The Central European Lab"
          }
        ],
        "category": [
          {
            "coding": [
              {
                "system": "http://terminology.hl7.org/CodeSystem/observation-category",
                "code": "laboratory"
              }
            ]
          }
        ],
        "code": {
          "coding": [
            {
              "code": "1920-8",
              "system": "http://loinc.org",
              "display": "Aspartate aminotransferase [Enzymatic activity/volume] in Serum or Plasma"
            }
          ],
          "text": "Aspartate aminotransferase [Enzymatic activity/volume] in Serum or Plasma"
        },
        "valueQuantity": {
          "system": "http://unitsofmeasure.org",
          "value": 30.3,
          "unit": "U/L",
          "code": "U/L"
        },
        "referenceRange": [
          {
            "low": {
              "value": 10,
              "code": "U/L",
              "system": "http://unitsofmeasure.org"
            }
          },
          {
            "high": {
              "value": 49,
              "code": "U/L",
              "system": "http://unitsofmeasure.org"
            }
          }
        ],
        "text": {
          "status": "generated",
          "div": "<div xmlns=\"http://www.w3.org/1999/xhtml\"><table class=\"hl7__eu__lab__report\"><tr><th>Test</th><th>02-Sep-2019</th><th>Reference&#xA0;Range</th><th>Unit</th></tr><tr><td>Aspartate aminotransferase [Enzymatic activity/volume] in Serum or Plasma</td><td>30.3</td><td>10 - 49</td><td></td><td>U/L</td></tr></table></div>"
        },
        "status": "final",
        "subject": {
          "reference": "urn:uuid:5090d9aa-37e9-48a1-a727-73894c29b2e9",
          "display": "Leonhard Köhler"
        },
        "effectiveDateTime": "2019-09-02T02:48:23Z",
        "specimen": {
          "reference": "urn:uuid:5627d55d-4be4-404f-956c-5a63a909f786"
        }
      }
    },
    {
      "fullUrl": "urn:uuid:3ff913a8-59a6-4dc6-b47f-89ce3bc8d0c3",
      "resource": {
        "resourceType": "Observation",
        "id": "3ff913a8-59a6-4dc6-b47f-89ce3bc8d0c3",
        "meta": {
          "profile": [
            "http://hl7.eu/fhir/laboratory/StructureDefinition/Observation-resultslab-eu-lab"
          ]
        },
        "performer": [
          {
            "display": "The Central European Lab"
          }
        ],
        "category": [
          {
            "coding": [
              {
                "system": "http://terminology.hl7.org/CodeSystem/observation-category",
                "code": "laboratory"
              }
            ]
          }
        ],
        "code": {
          "coding": [
            {
              "code": "2093-3",
              "system": "http://loinc.org",
              "display": "Cholesterol [Mass/volume] in Serum or Plasma"
            }
          ],
          "text": "Cholesterol [Mass/volume] in Serum or Plasma"
        },
        "valueQuantity": {
          "system": "http://unitsofmeasure.org",
          "value": 150.1,
          "unit": "mg/dL",
          "code": "mg/dL"
        },
        "referenceRange": [
          {
            "low": {
              "value": 125,
              "code": "mg/dL",
              "system": "http://unitsofmeasure.org"
            }
          },
          {
            "high": {
              "value": 200,
              "code": "mg/dL",
              "system": "http://unitsofmeasure.org"
            }
          }
        ],
        "text": {
          "status": "generated",
          "div": "<div xmlns=\"http://www.w3.org/1999/xhtml\"><table class=\"hl7__eu__lab__report\"><tr><th>Test</th><th>02-Sep-2019</th><th>Reference&#xA0;Range</th><th>Unit</th></tr><tr><td>Cholesterol [Mass/volume] in Serum or Plasma</td><td>150.1</td><td>125 - 200</td><td></td><td>mg/dL</td></tr></table></div>"
        },
        "status": "final",
        "subject": {
          "reference": "urn:uuid:5090d9aa-37e9-48a1-a727-73894c29b2e9",
          "display": "Leonhard Köhler"
        },
        "effectiveDateTime": "2019-09-02T02:48:23Z",
        "specimen": {
          "reference": "urn:uuid:5627d55d-4be4-404f-956c-5a63a909f786"
        }
      }
    },
    {
      "fullUrl": "urn:uuid:115d6fc2-1897-4b3b-9ba4-c4c796e270f2",
      "resource": {
        "resourceType": "Observation",
        "id": "115d6fc2-1897-4b3b-9ba4-c4c796e270f2",
        "meta": {
          "profile": [
            "http://hl7.eu/fhir/laboratory/StructureDefinition/Observation-resultslab-eu-lab"
          ]
        },
        "performer": [
          {
            "display": "The Central European Lab"
          }
        ],
        "category": [
          {
            "coding": [
              {
                "system": "http://terminology.hl7.org/CodeSystem/observation-category",
                "code": "laboratory"
              }
            ]
          }
        ],
        "code": {
          "coding": [
            {
              "code": "2571-8",
              "system": "http://loinc.org",
              "display": "Triglyceride [Mass/volume] in Serum or Plasma"
            }
          ],
          "text": "Triglyceride [Mass/volume] in Serum or Plasma"
        },
        "valueQuantity": {
          "system": "http://unitsofmeasure.org",
          "value": 178.4,
          "unit": "mg/dL",
          "code": "mg/dL"
        },
        "referenceRange": [
          {
            "low": {
              "value": 40,
              "code": "mg/dL",
              "system": "http://unitsofmeasure.org"
            }
          },
          {
            "high": {
              "value": 150,
              "code": "mg/dL",
              "system": "http://unitsofmeasure.org"
            }
          }
        ],
        "interpretation": [
          {
            "coding": [
              {
                "code": "H",
                "system": "http://terminology.hl7.org/CodeSystem/v3-ObservationInterpretation",
                "display": "High"
              }
            ]
          }
        ],
        "text": {
          "status": "generated",
          "div": "<div xmlns=\"http://www.w3.org/1999/xhtml\"><table class=\"hl7__eu__lab__report\"><tr><th>Test</th><th>02-Sep-2019</th><th>Reference&#xA0;Range</th><th>Unit</th></tr><tr><td>Triglyceride [Mass/volume] in Serum or Plasma</td><td>178.4</td><td>40 - 150</td><td>H</td><td>mg/dL</td></tr></table></div>"
        },
        "status": "final",
        "subject": {
          "reference": "urn:uuid:5090d9aa-37e9-48a1-a727-73894c29b2e9",
          "display": "Leonhard Köhler"
        },
        "effectiveDateTime": "2019-09-02T02:48:23Z",
        "specimen": {
          "reference": "urn:uuid:5627d55d-4be4-404f-956c-5a63a909f786"
        }
      }
    },
    {
      "fullUrl": "urn:uuid:f22b3693-f0d8-4302-af9c-7d02f89e5d63",
      "resource": {
        "resourceType": "Observation",
        "id": "f22b3693-f0d8-4302-af9c-7d02f89e5d63",
        "meta": {
          "profile": [
            "http://hl7.eu/fhir/laboratory/StructureDefinition/Observation-resultslab-eu-lab"
          ]
        },
        "performer": [
          {
            "display": "The Central European Lab"
          }
        ],
        "category": [
          {
            "coding": [
              {
                "system": "http://terminology.hl7.org/CodeSystem/observation-category",
                "code": "laboratory"
              }
            ]
          }
        ],
        "code": {
          "coding": [
            {
              "code": "18262-6",
              "system": "http://loinc.org",
              "display": "Cholesterol in LDL [Mass/volume] in Serum or Plasma by Direct assay"
            }
          ],
          "text": "Cholesterol in LDL [Mass/volume] in Serum or Plasma by Direct assay"
        },
        "valueQuantity": {
          "system": "http://unitsofmeasure.org",
          "value": 92.7,
          "unit": "mg/dL",
          "code": "mg/dL"
        },
        "referenceRange": [
          {
            "low": {
              "value": 0,
              "code": "mg/dL",
              "system": "http://unitsofmeasure.org"
            }
          },
          {
            "high": {
              "value": 190,
              "code": "mg/dL",
              "system": "http://unitsofmeasure.org"
            }
          }
        ],
        "text": {
          "status": "generated",
          "div": "<div xmlns=\"http://www.w3.org/1999/xhtml\"><table class=\"hl7__eu__lab__report\"><tr><th>Test</th><th>02-Sep-2019</th><th>Reference&#xA0;Range</th><th>Unit</th></tr><tr><td>Cholesterol in LDL [Mass/volume] in Serum or Plasma by Direct assay</td><td>92.7</td><td>0 - 190</td><td></td><td>mg/dL</td></tr></table></div>"
        },
        "status": "final",
        "subject": {
          "reference": "urn:uuid:5090d9aa-37e9-48a1-a727-73894c29b2e9",
          "display": "Leonhard Köhler"
        },
        "effectiveDateTime": "2019-09-02T02:48:23Z",
        "specimen": {
          "reference": "urn:uuid:5627d55d-4be4-404f-956c-5a63a909f786"
        }
      }
    },
    {
      "fullUrl": "urn:uuid:305bd8cb-b2a0-4ac5-8f1a-c623d18c7f58",
      "resource": {
        "resourceType": "Observation",
        "id": "305bd8cb-b2a0-4ac5-8f1a-c623d18c7f58",
        "meta": {
          "profile": [
            "http://hl7.eu/fhir/laboratory/StructureDefinition/Observation-resultslab-eu-lab"
          ]
        },
        "performer": [
          {
            "display": "The Central European Lab"
          }
        ],
        "category": [
          {
            "coding": [
              {
                "system": "http://terminology.hl7.org/CodeSystem/observation-category",
                "code": "laboratory"
              }
            ]
          }
        ],
        "code": {
          "coding": [
            {
              "code": "2085-9",
              "system": "http://loinc.org",
              "display": "Cholesterol in HDL [Mass/volume] in Serum or Plasma"
            }
          ],
          "text": "Cholesterol in HDL [Mass/volume] in Serum or Plasma"
        },
        "valueQuantity": {
          "system": "http://unitsofmeasure.org",
          "value": 38.1,
          "unit": "mg/dL",
          "code": "mg/dL"
        },
        "referenceRange": [
          {
            "low": {
              "value": 40,
              "code": "mg/dL",
              "system": "http://unitsofmeasure.org"
            }
          },
          {
            "high": {
              "value": 60,
              "code": "mg/dL",
              "system": "http://unitsofmeasure.org"
            }
          }
        ],
        "interpretation": [
          {
            "coding": [
              {
                "code": "L",
                "system": "http://terminology.hl7.org/CodeSystem/v3-ObservationInterpretation",
                "display": "Low"
              }
            ]
          }
        ],
        "text": {
          "status": "generated",
          "div": "<div xmlns=\"http://www.w3.org/1999/xhtml\"><table class=\"hl7__eu__lab__report\"><tr><th>Test</th><th>02-Sep-2019</th><th>Reference&#xA0;Range</th><th>Unit</th></tr><tr><td>Cholesterol in HDL [Mass/volume] in Serum or Plasma</td><td>38.1</td><td>40 - 60</td><td>L</td><td>mg/dL</td></tr></table></div>"
        },
        "status": "final",
        "subject": {
          "reference": "urn:uuid:5090d9aa-37e9-48a1-a727-73894c29b2e9",
          "display": "Leonhard Köhler"
        },
        "effectiveDateTime": "2019-09-02T02:48:23Z",
        "specimen": {
          "reference": "urn:uuid:5627d55d-4be4-404f-956c-5a63a909f786"
        }
      }
    },
    {
      "fullUrl": "urn:uuid:0675de16-baf5-4965-8745-d772c4dd0915",
      "resource": {
        "resourceType": "Device",
        "id": "0675de16-baf5-4965-8745-d772c4dd0915",
        "deviceName": [
          {
            "name": "SYNDERAI Synthetic Generator",
            "type": "manufacturer-name"
          }
        ],
        "version": [
          {
            "value": "5.0"
          }
        ],
        "text": {
          "status": "generated",
          "div": "<div xmlns=\"http://www.w3.org/1999/xhtml\">SYNDERAI Synthetic Generator v5.0</div>"
        },
        "status": "active\"",
        "distinctIdentifier": "synderai-generator-50",
        "manufacturer": "SYNDERAI Project"
      }
    },
    {
      "fullUrl": "urn:uuid:7e03db82-6b5a-45b0-81b8-f7dce9a1e286",
      "resource": {
        "resourceType": "Provenance",
        "id": "7e03db82-6b5a-45b0-81b8-f7dce9a1e286",
        "target": [
          {
            "reference": "Patient/5090d9aa-37e9-48a1-a727-73894c29b2e9"
          },
          {
            "reference": "Bundle/51eb55b7-5bb6-45d5-958b-691e58d0bd94"
          },
          {
            "reference": "Composition/1c90389c-e958-4f17-92b9-41fb7195a421"
          },
          {
            "reference": "PractitionerRole/2f6a8793-f757-42e5-883c-3e36eae5e2c2"
          },
          {
            "reference": "Practitioner/1e711580-8d60-4eb0-a33b-cd0de26ac766"
          },
          {
            "reference": "PractitionerRole/6f1c2e5e-c48e-4add-a1f6-1e602113b5fb"
          },
          {
            "reference": "Organization/23c41881-421d-4ff6-b899-465554ad08d9"
          }
        ],
        "activity": {
          "text": "Synthetic Example Data Generation"
        },
        "policy": [
          "https://synderai.net/synderai-synthetic-data-policy"
        ],
        "agent": [
          {
            "type": {
              "text": "author"
            },
            "who": {
              "reference": "Device/0675de16-baf5-4965-8745-d772c4dd0915"
            }
          }
        ],
        "reason": [
          {
            "text": "Interoperability Testing and Training (non-clinical use)"
          }
        ],
        "text": {
          "status": "generated",
          "div": "<div xmlns=\"http://www.w3.org/1999/xhtml\">Provenance for SYNDERAI Synthetic Example Data Resource</div>"
        },
        "recorded": "2019-09-02T04:48:23Z"
      }
    },
    {
      "fullUrl": "urn:uuid:2f6a8793-f757-42e5-883c-3e36eae5e2c2",
      "resource": {
        "resourceType": "PractitionerRole",
        "id": "2f6a8793-f757-42e5-883c-3e36eae5e2c2",
        "meta": {
          "profile": [
            "http://hl7.eu/fhir/base/StructureDefinition/practitionerRole-eu"
          ]
        },
        "text": {
          "status": "generated",
          "div": "<div xmlns=\"http://www.w3.org/1999/xhtml\">Laboratory Role Id: 2f6a8793-f757-42e5-883c-3e36eae5e2c2</div>"
        },
        "practitioner": {
          "reference": "urn:uuid:1e711580-8d60-4eb0-a33b-cd0de26ac766"
        }
      }
    },
    {
      "fullUrl": "urn:uuid:1e711580-8d60-4eb0-a33b-cd0de26ac766",
      "resource": {
        "resourceType": "Practitioner",
        "id": "1e711580-8d60-4eb0-a33b-cd0de26ac766",
        "meta": {
          "profile": [
            "http://hl7.eu/fhir/base/StructureDefinition/practitioner-eu"
          ]
        },
        "identifier": [
          {
            "assigner": {
              "display": "HL7 Europe"
            },
            "system": "urn:oid:2.16.840.1.113883.2.51.999",
            "value": "f62464b3-e917-417a-a3cb-e60f44e4fce3"
          }
        ],
        "name": [
          {
            "prefix": [
              "dr"
            ],
            "given": [
              "Ex"
            ],
            "family": "Ample"
          }
        ],
        "address": [
          {
            "line": [
              "Laboratoire Central Européenne",
              "Boulevard du Jardin Botanique 32"
            ],
            "postalCode": "1000",
            "city": "Brussels",
            "country": "Belgium"
          }
        ],
        "text": {
          "status": "generated",
          "div": "<div xmlns=\"http://www.w3.org/1999/xhtml\">Laboratory: Laboratoire Central Européenne, 1000 Brussels, Belgium</div>"
        }
      }
    }
  ],
  "type": "document",
  "timestamp": "2019-09-02T04:48:23Z"
}
