<Bundle xmlns="http://hl7.org/fhir">
   <id value="363844e3-27c5-4d30-870d-bb280221e5b5"/>
   <meta>
      <profile value="http://hl7.eu/fhir/laboratory/StructureDefinition/Bundle-eu-lab"/>
   </meta>
   <identifier>
      <system value="urn:oid:2.16.840.1.113883.2.51.999"/>
      <value value="b0cac4b8-6b11-42cd-b0ab-914cc0821fed"/>
      <assigner>
         <display value="HL7 Europe"/>
      </assigner>
   </identifier>
   <type value="document"/>
   <timestamp value="2020-02-23T17:10:29Z"/>
   <entry>
      <fullUrl value="urn:uuid:ff5cf055-b162-4712-8595-928d68782388"/>
      <resource>
         <Composition>
            <id value="ff5cf055-b162-4712-8595-928d68782388"/>
            <meta>
               <profile value="http://hl7.eu/fhir/laboratory/StructureDefinition/Composition-eu-lab"/>
            </meta>
            <identifier>
               <system value="urn:oid:2.16.840.1.113883.2.51.999"/>
               <value value="235ef90f-b622-41b2-b58f-cb2ebf7715cd"/>
               <assigner>
                  <display value="HL7 Europe"/>
               </assigner>
            </identifier>
            <status value="final"/>
            <type>
               <coding>
                  <system value="http://loinc.org"/>
                  <code value="11502-2"/>
                  <display value="Laboratory report"/>
               </coding>
               <text value="Laboratory Report"/>
            </type>
            <category>
               <coding>
                  <system value="http://loinc.org"/>
                  <code value="26436-6"/>
                  <display value="Laboratory studies (set)"/>
               </coding>
            </category>
            <subject>
               <reference value="urn:uuid:59823dca-76db-401e-9e9b-f67071cad905"/>
               <display value="Iva Kratochvílová"/>
            </subject>
            <date value="2020-02-23T17:10:29Z"/>
            <author>
               <reference value="urn:uuid:8d5b6fd0-34f0-4dd5-9f5b-647c0b9001d3"/>
            </author>
            <title value="Laboratory Report"/>
            <confidentiality value="N"/>
            <section>
               <title value="Laboratory Report"/>
               <code>
                  <coding>
                     <system value="http://loinc.org"/>
                     <code value="26436-6"/>
                     <display value="Laboratory studies (set)"/>
                  </coding>
                  <text value="Laboratory studies"/>
               </code>
               <section>
                  <title value="Chemistry"/>
                  <code>
                     <coding>
                        <system value="http://loinc.org"/>
                        <code value="$18719-5"/>
                        <display value="Chemistry studies (set)"/>
                     </coding>
                     <text value="Chemistry"/>
                  </code>
                  <text>
                     <status value="generated"/>
                     <div xmlns="http://www.w3.org/1999/xhtml">
                        <h3>Chemistry</h3>
                        <table class="hl7__eu__lab__report">
                           <thead>
                              <tr>
                                 <th>Test</th>
                                 <th>23-FEB-2020</th>
                                 <th>Reference Range</th>
                                 <th>Unit</th>
                              </tr>
                           </thead>
                           <tbody>
                              <tr>
                                 <td>Hemoglobin A1c/Hemoglobin.total in Blood</td>
                                 <td>
                                    <strong>2.9 L</strong>
                                 </td>
                                 <td>4 - 6</td>
                                 <td>%</td>
                              </tr>
                              <tr>
                                 <td>Glucose [Mass/volume] in Blood</td>
                                 <td>83.2</td>
                                 <td>70 - 140</td>
                                 <td>mg/dL</td>
                              </tr>
                              <tr>
                                 <td>Urea nitrogen [Mass/volume] in Blood</td>
                                 <td>17.7</td>
                                 <td>7 - 25</td>
                                 <td>mg/dL</td>
                              </tr>
                              <tr>
                                 <td>Creatinine [Mass/volume] in Blood</td>
                                 <td>1.1</td>
                                 <td>0.6 - 1.1</td>
                                 <td>mg/dL</td>
                              </tr>
                              <tr>
                                 <td>Calcium [Mass/volume] in Blood</td>
                                 <td>
                                    <strong>8.5 L</strong>
                                 </td>
                                 <td>8.6 - 10.4</td>
                                 <td>mg/dL</td>
                              </tr>
                              <tr>
                                 <td>Sodium [Moles/volume] in Blood</td>
                                 <td>140.3</td>
                                 <td>135 - 145</td>
                                 <td>mmol/L</td>
                              </tr>
                              <tr>
                                 <td>Potassium [Moles/volume] in Blood</td>
                                 <td>4.2</td>
                                 <td>3.5 - 5.1</td>
                                 <td>mmol/L</td>
                              </tr>
                              <tr>
                                 <td>Chloride [Moles/volume] in Blood</td>
                                 <td>106.2</td>
                                 <td>98 - 110</td>
                                 <td>mmol/L</td>
                              </tr>
                              <tr>
                                 <td>Carbon dioxide, total [Moles/volume] in Blood</td>
                                 <td>
                                    <strong>21.6 L</strong>
                                 </td>
                                 <td>22 - 29</td>
                                 <td>mmol/L</td>
                              </tr>
                           </tbody>
                        </table>
                     </div>
                  </text>
                  <entry>
                     <reference value="urn:uuid:e20f2be9-8c66-481c-80b4-1e319fc1b6d3"/>
                  </entry>
                  <entry>
                     <reference value="urn:uuid:9973f4ba-50e8-4979-8c5b-1712a49e97b6"/>
                  </entry>
                  <entry>
                     <reference value="urn:uuid:6af89d02-fa86-468e-ba93-0ac524526aa1"/>
                  </entry>
                  <entry>
                     <reference value="urn:uuid:da79eebb-371c-45cf-b49b-83c3a147da93"/>
                  </entry>
                  <entry>
                     <reference value="urn:uuid:129fd3aa-b56e-418a-822e-0139a9e36280"/>
                  </entry>
                  <entry>
                     <reference value="urn:uuid:f0bed894-26a9-4ca6-8df4-8f7d7cb44b02"/>
                  </entry>
                  <entry>
                     <reference value="urn:uuid:f9b52311-f1f4-426d-90ed-b1bd45c7e7cb"/>
                  </entry>
                  <entry>
                     <reference value="urn:uuid:71aa4fa1-d949-43c7-9286-3b3ddde259b1"/>
                  </entry>
                  <entry>
                     <reference value="urn:uuid:5dab0060-9bdd-457c-a4b9-eb7067f8d8a7"/>
                  </entry>
               </section>
            </section>
            <section>
               <title value="Annotation comment"/>
               <code>
                  <coding>
                     <system value="http://loinc.org"/>
                     <code value="48767-8"/>
                     <display value="Annotation comment"/>
                  </coding>
               </code>
               <text>
                  <status value="generated"/>
                  <div xmlns="http://www.w3.org/1999/xhtml">
                     <h3>Annotation</h3>
                     <table class="hl7__eu__lab__report">
                        <tr>
                           <th>Conclusion and Recommendations based on this report and previous findings known to us</th>
                        </tr>
                        <tr>
                           <td>The patient shows a markedly low HbA1c, which may suggest recent hypoglycemia or analytical error if not explained by clinical context. Mild hypocalcemia and slightly low total CO₂ are noted, which may indicate mild metabolic acidosis or other metabolic disturbances. Renal function and other electrolytes are within normal limits. Clinical correlation is recommended.</td>
                        </tr>
                     </table>
                  </div>
               </text>
            </section>
         </Composition>
      </resource>
   </entry>
   <entry>
      <fullUrl value="urn:uuid:2339b091-73bc-4ef1-80fb-d4b129dc4365"/>
      <resource>
         <DiagnosticReport>
            <id value="2339b091-73bc-4ef1-80fb-d4b129dc4365"/>
            <meta>
               <profile value="http://hl7.eu/fhir/laboratory/StructureDefinition/DiagnosticReport-eu-lab"/>
            </meta>
            <extension url="http://hl7.org/fhir/5.0/StructureDefinition/extension-DiagnosticReport.composition">
               <valueReference>
                  <reference value="urn:uuid:235ef90f-b622-41b2-b58f-cb2ebf7715cd"/>
               </valueReference>
            </extension>
            <identifier>
               <system value="urn:oid:2.16.840.1.113883.2.51.999"/>
               <value value="7cce1d4a-1152-4a1f-b2be-d254e257549d"/>
               <assigner>
                  <display value="HL7 Europe"/>
               </assigner>
            </identifier>
            <status value="registered"/>
            <category>
               <coding>
                  <system value="http://loinc.org"/>
                  <code value="26436-6"/>
                  <display value="Laboratory studies (set)"/>
               </coding>
            </category>
            <code>
               <coding>
                  <system value="http://loinc.org"/>
                  <code value="11502-2"/>
                  <display value="Laboratory report"/>
               </coding>
            </code>
            <subject>
               <reference value="urn:uuid:59823dca-76db-401e-9e9b-f67071cad905"/>
               <display value="Iva Kratochvílová"/>
            </subject>
            <specimen>
               <reference value="urn:uuid:c3e33420-5c4b-421f-8b39-ab6c68de84a8"/>
            </specimen>
            <result>
               <reference value="urn:uuid:e20f2be9-8c66-481c-80b4-1e319fc1b6d3"/>
            </result>
            <result>
               <reference value="urn:uuid:9973f4ba-50e8-4979-8c5b-1712a49e97b6"/>
            </result>
            <result>
               <reference value="urn:uuid:6af89d02-fa86-468e-ba93-0ac524526aa1"/>
            </result>
            <result>
               <reference value="urn:uuid:da79eebb-371c-45cf-b49b-83c3a147da93"/>
            </result>
            <result>
               <reference value="urn:uuid:129fd3aa-b56e-418a-822e-0139a9e36280"/>
            </result>
            <result>
               <reference value="urn:uuid:f0bed894-26a9-4ca6-8df4-8f7d7cb44b02"/>
            </result>
            <result>
               <reference value="urn:uuid:f9b52311-f1f4-426d-90ed-b1bd45c7e7cb"/>
            </result>
            <result>
               <reference value="urn:uuid:71aa4fa1-d949-43c7-9286-3b3ddde259b1"/>
            </result>
            <result>
               <reference value="urn:uuid:5dab0060-9bdd-457c-a4b9-eb7067f8d8a7"/>
            </result>
         </DiagnosticReport>
      </resource>
   </entry>
   <entry>
      <fullUrl value="urn:uuid:59823dca-76db-401e-9e9b-f67071cad905"/>
      <resource>
         <Patient>
            <id value="59823dca-76db-401e-9e9b-f67071cad905"/>
            <meta>
               <profile value="http://hl7.eu/fhir/base/StructureDefinition/patient-eu-core"/>
               <security>
                  <system value="http://terminology.hl7.org/CodeSystem/v3-ActReason"/>
                  <code value="HTEST"/>
               </security>
               <security>
                  <system value="http://terminology.hl7.org/CodeSystem/v3-ActReason"/>
                  <code value="TRAIN"/>
               </security>
               <tag>
                  <system value="https://synderai.net/fhir/CodeSystem/tags"/>
                  <code value="synthetic"/>
                  <display value="SYNDERAI Synthetic data"/>
               </tag>
            </meta>
            <text>
               <status value="generated"/>
               <div xmlns="http://www.w3.org/1999/xhtml">
                  <table class="hl7__ips">
                     <tr>
                        <td>Iva Kratochvílová</td>
                        <td>female</td>
                        <td>17-Sep-1964</td>
                     </tr>
                  </table>
               </div>
            </text>
            <extension url="http://hl7.org/fhir/StructureDefinition/patient-nationality">
               <valueCodeableConcept>
                  <coding>
                     <system value="http://hl7.org/fhir/ValueSet/country"/>
                     <code value="CZ"/>
                  </coding>
               </valueCodeableConcept>
            </extension>
            <identifier>
               <type>
                  <coding>
                     <system value="http://terminology.hl7.org/CodeSystem/v2-0203"/>
                     <code value="PT"/>
                  </coding>
               </type>
               <system value="http://ec.europa.eu/identifier/eci"/>
               <value value="4380-389488-0"/>
            </identifier>
            <identifier>
               <type>
                  <coding>
                     <system value="http://terminology.hl7.org/CodeSystem/v2-0203"/>
                     <code value="MR"/>
                  </coding>
               </type>
               <system value="http://local.setting.eu/identifier"/>
               <value value="f8f9ebdc-03dd-2fc0-819c-affa4ffd7f67"/>
            </identifier>
            <name>
               <family value="Kratochvílová"/>
            </name>
            <name>
               <given value="Iva"/>
            </name>
            <name>
               <text value="Iva Kratochvílová"/>
            </name>
            <telecom>
               <system value="phone"/>
               <value value="00420 607 985 072"/>
            </telecom>
            <gender value="female"/>
            <birthDate value="1964-09-17"/>
            <address>
               <use value="home"/>
               <type value="physical"/>
               <line value="Žofie Podlipské 4"/>
               <city value="Postoloprty"/>
               <postalCode value="27324"/>
               <country value="Czechia"/>
            </address>
         </Patient>
      </resource>
   </entry>
   <entry>
      <fullUrl value="urn:uuid:c9b6bbb4-0e0c-4c71-9c30-f894cbf0070d"/>
      <resource>
         <ServiceRequest>
            <id value="c9b6bbb4-0e0c-4c71-9c30-f894cbf0070d"/>
            <meta>
               <profile value="http://hl7.eu/fhir/laboratory/StructureDefinition/ServiceRequest-eu-lab"/>
            </meta>
            <identifier>
               <system value="http://example.org"/>
               <value value="8e752795-c83d-459c-ae32-0cbd8f3ec4f1"/>
            </identifier>
            <status value="active"/>
            <intent value="order"/>
            <code>
               <coding>
                  <system value="http://snomed.info/sct"/>
                  <code value="108252007"/>
                  <display value="Laboratory procedure"/>
               </coding>
            </code>
            <subject>
               <reference value="urn:uuid:59823dca-76db-401e-9e9b-f67071cad905"/>
               <display value="Iva Kratochvílová"/>
            </subject>
            <requester>
               <reference value="urn:uuid:6d5ed977-c87a-4183-86b5-916c1908f285"/>
            </requester>
            <reasonCode>
               <coding>
                  <system value="http://snomed.info/sct"/>
                  <code value="431856006"/>
                  <display value="Chronic kidney disease stage 2"/>
               </coding>
            </reasonCode>
            <reasonCode>
               <coding>
                  <system value="http://snomed.info/sct"/>
                  <code value="431855005"/>
                  <display value="Chronic kidney disease stage 1"/>
               </coding>
            </reasonCode>
            <reasonCode>
               <coding>
                  <system value="http://snomed.info/sct"/>
                  <code value="237602007"/>
                  <display value="Metabolic syndrome X"/>
               </coding>
            </reasonCode>
            <reasonCode>
               <coding>
                  <system value="http://snomed.info/sct"/>
                  <code value="91302008"/>
                  <display value="Sepsis"/>
               </coding>
            </reasonCode>
            <reasonCode>
               <coding>
                  <system value="http://snomed.info/sct"/>
                  <code value="271737000"/>
                  <display value="Anemia"/>
               </coding>
            </reasonCode>
            <reasonCode>
               <coding>
                  <system value="http://snomed.info/sct"/>
                  <code value="15777000"/>
                  <display value="Prediabetes"/>
               </coding>
            </reasonCode>
            <reasonCode>
               <coding>
                  <system value="http://snomed.info/sct"/>
                  <code value="157141000119108"/>
                  <display value="Proteinuria due to type 2 diabetes mellitus"/>
               </coding>
            </reasonCode>
            <reasonCode>
               <coding>
                  <system value="http://snomed.info/sct"/>
                  <code value="90781000119102"/>
                  <display value="Microalbuminuria due to type 2 diabetes mellitus"/>
               </coding>
            </reasonCode>
            <reasonCode>
               <coding>
                  <system value="http://snomed.info/sct"/>
                  <code value="239872002"/>
                  <display value="Osteoarthritis of hip"/>
               </coding>
            </reasonCode>
            <reasonCode>
               <coding>
                  <system value="http://snomed.info/sct"/>
                  <code value="40055000"/>
                  <display value="Chronic sinusitis"/>
               </coding>
            </reasonCode>
            <reasonCode>
               <coding>
                  <system value="http://snomed.info/sct"/>
                  <code value="127013003"/>
                  <display value="Disorder of kidney due to diabetes mellitus"/>
               </coding>
            </reasonCode>
            <reasonCode>
               <coding>
                  <system value="http://snomed.info/sct"/>
                  <code value="59621000"/>
                  <display value="Essential hypertension"/>
               </coding>
            </reasonCode>
            <specimen>
               <reference value="urn:uuid:c3e33420-5c4b-421f-8b39-ab6c68de84a8"/>
            </specimen>
         </ServiceRequest>
      </resource>
   </entry>
   <entry>
      <fullUrl value="urn:uuid:6d5ed977-c87a-4183-86b5-916c1908f285"/>
      <resource>
         <PractitionerRole>
            <id value="6d5ed977-c87a-4183-86b5-916c1908f285"/>
            <meta>
               <profile value="http://hl7.eu/fhir/base/StructureDefinition/practitionerRole-eu"/>
            </meta>
            <text>
               <status value="generated"/>
               <div xmlns="http://www.w3.org/1999/xhtml">Provider Role Id: 6d5ed977-c87a-4183-86b5-916c1908f285</div>
            </text>
            <organization>
               <reference value="urn:uuid:dc1074ac-d395-4d2b-803e-520f57c855d5"/>
            </organization>
         </PractitionerRole>
      </resource>
   </entry>
   <entry>
      <fullUrl value="urn:uuid:dc1074ac-d395-4d2b-803e-520f57c855d5"/>
      <resource>
         <Organization>
            <id value="dc1074ac-d395-4d2b-803e-520f57c855d5"/>
            <meta>
               <profile value="http://hl7.eu/fhir/base/StructureDefinition/organization-eu"/>
            </meta>
            <text>
               <status value="generated"/>
               <div xmlns="http://www.w3.org/1999/xhtml">Provider Organization: Nemocnice s poliklinikou Kadaň</div>
            </text>
            <identifier>
               <system value="urn:oid:2.16.840.1.113883.2.51.999"/>
               <value value="2aae175d-f55a-4a70-b6b5-f226fc7fc294"/>
               <assigner>
                  <display value="HL7 Europe"/>
               </assigner>
            </identifier>
            <name value="Nemocnice s poliklinikou Kadaň"/>
            <address>
               <city value="Kadaň"/>
               <postalCode value="432 01"/>
               <country value="Czechia"/>
            </address>
         </Organization>
      </resource>
   </entry>
   <entry>
      <fullUrl value="urn:uuid:c3e33420-5c4b-421f-8b39-ab6c68de84a8"/>
      <resource>
         <Specimen>
            <id value="c3e33420-5c4b-421f-8b39-ab6c68de84a8"/>
            <meta>
               <profile value="http://hl7.eu/fhir/laboratory/StructureDefinition/Specimen-eu-lab"/>
            </meta>
            <text>
               <status value="generated"/>
               <div xmlns="http://www.w3.org/1999/xhtml">
                  <table class="hl7__eu__lab__report">
                     <tr>
                        <th>Specimen</th>
                        <th>Collection Date</th>
                     </tr>
                     <tr>
                        <td>Whole blood specimen (specimen)</td>
                        <td>
                           <span class="nb">23-Feb-2020</span>
                        </td>
                     </tr>
                  </table>
               </div>
            </text>
            <type>
               <coding>
                  <system value="http://snomed.info/sct"/>
                  <code value="258580003"/>
                  <display value="Whole blood specimen (specimen)"/>
               </coding>
            </type>
            <collection>
               <collectedDateTime value="2020-02-23"/>
            </collection>
         </Specimen>
      </resource>
   </entry>
   <entry>
      <fullUrl value="urn:uuid:e20f2be9-8c66-481c-80b4-1e319fc1b6d3"/>
      <resource>
         <Observation>
            <id value="e20f2be9-8c66-481c-80b4-1e319fc1b6d3"/>
            <meta>
               <profile value="http://hl7.eu/fhir/laboratory/StructureDefinition/Observation-resultslab-eu-lab"/>
            </meta>
            <text>
               <status value="generated"/>
               <div xmlns="http://www.w3.org/1999/xhtml">
                  <table class="hl7__eu__lab__report">
                     <tr>
                        <th>Test</th>
                        <th>23-Feb-2020</th>
                        <th>Reference Range</th>
                        <th>Unit</th>
                     </tr>
                     <tr>
                        <td>Hemoglobin A1c/Hemoglobin.total in Blood</td>
                        <td>2.9</td>
                        <td>4 - 6</td>
                        <td>L</td>
                        <td>%</td>
                     </tr>
                  </table>
               </div>
            </text>
            <status value="final"/>
            <category>
               <coding>
                  <system value="http://terminology.hl7.org/CodeSystem/observation-category"/>
                  <code value="laboratory"/>
               </coding>
            </category>
            <code>
               <coding>
                  <system value="http://loinc.org"/>
                  <code value="4548-4"/>
                  <display value="Hemoglobin A1c/Hemoglobin.total in Blood"/>
               </coding>
               <text value="Hemoglobin A1c/Hemoglobin.total in Blood"/>
            </code>
            <subject>
               <reference value="urn:uuid:59823dca-76db-401e-9e9b-f67071cad905"/>
               <display value="Iva Kratochvílová"/>
            </subject>
            <effectiveDateTime value="2020-02-23T16:10:29Z"/>
            <performer>
               <display value="The Central European Lab"/>
            </performer>
            <valueQuantity>
               <value value="2.9"/>
               <unit value="%"/>
               <system value="http://unitsofmeasure.org"/>
               <code value="%"/>
            </valueQuantity>
            <interpretation>
               <coding>
                  <system value="http://terminology.hl7.org/CodeSystem/v3-ObservationInterpretation"/>
                  <code value="L"/>
                  <display value="Low"/>
               </coding>
            </interpretation>
            <specimen>
               <reference value="urn:uuid:c3e33420-5c4b-421f-8b39-ab6c68de84a8"/>
            </specimen>
            <referenceRange>
               <low>
                  <value value="4"/>
                  <system value="http://unitsofmeasure.org"/>
                  <code value="%"/>
               </low>
            </referenceRange>
            <referenceRange>
               <high>
                  <value value="6"/>
                  <system value="http://unitsofmeasure.org"/>
                  <code value="%"/>
               </high>
            </referenceRange>
         </Observation>
      </resource>
   </entry>
   <entry>
      <fullUrl value="urn:uuid:9973f4ba-50e8-4979-8c5b-1712a49e97b6"/>
      <resource>
         <Observation>
            <id value="9973f4ba-50e8-4979-8c5b-1712a49e97b6"/>
            <meta>
               <profile value="http://hl7.eu/fhir/laboratory/StructureDefinition/Observation-resultslab-eu-lab"/>
            </meta>
            <text>
               <status value="generated"/>
               <div xmlns="http://www.w3.org/1999/xhtml">
                  <table class="hl7__eu__lab__report">
                     <tr>
                        <th>Test</th>
                        <th>23-Feb-2020</th>
                        <th>Reference Range</th>
                        <th>Unit</th>
                     </tr>
                     <tr>
                        <td>Glucose [Mass/volume] in Blood</td>
                        <td>83.2</td>
                        <td>70 - 140</td>
                        <td/>
                        <td>mg/dL</td>
                     </tr>
                  </table>
               </div>
            </text>
            <status value="final"/>
            <category>
               <coding>
                  <system value="http://terminology.hl7.org/CodeSystem/observation-category"/>
                  <code value="laboratory"/>
               </coding>
            </category>
            <code>
               <coding>
                  <system value="http://loinc.org"/>
                  <code value="2339-0"/>
                  <display value="Glucose [Mass/volume] in Blood"/>
               </coding>
               <text value="Glucose [Mass/volume] in Blood"/>
            </code>
            <subject>
               <reference value="urn:uuid:59823dca-76db-401e-9e9b-f67071cad905"/>
               <display value="Iva Kratochvílová"/>
            </subject>
            <effectiveDateTime value="2020-02-23T16:10:29Z"/>
            <performer>
               <display value="The Central European Lab"/>
            </performer>
            <valueQuantity>
               <value value="83.2"/>
               <unit value="mg/dL"/>
               <system value="http://unitsofmeasure.org"/>
               <code value="mg/dL"/>
            </valueQuantity>
            <specimen>
               <reference value="urn:uuid:c3e33420-5c4b-421f-8b39-ab6c68de84a8"/>
            </specimen>
            <referenceRange>
               <low>
                  <value value="70"/>
                  <system value="http://unitsofmeasure.org"/>
                  <code value="mg/dL"/>
               </low>
            </referenceRange>
            <referenceRange>
               <high>
                  <value value="140"/>
                  <system value="http://unitsofmeasure.org"/>
                  <code value="mg/dL"/>
               </high>
            </referenceRange>
         </Observation>
      </resource>
   </entry>
   <entry>
      <fullUrl value="urn:uuid:6af89d02-fa86-468e-ba93-0ac524526aa1"/>
      <resource>
         <Observation>
            <id value="6af89d02-fa86-468e-ba93-0ac524526aa1"/>
            <meta>
               <profile value="http://hl7.eu/fhir/laboratory/StructureDefinition/Observation-resultslab-eu-lab"/>
            </meta>
            <text>
               <status value="generated"/>
               <div xmlns="http://www.w3.org/1999/xhtml">
                  <table class="hl7__eu__lab__report">
                     <tr>
                        <th>Test</th>
                        <th>23-Feb-2020</th>
                        <th>Reference Range</th>
                        <th>Unit</th>
                     </tr>
                     <tr>
                        <td>Urea nitrogen [Mass/volume] in Blood</td>
                        <td>17.7</td>
                        <td>7 - 25</td>
                        <td/>
                        <td>mg/dL</td>
                     </tr>
                  </table>
               </div>
            </text>
            <status value="final"/>
            <category>
               <coding>
                  <system value="http://terminology.hl7.org/CodeSystem/observation-category"/>
                  <code value="laboratory"/>
               </coding>
            </category>
            <code>
               <coding>
                  <system value="http://loinc.org"/>
                  <code value="6299-2"/>
                  <display value="Urea nitrogen [Mass/volume] in Blood"/>
               </coding>
               <text value="Urea nitrogen [Mass/volume] in Blood"/>
            </code>
            <subject>
               <reference value="urn:uuid:59823dca-76db-401e-9e9b-f67071cad905"/>
               <display value="Iva Kratochvílová"/>
            </subject>
            <effectiveDateTime value="2020-02-23T16:10:29Z"/>
            <performer>
               <display value="The Central European Lab"/>
            </performer>
            <valueQuantity>
               <value value="17.7"/>
               <unit value="mg/dL"/>
               <system value="http://unitsofmeasure.org"/>
               <code value="mg/dL"/>
            </valueQuantity>
            <specimen>
               <reference value="urn:uuid:c3e33420-5c4b-421f-8b39-ab6c68de84a8"/>
            </specimen>
            <referenceRange>
               <low>
                  <value value="7"/>
                  <system value="http://unitsofmeasure.org"/>
                  <code value="mg/dL"/>
               </low>
            </referenceRange>
            <referenceRange>
               <high>
                  <value value="25"/>
                  <system value="http://unitsofmeasure.org"/>
                  <code value="mg/dL"/>
               </high>
            </referenceRange>
         </Observation>
      </resource>
   </entry>
   <entry>
      <fullUrl value="urn:uuid:da79eebb-371c-45cf-b49b-83c3a147da93"/>
      <resource>
         <Observation>
            <id value="da79eebb-371c-45cf-b49b-83c3a147da93"/>
            <meta>
               <profile value="http://hl7.eu/fhir/laboratory/StructureDefinition/Observation-resultslab-eu-lab"/>
            </meta>
            <text>
               <status value="generated"/>
               <div xmlns="http://www.w3.org/1999/xhtml">
                  <table class="hl7__eu__lab__report">
                     <tr>
                        <th>Test</th>
                        <th>23-Feb-2020</th>
                        <th>Reference Range</th>
                        <th>Unit</th>
                     </tr>
                     <tr>
                        <td>Creatinine [Mass/volume] in Blood</td>
                        <td>1.1</td>
                        <td>0.6 - 1.1</td>
                        <td/>
                        <td>mg/dL</td>
                     </tr>
                  </table>
               </div>
            </text>
            <status value="final"/>
            <category>
               <coding>
                  <system value="http://terminology.hl7.org/CodeSystem/observation-category"/>
                  <code value="laboratory"/>
               </coding>
            </category>
            <code>
               <coding>
                  <system value="http://loinc.org"/>
                  <code value="38483-4"/>
                  <display value="Creatinine [Mass/volume] in Blood"/>
               </coding>
               <text value="Creatinine [Mass/volume] in Blood"/>
            </code>
            <subject>
               <reference value="urn:uuid:59823dca-76db-401e-9e9b-f67071cad905"/>
               <display value="Iva Kratochvílová"/>
            </subject>
            <effectiveDateTime value="2020-02-23T16:10:29Z"/>
            <performer>
               <display value="The Central European Lab"/>
            </performer>
            <valueQuantity>
               <value value="1.1"/>
               <unit value="mg/dL"/>
               <system value="http://unitsofmeasure.org"/>
               <code value="mg/dL"/>
            </valueQuantity>
            <specimen>
               <reference value="urn:uuid:c3e33420-5c4b-421f-8b39-ab6c68de84a8"/>
            </specimen>
            <referenceRange>
               <low>
                  <value value="0.6"/>
                  <system value="http://unitsofmeasure.org"/>
                  <code value="mg/dL"/>
               </low>
            </referenceRange>
            <referenceRange>
               <high>
                  <value value="1.1"/>
                  <system value="http://unitsofmeasure.org"/>
                  <code value="mg/dL"/>
               </high>
            </referenceRange>
         </Observation>
      </resource>
   </entry>
   <entry>
      <fullUrl value="urn:uuid:129fd3aa-b56e-418a-822e-0139a9e36280"/>
      <resource>
         <Observation>
            <id value="129fd3aa-b56e-418a-822e-0139a9e36280"/>
            <meta>
               <profile value="http://hl7.eu/fhir/laboratory/StructureDefinition/Observation-resultslab-eu-lab"/>
            </meta>
            <text>
               <status value="generated"/>
               <div xmlns="http://www.w3.org/1999/xhtml">
                  <table class="hl7__eu__lab__report">
                     <tr>
                        <th>Test</th>
                        <th>23-Feb-2020</th>
                        <th>Reference Range</th>
                        <th>Unit</th>
                     </tr>
                     <tr>
                        <td>Calcium [Mass/volume] in Blood</td>
                        <td>8.5</td>
                        <td>8.6 - 10.4</td>
                        <td>L</td>
                        <td>mg/dL</td>
                     </tr>
                  </table>
               </div>
            </text>
            <status value="final"/>
            <category>
               <coding>
                  <system value="http://terminology.hl7.org/CodeSystem/observation-category"/>
                  <code value="laboratory"/>
               </coding>
            </category>
            <code>
               <coding>
                  <system value="http://loinc.org"/>
                  <code value="49765-1"/>
                  <display value="Calcium [Mass/volume] in Blood"/>
               </coding>
               <text value="Calcium [Mass/volume] in Blood"/>
            </code>
            <subject>
               <reference value="urn:uuid:59823dca-76db-401e-9e9b-f67071cad905"/>
               <display value="Iva Kratochvílová"/>
            </subject>
            <effectiveDateTime value="2020-02-23T16:10:29Z"/>
            <performer>
               <display value="The Central European Lab"/>
            </performer>
            <valueQuantity>
               <value value="8.5"/>
               <unit value="mg/dL"/>
               <system value="http://unitsofmeasure.org"/>
               <code value="mg/dL"/>
            </valueQuantity>
            <interpretation>
               <coding>
                  <system value="http://terminology.hl7.org/CodeSystem/v3-ObservationInterpretation"/>
                  <code value="L"/>
                  <display value="Low"/>
               </coding>
            </interpretation>
            <specimen>
               <reference value="urn:uuid:c3e33420-5c4b-421f-8b39-ab6c68de84a8"/>
            </specimen>
            <referenceRange>
               <low>
                  <value value="8.6"/>
                  <system value="http://unitsofmeasure.org"/>
                  <code value="mg/dL"/>
               </low>
            </referenceRange>
            <referenceRange>
               <high>
                  <value value="10.4"/>
                  <system value="http://unitsofmeasure.org"/>
                  <code value="mg/dL"/>
               </high>
            </referenceRange>
         </Observation>
      </resource>
   </entry>
   <entry>
      <fullUrl value="urn:uuid:f0bed894-26a9-4ca6-8df4-8f7d7cb44b02"/>
      <resource>
         <Observation>
            <id value="f0bed894-26a9-4ca6-8df4-8f7d7cb44b02"/>
            <meta>
               <profile value="http://hl7.eu/fhir/laboratory/StructureDefinition/Observation-resultslab-eu-lab"/>
            </meta>
            <text>
               <status value="generated"/>
               <div xmlns="http://www.w3.org/1999/xhtml">
                  <table class="hl7__eu__lab__report">
                     <tr>
                        <th>Test</th>
                        <th>23-Feb-2020</th>
                        <th>Reference Range</th>
                        <th>Unit</th>
                     </tr>
                     <tr>
                        <td>Sodium [Moles/volume] in Blood</td>
                        <td>140.3</td>
                        <td>135 - 145</td>
                        <td/>
                        <td>mmol/L</td>
                     </tr>
                  </table>
               </div>
            </text>
            <status value="final"/>
            <category>
               <coding>
                  <system value="http://terminology.hl7.org/CodeSystem/observation-category"/>
                  <code value="laboratory"/>
               </coding>
            </category>
            <code>
               <coding>
                  <system value="http://loinc.org"/>
                  <code value="2947-0"/>
                  <display value="Sodium [Moles/volume] in Blood"/>
               </coding>
               <text value="Sodium [Moles/volume] in Blood"/>
            </code>
            <subject>
               <reference value="urn:uuid:59823dca-76db-401e-9e9b-f67071cad905"/>
               <display value="Iva Kratochvílová"/>
            </subject>
            <effectiveDateTime value="2020-02-23T16:10:29Z"/>
            <performer>
               <display value="The Central European Lab"/>
            </performer>
            <valueQuantity>
               <value value="140.3"/>
               <unit value="mmol/L"/>
               <system value="http://unitsofmeasure.org"/>
               <code value="mmol/L"/>
            </valueQuantity>
            <specimen>
               <reference value="urn:uuid:c3e33420-5c4b-421f-8b39-ab6c68de84a8"/>
            </specimen>
            <referenceRange>
               <low>
                  <value value="135"/>
                  <system value="http://unitsofmeasure.org"/>
                  <code value="mmol/L"/>
               </low>
            </referenceRange>
            <referenceRange>
               <high>
                  <value value="145"/>
                  <system value="http://unitsofmeasure.org"/>
                  <code value="mmol/L"/>
               </high>
            </referenceRange>
         </Observation>
      </resource>
   </entry>
   <entry>
      <fullUrl value="urn:uuid:f9b52311-f1f4-426d-90ed-b1bd45c7e7cb"/>
      <resource>
         <Observation>
            <id value="f9b52311-f1f4-426d-90ed-b1bd45c7e7cb"/>
            <meta>
               <profile value="http://hl7.eu/fhir/laboratory/StructureDefinition/Observation-resultslab-eu-lab"/>
            </meta>
            <text>
               <status value="generated"/>
               <div xmlns="http://www.w3.org/1999/xhtml">
                  <table class="hl7__eu__lab__report">
                     <tr>
                        <th>Test</th>
                        <th>23-Feb-2020</th>
                        <th>Reference Range</th>
                        <th>Unit</th>
                     </tr>
                     <tr>
                        <td>Potassium [Moles/volume] in Blood</td>
                        <td>4.2</td>
                        <td>3.5 - 5.1</td>
                        <td/>
                        <td>mmol/L</td>
                     </tr>
                  </table>
               </div>
            </text>
            <status value="final"/>
            <category>
               <coding>
                  <system value="http://terminology.hl7.org/CodeSystem/observation-category"/>
                  <code value="laboratory"/>
               </coding>
            </category>
            <code>
               <coding>
                  <system value="http://loinc.org"/>
                  <code value="6298-4"/>
                  <display value="Potassium [Moles/volume] in Blood"/>
               </coding>
               <text value="Potassium [Moles/volume] in Blood"/>
            </code>
            <subject>
               <reference value="urn:uuid:59823dca-76db-401e-9e9b-f67071cad905"/>
               <display value="Iva Kratochvílová"/>
            </subject>
            <effectiveDateTime value="2020-02-23T16:10:29Z"/>
            <performer>
               <display value="The Central European Lab"/>
            </performer>
            <valueQuantity>
               <value value="4.2"/>
               <unit value="mmol/L"/>
               <system value="http://unitsofmeasure.org"/>
               <code value="mmol/L"/>
            </valueQuantity>
            <specimen>
               <reference value="urn:uuid:c3e33420-5c4b-421f-8b39-ab6c68de84a8"/>
            </specimen>
            <referenceRange>
               <low>
                  <value value="3.5"/>
                  <system value="http://unitsofmeasure.org"/>
                  <code value="mmol/L"/>
               </low>
            </referenceRange>
            <referenceRange>
               <high>
                  <value value="5.1"/>
                  <system value="http://unitsofmeasure.org"/>
                  <code value="mmol/L"/>
               </high>
            </referenceRange>
         </Observation>
      </resource>
   </entry>
   <entry>
      <fullUrl value="urn:uuid:71aa4fa1-d949-43c7-9286-3b3ddde259b1"/>
      <resource>
         <Observation>
            <id value="71aa4fa1-d949-43c7-9286-3b3ddde259b1"/>
            <meta>
               <profile value="http://hl7.eu/fhir/laboratory/StructureDefinition/Observation-resultslab-eu-lab"/>
            </meta>
            <text>
               <status value="generated"/>
               <div xmlns="http://www.w3.org/1999/xhtml">
                  <table class="hl7__eu__lab__report">
                     <tr>
                        <th>Test</th>
                        <th>23-Feb-2020</th>
                        <th>Reference Range</th>
                        <th>Unit</th>
                     </tr>
                     <tr>
                        <td>Chloride [Moles/volume] in Blood</td>
                        <td>106.2</td>
                        <td>98 - 110</td>
                        <td/>
                        <td>mmol/L</td>
                     </tr>
                  </table>
               </div>
            </text>
            <status value="final"/>
            <category>
               <coding>
                  <system value="http://terminology.hl7.org/CodeSystem/observation-category"/>
                  <code value="laboratory"/>
               </coding>
            </category>
            <code>
               <coding>
                  <system value="http://loinc.org"/>
                  <code value="2069-3"/>
                  <display value="Chloride [Moles/volume] in Blood"/>
               </coding>
               <text value="Chloride [Moles/volume] in Blood"/>
            </code>
            <subject>
               <reference value="urn:uuid:59823dca-76db-401e-9e9b-f67071cad905"/>
               <display value="Iva Kratochvílová"/>
            </subject>
            <effectiveDateTime value="2020-02-23T16:10:29Z"/>
            <performer>
               <display value="The Central European Lab"/>
            </performer>
            <valueQuantity>
               <value value="106.2"/>
               <unit value="mmol/L"/>
               <system value="http://unitsofmeasure.org"/>
               <code value="mmol/L"/>
            </valueQuantity>
            <specimen>
               <reference value="urn:uuid:c3e33420-5c4b-421f-8b39-ab6c68de84a8"/>
            </specimen>
            <referenceRange>
               <low>
                  <value value="98"/>
                  <system value="http://unitsofmeasure.org"/>
                  <code value="mmol/L"/>
               </low>
            </referenceRange>
            <referenceRange>
               <high>
                  <value value="110"/>
                  <system value="http://unitsofmeasure.org"/>
                  <code value="mmol/L"/>
               </high>
            </referenceRange>
         </Observation>
      </resource>
   </entry>
   <entry>
      <fullUrl value="urn:uuid:5dab0060-9bdd-457c-a4b9-eb7067f8d8a7"/>
      <resource>
         <Observation>
            <id value="5dab0060-9bdd-457c-a4b9-eb7067f8d8a7"/>
            <meta>
               <profile value="http://hl7.eu/fhir/laboratory/StructureDefinition/Observation-resultslab-eu-lab"/>
            </meta>
            <text>
               <status value="generated"/>
               <div xmlns="http://www.w3.org/1999/xhtml">
                  <table class="hl7__eu__lab__report">
                     <tr>
                        <th>Test</th>
                        <th>23-Feb-2020</th>
                        <th>Reference Range</th>
                        <th>Unit</th>
                     </tr>
                     <tr>
                        <td>Carbon dioxide, total [Moles/volume] in Blood</td>
                        <td>21.6</td>
                        <td>22 - 29</td>
                        <td>L</td>
                        <td>mmol/L</td>
                     </tr>
                  </table>
               </div>
            </text>
            <status value="final"/>
            <category>
               <coding>
                  <system value="http://terminology.hl7.org/CodeSystem/observation-category"/>
                  <code value="laboratory"/>
               </coding>
            </category>
            <code>
               <coding>
                  <system value="http://loinc.org"/>
                  <code value="20565-8"/>
                  <display value="Carbon dioxide, total [Moles/volume] in Blood"/>
               </coding>
               <text value="Carbon dioxide, total [Moles/volume] in Blood"/>
            </code>
            <subject>
               <reference value="urn:uuid:59823dca-76db-401e-9e9b-f67071cad905"/>
               <display value="Iva Kratochvílová"/>
            </subject>
            <effectiveDateTime value="2020-02-23T16:10:29Z"/>
            <performer>
               <display value="The Central European Lab"/>
            </performer>
            <valueQuantity>
               <value value="21.6"/>
               <unit value="mmol/L"/>
               <system value="http://unitsofmeasure.org"/>
               <code value="mmol/L"/>
            </valueQuantity>
            <interpretation>
               <coding>
                  <system value="http://terminology.hl7.org/CodeSystem/v3-ObservationInterpretation"/>
                  <code value="L"/>
                  <display value="Low"/>
               </coding>
            </interpretation>
            <specimen>
               <reference value="urn:uuid:c3e33420-5c4b-421f-8b39-ab6c68de84a8"/>
            </specimen>
            <referenceRange>
               <low>
                  <value value="22"/>
                  <system value="http://unitsofmeasure.org"/>
                  <code value="mmol/L"/>
               </low>
            </referenceRange>
            <referenceRange>
               <high>
                  <value value="29"/>
                  <system value="http://unitsofmeasure.org"/>
                  <code value="mmol/L"/>
               </high>
            </referenceRange>
         </Observation>
      </resource>
   </entry>
   <entry>
      <fullUrl value="urn:uuid:3783bb26-3b9d-4867-a0e6-f2ee1abd0284"/>
      <resource>
         <Device>
            <id value="3783bb26-3b9d-4867-a0e6-f2ee1abd0284"/>
            <text>
               <status value="generated"/>
               <div xmlns="http://www.w3.org/1999/xhtml">SYNDERAI Synthetic Generator v5.0</div>
            </text>
            <status value="active&#34;"/>
            <distinctIdentifier value="synderai-generator-50"/>
            <manufacturer value="SYNDERAI Project"/>
            <deviceName>
               <name value="SYNDERAI Synthetic Generator"/>
               <type value="manufacturer-name"/>
            </deviceName>
            <version>
               <value value="5.0"/>
            </version>
         </Device>
      </resource>
   </entry>
   <entry>
      <fullUrl value="urn:uuid:bd9e37d6-ab8e-4cea-a2b7-74ef081e730e"/>
      <resource>
         <Provenance>
            <id value="bd9e37d6-ab8e-4cea-a2b7-74ef081e730e"/>
            <text>
               <status value="generated"/>
               <div xmlns="http://www.w3.org/1999/xhtml">Provenance for SYNDERAI Synthetic Example Data Resource</div>
            </text>
            <target>
               <reference value="Patient/59823dca-76db-401e-9e9b-f67071cad905"/>
            </target>
            <target>
               <reference value="Bundle/363844e3-27c5-4d30-870d-bb280221e5b5"/>
            </target>
            <target>
               <reference value="Composition/ff5cf055-b162-4712-8595-928d68782388"/>
            </target>
            <target>
               <reference value="PractitionerRole/8d5b6fd0-34f0-4dd5-9f5b-647c0b9001d3"/>
            </target>
            <target>
               <reference value="Practitioner/d0799ff8-9e8a-4859-b1f4-54b433084384"/>
            </target>
            <target>
               <reference value="PractitionerRole/6d5ed977-c87a-4183-86b5-916c1908f285"/>
            </target>
            <target>
               <reference value="Organization/dc1074ac-d395-4d2b-803e-520f57c855d5"/>
            </target>
            <recorded value="2020-02-23T17:10:29Z"/>
            <policy value="https://synderai.net/synderai-synthetic-data-policy"/>
            <reason>
               <text value="Interoperability Testing and Training (non-clinical use)"/>
            </reason>
            <activity>
               <text value="Synthetic Example Data Generation"/>
            </activity>
            <agent>
               <type>
                  <text value="author"/>
               </type>
               <who>
                  <reference value="Device/3783bb26-3b9d-4867-a0e6-f2ee1abd0284"/>
               </who>
            </agent>
         </Provenance>
      </resource>
   </entry>
   <entry>
      <fullUrl value="urn:uuid:8d5b6fd0-34f0-4dd5-9f5b-647c0b9001d3"/>
      <resource>
         <PractitionerRole>
            <id value="8d5b6fd0-34f0-4dd5-9f5b-647c0b9001d3"/>
            <meta>
               <profile value="http://hl7.eu/fhir/base/StructureDefinition/practitionerRole-eu"/>
            </meta>
            <text>
               <status value="generated"/>
               <div xmlns="http://www.w3.org/1999/xhtml">Laboratory Role Id: 8d5b6fd0-34f0-4dd5-9f5b-647c0b9001d3</div>
            </text>
            <practitioner>
               <reference value="urn:uuid:d0799ff8-9e8a-4859-b1f4-54b433084384"/>
            </practitioner>
         </PractitionerRole>
      </resource>
   </entry>
   <entry>
      <fullUrl value="urn:uuid:d0799ff8-9e8a-4859-b1f4-54b433084384"/>
      <resource>
         <Practitioner>
            <id value="d0799ff8-9e8a-4859-b1f4-54b433084384"/>
            <meta>
               <profile value="http://hl7.eu/fhir/base/StructureDefinition/practitioner-eu"/>
            </meta>
            <text>
               <status value="generated"/>
               <div xmlns="http://www.w3.org/1999/xhtml">Laboratory: Laboratoire Central Européenne, 1000 Brussels, Belgium</div>
            </text>
            <identifier>
               <system value="urn:oid:2.16.840.1.113883.2.51.999"/>
               <value value="d04a92a0-e746-4f9d-a6a3-4dff5aa5418e"/>
               <assigner>
                  <display value="HL7 Europe"/>
               </assigner>
            </identifier>
            <name>
               <family value="Ample"/>
               <given value="Ex"/>
               <prefix value="dr"/>
            </name>
            <address>
               <line value="Laboratoire Central Européenne"/>
               <line value="Boulevard du Jardin Botanique 32"/>
               <city value="Brussels"/>
               <postalCode value="1000"/>
               <country value="Belgium"/>
            </address>
         </Practitioner>
      </resource>
   </entry>
</Bundle>