{
  "resourceType": "Bundle",
  "id": "e7db7ba9-c7e2-4bfc-b422-7cd43d6b523d",
  "meta": {
    "profile": [
      "http://hl7.eu/fhir/laboratory/StructureDefinition/Bundle-eu-lab"
    ]
  },
  "identifier": {
    "assigner": {
      "display": "HL7 Europe"
    },
    "system": "urn:oid:2.16.840.1.113883.2.51.999",
    "value": "e93fc862-9368-4fc3-ac61-a2381c39c321"
  },
  "entry": [
    {
      "fullUrl": "urn:uuid:75c39457-1a90-4397-9f5b-5649e2b92d62",
      "resource": {
        "resourceType": "Composition",
        "id": "75c39457-1a90-4397-9f5b-5649e2b92d62",
        "meta": {
          "profile": [
            "http://hl7.eu/fhir/laboratory/StructureDefinition/Composition-eu-lab"
          ]
        },
        "identifier": {
          "assigner": {
            "display": "HL7 Europe"
          },
          "system": "urn:oid:2.16.840.1.113883.2.51.999",
          "value": "165a2b40-593d-4dbc-aed8-0843774c477d"
        },
        "author": [
          {
            "reference": "urn:uuid:ea25e0f0-7091-4e54-a1cd-4f00c0ea559f"
          }
        ],
        "category": [
          {
            "coding": [
              {
                "code": "26436-6",
                "system": "http://loinc.org",
                "display": "Laboratory studies (set)"
              }
            ]
          }
        ],
        "type": {
          "coding": [
            {
              "code": "11502-2",
              "system": "http://loinc.org",
              "display": "Laboratory report"
            }
          ],
          "text": "Laboratory Report"
        },
        "section": [
          {
            "code": {
              "coding": [
                {
                  "code": "26436-6",
                  "system": "http://loinc.org",
                  "display": "Laboratory studies (set)"
                }
              ],
              "text": "Laboratory studies"
            },
            "section": [
              {
                "code": {
                  "coding": [
                    {
                      "code": "$18719-5",
                      "system": "http://loinc.org",
                      "display": "Chemistry studies (set)"
                    }
                  ],
                  "text": "Chemistry"
                },
                "entry": [
                  {
                    "reference": "urn:uuid:f8095f77-f86f-4b29-a24b-1a417bd48c2a"
                  },
                  {
                    "reference": "urn:uuid:e3a958de-111b-4998-872f-505ba86c42e8"
                  },
                  {
                    "reference": "urn:uuid:174fe185-c52c-407e-8bed-61697509e460"
                  },
                  {
                    "reference": "urn:uuid:07c4807d-8d5b-4db4-9f87-d1a4816c73d4"
                  },
                  {
                    "reference": "urn:uuid:d5dc52c2-b6ac-4ecb-b95a-939703b6d203"
                  },
                  {
                    "reference": "urn:uuid:15b1e35b-d5a9-45c9-a7f0-d39020694dcf"
                  },
                  {
                    "reference": "urn:uuid:c20391be-3d72-4cb2-9603-9dcd72083f88"
                  },
                  {
                    "reference": "urn:uuid:d0695955-ca55-4f1a-922e-cc22f0f4bece"
                  },
                  {
                    "reference": "urn:uuid:2b36a228-566f-4a11-bd4c-d60e0bef1641"
                  }
                ],
                "text": {
                  "status": "generated",
                  "div": "<div xmlns=\"http://www.w3.org/1999/xhtml\"><h3>Chemistry</h3><table class=\"hl7__eu__lab__report\"><thead><tr><th>Test</th><th>19-DEC-2019</th><th>Reference&#xA0;Range</th><th>Unit</th></tr></thead><tbody><tr><td>Glucose [Mass/volume] in Serum or Plasma</td><td>86.5</td><td>70 - 140</td><td>mg/dL</td></tr><tr><td>Urea nitrogen [Mass/volume] in Serum or Plasma</td><td>7.7</td><td>7 - 50</td><td>mg/dL</td></tr><tr><td>Creatinine [Mass/volume] in Serum or Plasma</td><td><strong>1.7 H</strong></td><td>0.6 - 1.1</td><td>mg/dL</td></tr><tr><td>Calcium [Mass/volume] in Serum or Plasma</td><td>9.3</td><td>8.5 - 10.5</td><td>mg/dL</td></tr><tr><td>Sodium [Moles/volume] in Serum or Plasma</td><td>138.8</td><td>135 - 145</td><td>mmol/L</td></tr><tr><td>Potassium [Moles/volume] in Serum or Plasma</td><td>3.8</td><td>3.5 - 5.1</td><td>mmol/L</td></tr><tr><td>Chloride [Moles/volume] in Serum or Plasma</td><td>101.7</td><td>98 - 108</td><td>mmol/L</td></tr><tr><td>Carbon dioxide, total [Moles/volume] in Serum or Plasma</td><td>23.0</td><td>22 - 32</td><td>mmol/L</td></tr><tr><td>Ketones [Presence] in Urine by Test strip</td><td>Urine ketone test = trace</td><td></td><td></td></tr></tbody></table></div>"
                },
                "title": "Chemistry"
              },
              {
                "code": {
                  "coding": [
                    {
                      "code": "$18729-4",
                      "system": "http://loinc.org",
                      "display": "Urinalysis studies (set)"
                    }
                  ],
                  "text": "Urinalysis"
                },
                "entry": [
                  {
                    "reference": "urn:uuid:5bdbab54-af58-41fb-8fcb-10d84f9d5f16"
                  },
                  {
                    "reference": "urn:uuid:7b313113-d6ed-45d5-bd91-8ea011cd7e2c"
                  },
                  {
                    "reference": "urn:uuid:7fd26925-dfac-43cd-b436-f622c3ec8faa"
                  },
                  {
                    "reference": "urn:uuid:ccbcd73b-f800-4eb7-862f-9531ca3c9bbd"
                  },
                  {
                    "reference": "urn:uuid:4e1955dc-a153-418f-9622-784345ea679e"
                  },
                  {
                    "reference": "urn:uuid:138f08aa-7db4-4009-a864-858754295033"
                  },
                  {
                    "reference": "urn:uuid:78dde260-ac7a-44b0-95b6-b30989fcdc94"
                  },
                  {
                    "reference": "urn:uuid:1688476b-98c3-4cb4-9efc-4774f8a8b482"
                  },
                  {
                    "reference": "urn:uuid:7231954b-56b8-4851-b50b-d87e2a7f2d61"
                  },
                  {
                    "reference": "urn:uuid:a159843a-f5e4-430c-9293-b4a2928c560e"
                  },
                  {
                    "reference": "urn:uuid:16cca1c9-9a89-4dfa-9882-c48417b2292a"
                  },
                  {
                    "reference": "urn:uuid:aa2438e3-b07a-4e3c-808c-b2e9c83b410a"
                  }
                ],
                "text": {
                  "status": "generated",
                  "div": "<div xmlns=\"http://www.w3.org/1999/xhtml\"><h3>Urinalysis</h3><table class=\"hl7__eu__lab__report\"><thead><tr><th>Test</th><th>19-DEC-2019</th><th>Reference&#xA0;Range</th><th>Unit</th></tr></thead><tbody><tr><td>Glucose [Mass/volume] in Urine by Test strip</td><td><strong>1.1 H</strong></td><td>0.8 - 0</td><td>mg/dL</td></tr><tr><td>Glucose [Presence] in Urine by Test strip</td><td>++</td><td></td><td></td></tr><tr><td>Bilirubin.total [Mass/volume] in Urine by Test strip</td><td>0.9</td><td>0 - 1</td><td>mg/dL</td></tr><tr><td>Bilirubin.total [Presence] in Urine by Test strip</td><td>Finding of bilirubin in urine</td><td></td><td></td></tr><tr><td>Ketones [Mass/volume] in Urine by Test strip</td><td>6.7</td><td>0 - 20</td><td>mg/dL</td></tr><tr><td>Specific gravity of Urine by Test strip</td><td><strong>1.0 L</strong></td><td>1.01 - 1.03</td><td>{nominal}</td></tr><tr><td>pH of Urine by Test strip</td><td>6.9</td><td>4.6 - 7</td><td>pH</td></tr><tr><td>Protein [Mass/volume] in Urine by Test strip</td><td><strong>93.1 H</strong></td><td>0 - 15</td><td>mg/dL</td></tr><tr><td>Protein [Presence] in Urine by Test strip</td><td>Urine protein test = +</td><td></td><td></td></tr><tr><td>Nitrite [Presence] in Urine by Test strip</td><td>Urine nitrite negative</td><td></td><td></td></tr><tr><td>Hemoglobin [Presence] in Urine by Test strip</td><td>Urine blood test = negative</td><td></td><td></td></tr><tr><td>Leukocyte esterase [Presence] in Urine by Test strip</td><td>Urine leukocyte test negative</td><td></td><td></td></tr></tbody></table></div>"
                },
                "title": "Urinalysis"
              },
              {
                "code": {
                  "coding": [
                    {
                      "code": "$LP7846-1",
                      "system": "http://loinc.org",
                      "display": "Specimen information"
                    }
                  ],
                  "text": "Specimen information"
                },
                "entry": [
                  {
                    "reference": "urn:uuid:0a1c621f-65e0-408e-b51e-a1265c4dfd1f"
                  },
                  {
                    "reference": "urn:uuid:636645b6-3d7a-4dd7-9d48-e6374a8131de"
                  },
                  {
                    "reference": "urn:uuid:7f369c27-de0f-402a-b5db-badc1be82ecc"
                  },
                  {
                    "reference": "urn:uuid:35bc8304-3f15-4863-995c-436819ee0327"
                  }
                ],
                "text": {
                  "status": "generated",
                  "div": "<div xmlns=\"http://www.w3.org/1999/xhtml\"><h3>Specimen information</h3><table class=\"hl7__eu__lab__report\"><thead><tr><th>Test</th><th>19-DEC-2019</th><th>Specimen</th><th></th></tr></thead><tbody><tr><td>Appearance of Urine</td><td>Cloudy urine</td><td>Urine</td><td></td></tr><tr><td>Odor of Urine</td><td>Urine smell ammoniacal</td><td>Urine</td><td></td></tr><tr><td>Clarity of Urine</td><td>Translucent</td><td>Urine</td><td></td></tr><tr><td>Color of Urine</td><td>Brown color</td><td>Urine</td><td></td></tr></tbody></table></div>"
                },
                "title": "Specimen information"
              }
            ],
            "title": "Laboratory Report"
          },
          {
            "text": {
              "status": "generated",
              "div": "<div xmlns=\"http://www.w3.org/1999/xhtml\"><h3>Annotation</h3><table class=\"hl7__eu__lab__report\"><tr><th>Conclusion and Recommendations based on this report and previous findings known to us</th></tr><tr><td>Renal function is impaired as indicated by elevated serum creatinine. Urinalysis shows proteinuria, glucosuria, low specific gravity, and abnormal urine appearance (cloudy, brown, ammoniacal), suggesting possible renal tubular dysfunction or chronic kidney disease. No evidence of urinary tract infection (negative nitrites, leukocytes, hemoglobin). Recommend further nephrological evaluation and monitoring of renal function.</td></tr></table></div>"
            },
            "code": {
              "coding": [
                {
                  "system": "http://loinc.org",
                  "code": "48767-8",
                  "display": "Annotation comment"
                }
              ]
            },
            "title": "Annotation comment"
          }
        ],
        "status": "final",
        "subject": {
          "reference": "urn:uuid:c729ab77-86d6-4158-9080-7833b945a463",
          "display": "Marthe Gallet"
        },
        "date": "2019-12-19T20:05:43Z",
        "title": "Laboratory Report",
        "confidentiality": "N"
      }
    },
    {
      "fullUrl": "urn:uuid:b4e12bfd-d08b-41df-b578-fd3855a61369",
      "resource": {
        "resourceType": "DiagnosticReport",
        "id": "b4e12bfd-d08b-41df-b578-fd3855a61369",
        "meta": {
          "profile": [
            "http://hl7.eu/fhir/laboratory/StructureDefinition/DiagnosticReport-eu-lab"
          ]
        },
        "identifier": [
          {
            "assigner": {
              "display": "HL7 Europe"
            },
            "system": "urn:oid:2.16.840.1.113883.2.51.999",
            "value": "4ce93a3e-1584-4953-a88f-09e603194781"
          }
        ],
        "extension": [
          {
            "url": "http://hl7.org/fhir/5.0/StructureDefinition/extension-DiagnosticReport.composition",
            "valueReference": {
              "reference": "urn:uuid:165a2b40-593d-4dbc-aed8-0843774c477d"
            }
          }
        ],
        "category": [
          {
            "coding": [
              {
                "code": "26436-6",
                "system": "http://loinc.org",
                "display": "Laboratory studies (set)"
              }
            ]
          }
        ],
        "specimen": [
          {
            "reference": "urn:uuid:399970d3-2c65-45ab-bb3d-31c1a986b2b0"
          },
          {
            "reference": "urn:uuid:0c05bbde-8224-484b-85fa-8414a17093dd"
          }
        ],
        "result": [
          {
            "reference": "urn:uuid:f8095f77-f86f-4b29-a24b-1a417bd48c2a"
          },
          {
            "reference": "urn:uuid:e3a958de-111b-4998-872f-505ba86c42e8"
          },
          {
            "reference": "urn:uuid:174fe185-c52c-407e-8bed-61697509e460"
          },
          {
            "reference": "urn:uuid:07c4807d-8d5b-4db4-9f87-d1a4816c73d4"
          },
          {
            "reference": "urn:uuid:d5dc52c2-b6ac-4ecb-b95a-939703b6d203"
          },
          {
            "reference": "urn:uuid:15b1e35b-d5a9-45c9-a7f0-d39020694dcf"
          },
          {
            "reference": "urn:uuid:c20391be-3d72-4cb2-9603-9dcd72083f88"
          },
          {
            "reference": "urn:uuid:d0695955-ca55-4f1a-922e-cc22f0f4bece"
          },
          {
            "reference": "urn:uuid:0a1c621f-65e0-408e-b51e-a1265c4dfd1f"
          },
          {
            "reference": "urn:uuid:636645b6-3d7a-4dd7-9d48-e6374a8131de"
          },
          {
            "reference": "urn:uuid:7f369c27-de0f-402a-b5db-badc1be82ecc"
          },
          {
            "reference": "urn:uuid:35bc8304-3f15-4863-995c-436819ee0327"
          },
          {
            "reference": "urn:uuid:5bdbab54-af58-41fb-8fcb-10d84f9d5f16"
          },
          {
            "reference": "urn:uuid:7b313113-d6ed-45d5-bd91-8ea011cd7e2c"
          },
          {
            "reference": "urn:uuid:7fd26925-dfac-43cd-b436-f622c3ec8faa"
          },
          {
            "reference": "urn:uuid:ccbcd73b-f800-4eb7-862f-9531ca3c9bbd"
          },
          {
            "reference": "urn:uuid:4e1955dc-a153-418f-9622-784345ea679e"
          },
          {
            "reference": "urn:uuid:2b36a228-566f-4a11-bd4c-d60e0bef1641"
          },
          {
            "reference": "urn:uuid:138f08aa-7db4-4009-a864-858754295033"
          },
          {
            "reference": "urn:uuid:78dde260-ac7a-44b0-95b6-b30989fcdc94"
          },
          {
            "reference": "urn:uuid:1688476b-98c3-4cb4-9efc-4774f8a8b482"
          },
          {
            "reference": "urn:uuid:7231954b-56b8-4851-b50b-d87e2a7f2d61"
          },
          {
            "reference": "urn:uuid:a159843a-f5e4-430c-9293-b4a2928c560e"
          },
          {
            "reference": "urn:uuid:16cca1c9-9a89-4dfa-9882-c48417b2292a"
          },
          {
            "reference": "urn:uuid:aa2438e3-b07a-4e3c-808c-b2e9c83b410a"
          }
        ],
        "status": "registered",
        "code": {
          "coding": [
            {
              "code": "11502-2",
              "system": "http://loinc.org",
              "display": "Laboratory report"
            }
          ]
        },
        "subject": {
          "reference": "urn:uuid:c729ab77-86d6-4158-9080-7833b945a463",
          "display": "Marthe Gallet"
        }
      }
    },
    {
      "fullUrl": "urn:uuid:c729ab77-86d6-4158-9080-7833b945a463",
      "resource": {
        "resourceType": "Patient",
        "id": "c729ab77-86d6-4158-9080-7833b945a463",
        "meta": {
          "security": [
            {
              "system": "http://terminology.hl7.org/CodeSystem/v3-ActReason",
              "code": "HTEST"
            },
            {
              "system": "http://terminology.hl7.org/CodeSystem/v3-ActReason",
              "code": "TRAIN"
            }
          ],
          "tag": [
            {
              "system": "https://synderai.net/fhir/CodeSystem/tags",
              "code": "synthetic",
              "display": "SYNDERAI Synthetic data"
            }
          ],
          "profile": [
            "http://hl7.eu/fhir/base/StructureDefinition/patient-eu-core"
          ]
        },
        "identifier": [
          {
            "type": {
              "coding": [
                {
                  "code": "PT",
                  "system": "http://terminology.hl7.org/CodeSystem/v2-0203"
                }
              ]
            },
            "system": "http://ec.europa.eu/identifier/eci",
            "value": "9444-947487-6"
          },
          {
            "type": {
              "coding": [
                {
                  "code": "MR",
                  "system": "http://terminology.hl7.org/CodeSystem/v2-0203"
                }
              ]
            },
            "system": "http://local.setting.eu/identifier",
            "value": "854228d5-a476-2d9c-a1d7-c3202375a617"
          }
        ],
        "name": [
          {
            "family": "Gallet"
          },
          {
            "given": [
              "Marthe"
            ]
          },
          {
            "text": "Marthe Gallet"
          }
        ],
        "address": [
          {
            "line": [
              "3, rue Emmanuel Goncalves"
            ],
            "use": "home",
            "type": "physical",
            "postalCode": "49490",
            "city": "Briand",
            "country": "France"
          }
        ],
        "telecom": [
          {
            "system": "phone",
            "value": "+33 1 70 99 82 74"
          }
        ],
        "extension": [
          {
            "url": "http://hl7.org/fhir/StructureDefinition/patient-nationality",
            "valueCodeableConcept": {
              "coding": [
                {
                  "code": "FR",
                  "system": "http://hl7.org/fhir/ValueSet/country"
                }
              ]
            }
          }
        ],
        "text": {
          "status": "generated",
          "div": "<div xmlns=\"http://www.w3.org/1999/xhtml\"><table class=\"hl7__ips\"><tr><td>Marthe Gallet</td><td>female</td><td>29-Oct-1950</td></tr></table></div>"
        },
        "gender": "female",
        "birthDate": "1950-10-29"
      }
    },
    {
      "fullUrl": "urn:uuid:2b3b8719-11f4-400b-bfb6-c9cb3c1ad962",
      "resource": {
        "resourceType": "ServiceRequest",
        "id": "2b3b8719-11f4-400b-bfb6-c9cb3c1ad962",
        "meta": {
          "profile": [
            "http://hl7.eu/fhir/laboratory/StructureDefinition/ServiceRequest-eu-lab"
          ]
        },
        "identifier": [
          {
            "system": "http://example.org",
            "value": "6544e17c-808d-47e5-b33d-a8d2f695b6bb"
          }
        ],
        "specimen": [
          {
            "reference": "urn:uuid:399970d3-2c65-45ab-bb3d-31c1a986b2b0"
          },
          {
            "reference": "urn:uuid:0c05bbde-8224-484b-85fa-8414a17093dd"
          }
        ],
        "reasonCode": [
          {
            "coding": [
              {
                "code": "431856006",
                "system": "http://snomed.info/sct",
                "display": "Chronic kidney disease stage 2"
              }
            ]
          },
          {
            "coding": [
              {
                "code": "90781000119102",
                "system": "http://snomed.info/sct",
                "display": "Microalbuminuria due to type 2 diabetes mellitus"
              }
            ]
          },
          {
            "coding": [
              {
                "code": "127013003",
                "system": "http://snomed.info/sct",
                "display": "Disorder of kidney due to diabetes mellitus"
              }
            ]
          },
          {
            "coding": [
              {
                "code": "431855005",
                "system": "http://snomed.info/sct",
                "display": "Chronic kidney disease stage 1"
              }
            ]
          },
          {
            "coding": [
              {
                "code": "55822004",
                "system": "http://snomed.info/sct",
                "display": "Hyperlipidemia"
              }
            ]
          },
          {
            "coding": [
              {
                "code": "59621000",
                "system": "http://snomed.info/sct",
                "display": "Essential hypertension"
              }
            ]
          }
        ],
        "status": "active",
        "intent": "order",
        "code": {
          "coding": [
            {
              "code": "108252007",
              "system": "http://snomed.info/sct",
              "display": "Laboratory procedure"
            }
          ]
        },
        "subject": {
          "reference": "urn:uuid:c729ab77-86d6-4158-9080-7833b945a463",
          "display": "Marthe Gallet"
        },
        "requester": {
          "reference": "urn:uuid:cb5f7594-2414-4c5b-98b9-23d6826650e7"
        }
      }
    },
    {
      "fullUrl": "urn:uuid:cb5f7594-2414-4c5b-98b9-23d6826650e7",
      "resource": {
        "resourceType": "PractitionerRole",
        "id": "cb5f7594-2414-4c5b-98b9-23d6826650e7",
        "meta": {
          "profile": [
            "http://hl7.eu/fhir/base/StructureDefinition/practitionerRole-eu"
          ]
        },
        "text": {
          "status": "generated",
          "div": "<div xmlns=\"http://www.w3.org/1999/xhtml\">Provider Role Id: cb5f7594-2414-4c5b-98b9-23d6826650e7</div>"
        },
        "organization": {
          "reference": "urn:uuid:e97e3c92-04f4-4b7f-88bf-b9a50cefe8b1"
        }
      }
    },
    {
      "fullUrl": "urn:uuid:e97e3c92-04f4-4b7f-88bf-b9a50cefe8b1",
      "resource": {
        "resourceType": "Organization",
        "id": "e97e3c92-04f4-4b7f-88bf-b9a50cefe8b1",
        "meta": {
          "profile": [
            "http://hl7.eu/fhir/base/StructureDefinition/organization-eu"
          ]
        },
        "identifier": [
          {
            "assigner": {
              "display": "HL7 Europe"
            },
            "system": "urn:oid:2.16.840.1.113883.2.51.999",
            "value": "d11f5359-beee-42a9-80c8-03c943044429"
          }
        ],
        "address": [
          {
            "line": [
              "Rue Larrey nan"
            ],
            "city": "Angers",
            "postalCode": "49100",
            "country": "France"
          }
        ],
        "text": {
          "status": "generated",
          "div": "<div xmlns=\"http://www.w3.org/1999/xhtml\">Provider Organization: CHU d&#039;Angers</div>"
        },
        "name": "CHU d&#039;Angers"
      }
    },
    {
      "fullUrl": "urn:uuid:399970d3-2c65-45ab-bb3d-31c1a986b2b0",
      "resource": {
        "resourceType": "Specimen",
        "id": "399970d3-2c65-45ab-bb3d-31c1a986b2b0",
        "meta": {
          "profile": [
            "http://hl7.eu/fhir/laboratory/StructureDefinition/Specimen-eu-lab"
          ]
        },
        "collection": {
          "collectedDateTime": "2019-12-19"
        },
        "text": {
          "status": "generated",
          "div": "<div xmlns=\"http://www.w3.org/1999/xhtml\"><table class=\"hl7__eu__lab__report\"><tr><th>Specimen</th><th>Collection Date</th></tr><tr><td>Acellular blood (serum or plasma) specimen</td><td><span class=\"nb\">19-Dec-2019</span></td></tr></table></div>"
        },
        "type": {
          "coding": [
            {
              "code": "122592007",
              "system": "http://snomed.info/sct",
              "display": "Acellular blood (serum or plasma) specimen"
            }
          ]
        }
      }
    },
    {
      "fullUrl": "urn:uuid:0c05bbde-8224-484b-85fa-8414a17093dd",
      "resource": {
        "resourceType": "Specimen",
        "id": "0c05bbde-8224-484b-85fa-8414a17093dd",
        "meta": {
          "profile": [
            "http://hl7.eu/fhir/laboratory/StructureDefinition/Specimen-eu-lab"
          ]
        },
        "collection": {
          "collectedDateTime": "2019-12-19"
        },
        "text": {
          "status": "generated",
          "div": "<div xmlns=\"http://www.w3.org/1999/xhtml\"><table class=\"hl7__eu__lab__report\"><tr><th>Specimen</th><th>Collection Date</th></tr><tr><td>Urine specimen</td><td><span class=\"nb\">19-Dec-2019</span></td></tr></table></div>"
        },
        "type": {
          "coding": [
            {
              "code": "122575003",
              "system": "http://snomed.info/sct",
              "display": "Urine specimen"
            }
          ]
        }
      }
    },
    {
      "fullUrl": "urn:uuid:f8095f77-f86f-4b29-a24b-1a417bd48c2a",
      "resource": {
        "resourceType": "Observation",
        "id": "f8095f77-f86f-4b29-a24b-1a417bd48c2a",
        "meta": {
          "profile": [
            "http://hl7.eu/fhir/laboratory/StructureDefinition/Observation-resultslab-eu-lab"
          ]
        },
        "performer": [
          {
            "display": "The Central European Lab"
          }
        ],
        "category": [
          {
            "coding": [
              {
                "system": "http://terminology.hl7.org/CodeSystem/observation-category",
                "code": "laboratory"
              }
            ]
          }
        ],
        "code": {
          "coding": [
            {
              "code": "2345-7",
              "system": "http://loinc.org",
              "display": "Glucose [Mass/volume] in Serum or Plasma"
            }
          ],
          "text": "Glucose [Mass/volume] in Serum or Plasma"
        },
        "valueQuantity": {
          "system": "http://unitsofmeasure.org",
          "value": 86.5,
          "unit": "mg/dL",
          "code": "mg/dL"
        },
        "referenceRange": [
          {
            "low": {
              "value": 70,
              "code": "mg/dL",
              "system": "http://unitsofmeasure.org"
            }
          },
          {
            "high": {
              "value": 140,
              "code": "mg/dL",
              "system": "http://unitsofmeasure.org"
            }
          }
        ],
        "text": {
          "status": "generated",
          "div": "<div xmlns=\"http://www.w3.org/1999/xhtml\"><table class=\"hl7__eu__lab__report\"><tr><th>Test</th><th>19-Dec-2019</th><th>Reference&#xA0;Range</th><th>Unit</th></tr><tr><td>Glucose [Mass/volume] in Serum or Plasma</td><td>86.5</td><td>70 - 140</td><td></td><td>mg/dL</td></tr></table></div>"
        },
        "status": "final",
        "subject": {
          "reference": "urn:uuid:c729ab77-86d6-4158-9080-7833b945a463",
          "display": "Marthe Gallet"
        },
        "effectiveDateTime": "2019-12-19T19:05:43Z",
        "specimen": {
          "reference": "urn:uuid:399970d3-2c65-45ab-bb3d-31c1a986b2b0"
        }
      }
    },
    {
      "fullUrl": "urn:uuid:e3a958de-111b-4998-872f-505ba86c42e8",
      "resource": {
        "resourceType": "Observation",
        "id": "e3a958de-111b-4998-872f-505ba86c42e8",
        "meta": {
          "profile": [
            "http://hl7.eu/fhir/laboratory/StructureDefinition/Observation-resultslab-eu-lab"
          ]
        },
        "performer": [
          {
            "display": "The Central European Lab"
          }
        ],
        "category": [
          {
            "coding": [
              {
                "system": "http://terminology.hl7.org/CodeSystem/observation-category",
                "code": "laboratory"
              }
            ]
          }
        ],
        "code": {
          "coding": [
            {
              "code": "3094-0",
              "system": "http://loinc.org",
              "display": "Urea nitrogen [Mass/volume] in Serum or Plasma"
            }
          ],
          "text": "Urea nitrogen [Mass/volume] in Serum or Plasma"
        },
        "valueQuantity": {
          "system": "http://unitsofmeasure.org",
          "value": 7.7,
          "unit": "mg/dL",
          "code": "mg/dL"
        },
        "referenceRange": [
          {
            "low": {
              "value": 7,
              "code": "mg/dL",
              "system": "http://unitsofmeasure.org"
            }
          },
          {
            "high": {
              "value": 50,
              "code": "mg/dL",
              "system": "http://unitsofmeasure.org"
            }
          }
        ],
        "text": {
          "status": "generated",
          "div": "<div xmlns=\"http://www.w3.org/1999/xhtml\"><table class=\"hl7__eu__lab__report\"><tr><th>Test</th><th>19-Dec-2019</th><th>Reference&#xA0;Range</th><th>Unit</th></tr><tr><td>Urea nitrogen [Mass/volume] in Serum or Plasma</td><td>7.7</td><td>7 - 50</td><td></td><td>mg/dL</td></tr></table></div>"
        },
        "status": "final",
        "subject": {
          "reference": "urn:uuid:c729ab77-86d6-4158-9080-7833b945a463",
          "display": "Marthe Gallet"
        },
        "effectiveDateTime": "2019-12-19T19:05:43Z",
        "specimen": {
          "reference": "urn:uuid:399970d3-2c65-45ab-bb3d-31c1a986b2b0"
        }
      }
    },
    {
      "fullUrl": "urn:uuid:174fe185-c52c-407e-8bed-61697509e460",
      "resource": {
        "resourceType": "Observation",
        "id": "174fe185-c52c-407e-8bed-61697509e460",
        "meta": {
          "profile": [
            "http://hl7.eu/fhir/laboratory/StructureDefinition/Observation-resultslab-eu-lab"
          ]
        },
        "performer": [
          {
            "display": "The Central European Lab"
          }
        ],
        "category": [
          {
            "coding": [
              {
                "system": "http://terminology.hl7.org/CodeSystem/observation-category",
                "code": "laboratory"
              }
            ]
          }
        ],
        "code": {
          "coding": [
            {
              "code": "2160-0",
              "system": "http://loinc.org",
              "display": "Creatinine [Mass/volume] in Serum or Plasma"
            }
          ],
          "text": "Creatinine [Mass/volume] in Serum or Plasma"
        },
        "valueQuantity": {
          "system": "http://unitsofmeasure.org",
          "value": 1.7,
          "unit": "mg/dL",
          "code": "mg/dL"
        },
        "referenceRange": [
          {
            "low": {
              "value": 0.6,
              "code": "mg/dL",
              "system": "http://unitsofmeasure.org"
            }
          },
          {
            "high": {
              "value": 1.1,
              "code": "mg/dL",
              "system": "http://unitsofmeasure.org"
            }
          }
        ],
        "interpretation": [
          {
            "coding": [
              {
                "code": "H",
                "system": "http://terminology.hl7.org/CodeSystem/v3-ObservationInterpretation",
                "display": "High"
              }
            ]
          }
        ],
        "text": {
          "status": "generated",
          "div": "<div xmlns=\"http://www.w3.org/1999/xhtml\"><table class=\"hl7__eu__lab__report\"><tr><th>Test</th><th>19-Dec-2019</th><th>Reference&#xA0;Range</th><th>Unit</th></tr><tr><td>Creatinine [Mass/volume] in Serum or Plasma</td><td>1.7</td><td>0.6 - 1.1</td><td>H</td><td>mg/dL</td></tr></table></div>"
        },
        "status": "final",
        "subject": {
          "reference": "urn:uuid:c729ab77-86d6-4158-9080-7833b945a463",
          "display": "Marthe Gallet"
        },
        "effectiveDateTime": "2019-12-19T19:05:43Z",
        "specimen": {
          "reference": "urn:uuid:399970d3-2c65-45ab-bb3d-31c1a986b2b0"
        }
      }
    },
    {
      "fullUrl": "urn:uuid:07c4807d-8d5b-4db4-9f87-d1a4816c73d4",
      "resource": {
        "resourceType": "Observation",
        "id": "07c4807d-8d5b-4db4-9f87-d1a4816c73d4",
        "meta": {
          "profile": [
            "http://hl7.eu/fhir/laboratory/StructureDefinition/Observation-resultslab-eu-lab"
          ]
        },
        "performer": [
          {
            "display": "The Central European Lab"
          }
        ],
        "category": [
          {
            "coding": [
              {
                "system": "http://terminology.hl7.org/CodeSystem/observation-category",
                "code": "laboratory"
              }
            ]
          }
        ],
        "code": {
          "coding": [
            {
              "code": "17861-6",
              "system": "http://loinc.org",
              "display": "Calcium [Mass/volume] in Serum or Plasma"
            }
          ],
          "text": "Calcium [Mass/volume] in Serum or Plasma"
        },
        "valueQuantity": {
          "system": "http://unitsofmeasure.org",
          "value": 9.3,
          "unit": "mg/dL",
          "code": "mg/dL"
        },
        "referenceRange": [
          {
            "low": {
              "value": 8.5,
              "code": "mg/dL",
              "system": "http://unitsofmeasure.org"
            }
          },
          {
            "high": {
              "value": 10.5,
              "code": "mg/dL",
              "system": "http://unitsofmeasure.org"
            }
          }
        ],
        "text": {
          "status": "generated",
          "div": "<div xmlns=\"http://www.w3.org/1999/xhtml\"><table class=\"hl7__eu__lab__report\"><tr><th>Test</th><th>19-Dec-2019</th><th>Reference&#xA0;Range</th><th>Unit</th></tr><tr><td>Calcium [Mass/volume] in Serum or Plasma</td><td>9.3</td><td>8.5 - 10.5</td><td></td><td>mg/dL</td></tr></table></div>"
        },
        "status": "final",
        "subject": {
          "reference": "urn:uuid:c729ab77-86d6-4158-9080-7833b945a463",
          "display": "Marthe Gallet"
        },
        "effectiveDateTime": "2019-12-19T19:05:43Z",
        "specimen": {
          "reference": "urn:uuid:399970d3-2c65-45ab-bb3d-31c1a986b2b0"
        }
      }
    },
    {
      "fullUrl": "urn:uuid:d5dc52c2-b6ac-4ecb-b95a-939703b6d203",
      "resource": {
        "resourceType": "Observation",
        "id": "d5dc52c2-b6ac-4ecb-b95a-939703b6d203",
        "meta": {
          "profile": [
            "http://hl7.eu/fhir/laboratory/StructureDefinition/Observation-resultslab-eu-lab"
          ]
        },
        "performer": [
          {
            "display": "The Central European Lab"
          }
        ],
        "category": [
          {
            "coding": [
              {
                "system": "http://terminology.hl7.org/CodeSystem/observation-category",
                "code": "laboratory"
              }
            ]
          }
        ],
        "code": {
          "coding": [
            {
              "code": "2951-2",
              "system": "http://loinc.org",
              "display": "Sodium [Moles/volume] in Serum or Plasma"
            }
          ],
          "text": "Sodium [Moles/volume] in Serum or Plasma"
        },
        "valueQuantity": {
          "system": "http://unitsofmeasure.org",
          "value": 138.8,
          "unit": "mmol/L",
          "code": "mmol/L"
        },
        "referenceRange": [
          {
            "low": {
              "value": 135,
              "code": "mmol/L",
              "system": "http://unitsofmeasure.org"
            }
          },
          {
            "high": {
              "value": 145,
              "code": "mmol/L",
              "system": "http://unitsofmeasure.org"
            }
          }
        ],
        "text": {
          "status": "generated",
          "div": "<div xmlns=\"http://www.w3.org/1999/xhtml\"><table class=\"hl7__eu__lab__report\"><tr><th>Test</th><th>19-Dec-2019</th><th>Reference&#xA0;Range</th><th>Unit</th></tr><tr><td>Sodium [Moles/volume] in Serum or Plasma</td><td>138.8</td><td>135 - 145</td><td></td><td>mmol/L</td></tr></table></div>"
        },
        "status": "final",
        "subject": {
          "reference": "urn:uuid:c729ab77-86d6-4158-9080-7833b945a463",
          "display": "Marthe Gallet"
        },
        "effectiveDateTime": "2019-12-19T19:05:43Z",
        "specimen": {
          "reference": "urn:uuid:399970d3-2c65-45ab-bb3d-31c1a986b2b0"
        }
      }
    },
    {
      "fullUrl": "urn:uuid:15b1e35b-d5a9-45c9-a7f0-d39020694dcf",
      "resource": {
        "resourceType": "Observation",
        "id": "15b1e35b-d5a9-45c9-a7f0-d39020694dcf",
        "meta": {
          "profile": [
            "http://hl7.eu/fhir/laboratory/StructureDefinition/Observation-resultslab-eu-lab"
          ]
        },
        "performer": [
          {
            "display": "The Central European Lab"
          }
        ],
        "category": [
          {
            "coding": [
              {
                "system": "http://terminology.hl7.org/CodeSystem/observation-category",
                "code": "laboratory"
              }
            ]
          }
        ],
        "code": {
          "coding": [
            {
              "code": "2823-3",
              "system": "http://loinc.org",
              "display": "Potassium [Moles/volume] in Serum or Plasma"
            }
          ],
          "text": "Potassium [Moles/volume] in Serum or Plasma"
        },
        "valueQuantity": {
          "system": "http://unitsofmeasure.org",
          "value": 3.8,
          "unit": "mmol/L",
          "code": "mmol/L"
        },
        "referenceRange": [
          {
            "low": {
              "value": 3.5,
              "code": "mmol/L",
              "system": "http://unitsofmeasure.org"
            }
          },
          {
            "high": {
              "value": 5.1,
              "code": "mmol/L",
              "system": "http://unitsofmeasure.org"
            }
          }
        ],
        "text": {
          "status": "generated",
          "div": "<div xmlns=\"http://www.w3.org/1999/xhtml\"><table class=\"hl7__eu__lab__report\"><tr><th>Test</th><th>19-Dec-2019</th><th>Reference&#xA0;Range</th><th>Unit</th></tr><tr><td>Potassium [Moles/volume] in Serum or Plasma</td><td>3.8</td><td>3.5 - 5.1</td><td></td><td>mmol/L</td></tr></table></div>"
        },
        "status": "final",
        "subject": {
          "reference": "urn:uuid:c729ab77-86d6-4158-9080-7833b945a463",
          "display": "Marthe Gallet"
        },
        "effectiveDateTime": "2019-12-19T19:05:43Z",
        "specimen": {
          "reference": "urn:uuid:399970d3-2c65-45ab-bb3d-31c1a986b2b0"
        }
      }
    },
    {
      "fullUrl": "urn:uuid:c20391be-3d72-4cb2-9603-9dcd72083f88",
      "resource": {
        "resourceType": "Observation",
        "id": "c20391be-3d72-4cb2-9603-9dcd72083f88",
        "meta": {
          "profile": [
            "http://hl7.eu/fhir/laboratory/StructureDefinition/Observation-resultslab-eu-lab"
          ]
        },
        "performer": [
          {
            "display": "The Central European Lab"
          }
        ],
        "category": [
          {
            "coding": [
              {
                "system": "http://terminology.hl7.org/CodeSystem/observation-category",
                "code": "laboratory"
              }
            ]
          }
        ],
        "code": {
          "coding": [
            {
              "code": "2075-0",
              "system": "http://loinc.org",
              "display": "Chloride [Moles/volume] in Serum or Plasma"
            }
          ],
          "text": "Chloride [Moles/volume] in Serum or Plasma"
        },
        "valueQuantity": {
          "system": "http://unitsofmeasure.org",
          "value": 101.7,
          "unit": "mmol/L",
          "code": "mmol/L"
        },
        "referenceRange": [
          {
            "low": {
              "value": 98,
              "code": "mmol/L",
              "system": "http://unitsofmeasure.org"
            }
          },
          {
            "high": {
              "value": 108,
              "code": "mmol/L",
              "system": "http://unitsofmeasure.org"
            }
          }
        ],
        "text": {
          "status": "generated",
          "div": "<div xmlns=\"http://www.w3.org/1999/xhtml\"><table class=\"hl7__eu__lab__report\"><tr><th>Test</th><th>19-Dec-2019</th><th>Reference&#xA0;Range</th><th>Unit</th></tr><tr><td>Chloride [Moles/volume] in Serum or Plasma</td><td>101.7</td><td>98 - 108</td><td></td><td>mmol/L</td></tr></table></div>"
        },
        "status": "final",
        "subject": {
          "reference": "urn:uuid:c729ab77-86d6-4158-9080-7833b945a463",
          "display": "Marthe Gallet"
        },
        "effectiveDateTime": "2019-12-19T19:05:43Z",
        "specimen": {
          "reference": "urn:uuid:399970d3-2c65-45ab-bb3d-31c1a986b2b0"
        }
      }
    },
    {
      "fullUrl": "urn:uuid:d0695955-ca55-4f1a-922e-cc22f0f4bece",
      "resource": {
        "resourceType": "Observation",
        "id": "d0695955-ca55-4f1a-922e-cc22f0f4bece",
        "meta": {
          "profile": [
            "http://hl7.eu/fhir/laboratory/StructureDefinition/Observation-resultslab-eu-lab"
          ]
        },
        "performer": [
          {
            "display": "The Central European Lab"
          }
        ],
        "category": [
          {
            "coding": [
              {
                "system": "http://terminology.hl7.org/CodeSystem/observation-category",
                "code": "laboratory"
              }
            ]
          }
        ],
        "code": {
          "coding": [
            {
              "code": "2028-9",
              "system": "http://loinc.org",
              "display": "Carbon dioxide, total [Moles/volume] in Serum or Plasma"
            }
          ],
          "text": "Carbon dioxide, total [Moles/volume] in Serum or Plasma"
        },
        "valueQuantity": {
          "system": "http://unitsofmeasure.org",
          "value": 23,
          "unit": "mmol/L",
          "code": "mmol/L"
        },
        "referenceRange": [
          {
            "low": {
              "value": 22,
              "code": "mmol/L",
              "system": "http://unitsofmeasure.org"
            }
          },
          {
            "high": {
              "value": 32,
              "code": "mmol/L",
              "system": "http://unitsofmeasure.org"
            }
          }
        ],
        "text": {
          "status": "generated",
          "div": "<div xmlns=\"http://www.w3.org/1999/xhtml\"><table class=\"hl7__eu__lab__report\"><tr><th>Test</th><th>19-Dec-2019</th><th>Reference&#xA0;Range</th><th>Unit</th></tr><tr><td>Carbon dioxide, total [Moles/volume] in Serum or Plasma</td><td>23.0</td><td>22 - 32</td><td></td><td>mmol/L</td></tr></table></div>"
        },
        "status": "final",
        "subject": {
          "reference": "urn:uuid:c729ab77-86d6-4158-9080-7833b945a463",
          "display": "Marthe Gallet"
        },
        "effectiveDateTime": "2019-12-19T19:05:43Z",
        "specimen": {
          "reference": "urn:uuid:399970d3-2c65-45ab-bb3d-31c1a986b2b0"
        }
      }
    },
    {
      "fullUrl": "urn:uuid:0a1c621f-65e0-408e-b51e-a1265c4dfd1f",
      "resource": {
        "resourceType": "Observation",
        "id": "0a1c621f-65e0-408e-b51e-a1265c4dfd1f",
        "meta": {
          "profile": [
            "http://hl7.eu/fhir/laboratory/StructureDefinition/Observation-resultslab-eu-lab"
          ]
        },
        "performer": [
          {
            "display": "The Central European Lab"
          }
        ],
        "category": [
          {
            "coding": [
              {
                "system": "http://terminology.hl7.org/CodeSystem/observation-category",
                "code": "laboratory"
              }
            ]
          }
        ],
        "code": {
          "coding": [
            {
              "code": "5767-9",
              "system": "http://loinc.org",
              "display": "Appearance of Urine"
            }
          ],
          "text": "Appearance of Urine"
        },
        "text": {
          "status": "generated",
          "div": "<div xmlns=\"http://www.w3.org/1999/xhtml\"><table class=\"hl7__eu__lab__report\"><tr><th>Test</th><th>19-Dec-2019</th><th>Reference&#xA0;Range</th><th>Unit</th></tr><tr><td>Appearance of Urine</td></tr></table></div>"
        },
        "status": "final",
        "subject": {
          "reference": "urn:uuid:c729ab77-86d6-4158-9080-7833b945a463",
          "display": "Marthe Gallet"
        },
        "effectiveDateTime": "2019-12-19T19:05:43Z",
        "specimen": {
          "reference": "urn:uuid:0c05bbde-8224-484b-85fa-8414a17093dd"
        }
      }
    },
    {
      "fullUrl": "urn:uuid:636645b6-3d7a-4dd7-9d48-e6374a8131de",
      "resource": {
        "resourceType": "Observation",
        "id": "636645b6-3d7a-4dd7-9d48-e6374a8131de",
        "meta": {
          "profile": [
            "http://hl7.eu/fhir/laboratory/StructureDefinition/Observation-resultslab-eu-lab"
          ]
        },
        "performer": [
          {
            "display": "The Central European Lab"
          }
        ],
        "category": [
          {
            "coding": [
              {
                "system": "http://terminology.hl7.org/CodeSystem/observation-category",
                "code": "laboratory"
              }
            ]
          }
        ],
        "code": {
          "coding": [
            {
              "code": "34533-0",
              "system": "http://loinc.org",
              "display": "Odor of Urine"
            }
          ],
          "text": "Odor of Urine"
        },
        "text": {
          "status": "generated",
          "div": "<div xmlns=\"http://www.w3.org/1999/xhtml\"><table class=\"hl7__eu__lab__report\"><tr><th>Test</th><th>19-Dec-2019</th><th>Reference&#xA0;Range</th><th>Unit</th></tr><tr><td>Odor of Urine</td></tr></table></div>"
        },
        "status": "final",
        "subject": {
          "reference": "urn:uuid:c729ab77-86d6-4158-9080-7833b945a463",
          "display": "Marthe Gallet"
        },
        "effectiveDateTime": "2019-12-19T19:05:43Z",
        "specimen": {
          "reference": "urn:uuid:0c05bbde-8224-484b-85fa-8414a17093dd"
        }
      }
    },
    {
      "fullUrl": "urn:uuid:7f369c27-de0f-402a-b5db-badc1be82ecc",
      "resource": {
        "resourceType": "Observation",
        "id": "7f369c27-de0f-402a-b5db-badc1be82ecc",
        "meta": {
          "profile": [
            "http://hl7.eu/fhir/laboratory/StructureDefinition/Observation-resultslab-eu-lab"
          ]
        },
        "performer": [
          {
            "display": "The Central European Lab"
          }
        ],
        "category": [
          {
            "coding": [
              {
                "system": "http://terminology.hl7.org/CodeSystem/observation-category",
                "code": "laboratory"
              }
            ]
          }
        ],
        "code": {
          "coding": [
            {
              "code": "32167-9",
              "system": "http://loinc.org",
              "display": "Clarity of Urine"
            }
          ],
          "text": "Clarity of Urine"
        },
        "text": {
          "status": "generated",
          "div": "<div xmlns=\"http://www.w3.org/1999/xhtml\"><table class=\"hl7__eu__lab__report\"><tr><th>Test</th><th>19-Dec-2019</th><th>Reference&#xA0;Range</th><th>Unit</th></tr><tr><td>Clarity of Urine</td></tr></table></div>"
        },
        "status": "final",
        "subject": {
          "reference": "urn:uuid:c729ab77-86d6-4158-9080-7833b945a463",
          "display": "Marthe Gallet"
        },
        "effectiveDateTime": "2019-12-19T19:05:43Z",
        "specimen": {
          "reference": "urn:uuid:0c05bbde-8224-484b-85fa-8414a17093dd"
        }
      }
    },
    {
      "fullUrl": "urn:uuid:35bc8304-3f15-4863-995c-436819ee0327",
      "resource": {
        "resourceType": "Observation",
        "id": "35bc8304-3f15-4863-995c-436819ee0327",
        "meta": {
          "profile": [
            "http://hl7.eu/fhir/laboratory/StructureDefinition/Observation-resultslab-eu-lab"
          ]
        },
        "performer": [
          {
            "display": "The Central European Lab"
          }
        ],
        "category": [
          {
            "coding": [
              {
                "system": "http://terminology.hl7.org/CodeSystem/observation-category",
                "code": "laboratory"
              }
            ]
          }
        ],
        "code": {
          "coding": [
            {
              "code": "5778-6",
              "system": "http://loinc.org",
              "display": "Color of Urine"
            }
          ],
          "text": "Color of Urine"
        },
        "text": {
          "status": "generated",
          "div": "<div xmlns=\"http://www.w3.org/1999/xhtml\"><table class=\"hl7__eu__lab__report\"><tr><th>Test</th><th>19-Dec-2019</th><th>Reference&#xA0;Range</th><th>Unit</th></tr><tr><td>Color of Urine</td></tr></table></div>"
        },
        "status": "final",
        "subject": {
          "reference": "urn:uuid:c729ab77-86d6-4158-9080-7833b945a463",
          "display": "Marthe Gallet"
        },
        "effectiveDateTime": "2019-12-19T19:05:43Z",
        "specimen": {
          "reference": "urn:uuid:0c05bbde-8224-484b-85fa-8414a17093dd"
        }
      }
    },
    {
      "fullUrl": "urn:uuid:5bdbab54-af58-41fb-8fcb-10d84f9d5f16",
      "resource": {
        "resourceType": "Observation",
        "id": "5bdbab54-af58-41fb-8fcb-10d84f9d5f16",
        "meta": {
          "profile": [
            "http://hl7.eu/fhir/laboratory/StructureDefinition/Observation-resultslab-eu-lab"
          ]
        },
        "performer": [
          {
            "display": "The Central European Lab"
          }
        ],
        "category": [
          {
            "coding": [
              {
                "system": "http://terminology.hl7.org/CodeSystem/observation-category",
                "code": "laboratory"
              }
            ]
          }
        ],
        "code": {
          "coding": [
            {
              "code": "5792-7",
              "system": "http://loinc.org",
              "display": "Glucose [Mass/volume] in Urine by Test strip"
            }
          ],
          "text": "Glucose [Mass/volume] in Urine by Test strip"
        },
        "valueQuantity": {
          "system": "http://unitsofmeasure.org",
          "value": 1.1,
          "unit": "mg/dL",
          "code": "mg/dL"
        },
        "referenceRange": [
          {
            "low": {
              "value": 0.8,
              "code": "mg/dL",
              "system": "http://unitsofmeasure.org"
            }
          },
          {
            "high": {
              "value": 0,
              "code": "mg/dL",
              "system": "http://unitsofmeasure.org"
            }
          }
        ],
        "interpretation": [
          {
            "coding": [
              {
                "code": "H",
                "system": "http://terminology.hl7.org/CodeSystem/v3-ObservationInterpretation",
                "display": "High"
              }
            ]
          }
        ],
        "text": {
          "status": "generated",
          "div": "<div xmlns=\"http://www.w3.org/1999/xhtml\"><table class=\"hl7__eu__lab__report\"><tr><th>Test</th><th>19-Dec-2019</th><th>Reference&#xA0;Range</th><th>Unit</th></tr><tr><td>Glucose [Mass/volume] in Urine by Test strip</td><td>1.1</td><td>0.8 - 0</td><td>H</td><td>mg/dL</td></tr></table></div>"
        },
        "status": "final",
        "subject": {
          "reference": "urn:uuid:c729ab77-86d6-4158-9080-7833b945a463",
          "display": "Marthe Gallet"
        },
        "effectiveDateTime": "2019-12-19T19:05:43Z",
        "specimen": {
          "reference": "urn:uuid:0c05bbde-8224-484b-85fa-8414a17093dd"
        }
      }
    },
    {
      "fullUrl": "urn:uuid:7b313113-d6ed-45d5-bd91-8ea011cd7e2c",
      "resource": {
        "resourceType": "Observation",
        "id": "7b313113-d6ed-45d5-bd91-8ea011cd7e2c",
        "meta": {
          "profile": [
            "http://hl7.eu/fhir/laboratory/StructureDefinition/Observation-resultslab-eu-lab"
          ]
        },
        "performer": [
          {
            "display": "The Central European Lab"
          }
        ],
        "category": [
          {
            "coding": [
              {
                "system": "http://terminology.hl7.org/CodeSystem/observation-category",
                "code": "laboratory"
              }
            ]
          }
        ],
        "code": {
          "coding": [
            {
              "code": "25428-4",
              "system": "http://loinc.org",
              "display": "Glucose [Presence] in Urine by Test strip"
            }
          ],
          "text": "Glucose [Presence] in Urine by Test strip"
        },
        "text": {
          "status": "generated",
          "div": "<div xmlns=\"http://www.w3.org/1999/xhtml\"><table class=\"hl7__eu__lab__report\"><tr><th>Test</th><th>19-Dec-2019</th><th>Reference&#xA0;Range</th><th>Unit</th></tr><tr><td>Glucose [Presence] in Urine by Test strip</td></tr></table></div>"
        },
        "status": "final",
        "subject": {
          "reference": "urn:uuid:c729ab77-86d6-4158-9080-7833b945a463",
          "display": "Marthe Gallet"
        },
        "effectiveDateTime": "2019-12-19T19:05:43Z",
        "specimen": {
          "reference": "urn:uuid:0c05bbde-8224-484b-85fa-8414a17093dd"
        }
      }
    },
    {
      "fullUrl": "urn:uuid:7fd26925-dfac-43cd-b436-f622c3ec8faa",
      "resource": {
        "resourceType": "Observation",
        "id": "7fd26925-dfac-43cd-b436-f622c3ec8faa",
        "meta": {
          "profile": [
            "http://hl7.eu/fhir/laboratory/StructureDefinition/Observation-resultslab-eu-lab"
          ]
        },
        "performer": [
          {
            "display": "The Central European Lab"
          }
        ],
        "category": [
          {
            "coding": [
              {
                "system": "http://terminology.hl7.org/CodeSystem/observation-category",
                "code": "laboratory"
              }
            ]
          }
        ],
        "code": {
          "coding": [
            {
              "code": "20505-4",
              "system": "http://loinc.org",
              "display": "Bilirubin.total [Mass/volume] in Urine by Test strip"
            }
          ],
          "text": "Bilirubin.total [Mass/volume] in Urine by Test strip"
        },
        "valueQuantity": {
          "system": "http://unitsofmeasure.org",
          "value": 0.9,
          "unit": "mg/dL",
          "code": "mg/dL"
        },
        "referenceRange": [
          {
            "low": {
              "value": 0,
              "code": "mg/dL",
              "system": "http://unitsofmeasure.org"
            }
          },
          {
            "high": {
              "value": 1,
              "code": "mg/dL",
              "system": "http://unitsofmeasure.org"
            }
          }
        ],
        "text": {
          "status": "generated",
          "div": "<div xmlns=\"http://www.w3.org/1999/xhtml\"><table class=\"hl7__eu__lab__report\"><tr><th>Test</th><th>19-Dec-2019</th><th>Reference&#xA0;Range</th><th>Unit</th></tr><tr><td>Bilirubin.total [Mass/volume] in Urine by Test strip</td><td>0.9</td><td>0 - 1</td><td></td><td>mg/dL</td></tr></table></div>"
        },
        "status": "final",
        "subject": {
          "reference": "urn:uuid:c729ab77-86d6-4158-9080-7833b945a463",
          "display": "Marthe Gallet"
        },
        "effectiveDateTime": "2019-12-19T19:05:43Z",
        "specimen": {
          "reference": "urn:uuid:0c05bbde-8224-484b-85fa-8414a17093dd"
        }
      }
    },
    {
      "fullUrl": "urn:uuid:ccbcd73b-f800-4eb7-862f-9531ca3c9bbd",
      "resource": {
        "resourceType": "Observation",
        "id": "ccbcd73b-f800-4eb7-862f-9531ca3c9bbd",
        "meta": {
          "profile": [
            "http://hl7.eu/fhir/laboratory/StructureDefinition/Observation-resultslab-eu-lab"
          ]
        },
        "performer": [
          {
            "display": "The Central European Lab"
          }
        ],
        "category": [
          {
            "coding": [
              {
                "system": "http://terminology.hl7.org/CodeSystem/observation-category",
                "code": "laboratory"
              }
            ]
          }
        ],
        "code": {
          "coding": [
            {
              "code": "5770-3",
              "system": "http://loinc.org",
              "display": "Bilirubin.total [Presence] in Urine by Test strip"
            }
          ],
          "text": "Bilirubin.total [Presence] in Urine by Test strip"
        },
        "text": {
          "status": "generated",
          "div": "<div xmlns=\"http://www.w3.org/1999/xhtml\"><table class=\"hl7__eu__lab__report\"><tr><th>Test</th><th>19-Dec-2019</th><th>Reference&#xA0;Range</th><th>Unit</th></tr><tr><td>Bilirubin.total [Presence] in Urine by Test strip</td></tr></table></div>"
        },
        "status": "final",
        "subject": {
          "reference": "urn:uuid:c729ab77-86d6-4158-9080-7833b945a463",
          "display": "Marthe Gallet"
        },
        "effectiveDateTime": "2019-12-19T19:05:43Z",
        "specimen": {
          "reference": "urn:uuid:0c05bbde-8224-484b-85fa-8414a17093dd"
        }
      }
    },
    {
      "fullUrl": "urn:uuid:4e1955dc-a153-418f-9622-784345ea679e",
      "resource": {
        "resourceType": "Observation",
        "id": "4e1955dc-a153-418f-9622-784345ea679e",
        "meta": {
          "profile": [
            "http://hl7.eu/fhir/laboratory/StructureDefinition/Observation-resultslab-eu-lab"
          ]
        },
        "performer": [
          {
            "display": "The Central European Lab"
          }
        ],
        "category": [
          {
            "coding": [
              {
                "system": "http://terminology.hl7.org/CodeSystem/observation-category",
                "code": "laboratory"
              }
            ]
          }
        ],
        "code": {
          "coding": [
            {
              "code": "5797-6",
              "system": "http://loinc.org",
              "display": "Ketones [Mass/volume] in Urine by Test strip"
            }
          ],
          "text": "Ketones [Mass/volume] in Urine by Test strip"
        },
        "valueQuantity": {
          "system": "http://unitsofmeasure.org",
          "value": 6.7,
          "unit": "mg/dL",
          "code": "mg/dL"
        },
        "referenceRange": [
          {
            "low": {
              "value": 0,
              "code": "mg/dL",
              "system": "http://unitsofmeasure.org"
            }
          },
          {
            "high": {
              "value": 20,
              "code": "mg/dL",
              "system": "http://unitsofmeasure.org"
            }
          }
        ],
        "text": {
          "status": "generated",
          "div": "<div xmlns=\"http://www.w3.org/1999/xhtml\"><table class=\"hl7__eu__lab__report\"><tr><th>Test</th><th>19-Dec-2019</th><th>Reference&#xA0;Range</th><th>Unit</th></tr><tr><td>Ketones [Mass/volume] in Urine by Test strip</td><td>6.7</td><td>0 - 20</td><td></td><td>mg/dL</td></tr></table></div>"
        },
        "status": "final",
        "subject": {
          "reference": "urn:uuid:c729ab77-86d6-4158-9080-7833b945a463",
          "display": "Marthe Gallet"
        },
        "effectiveDateTime": "2019-12-19T19:05:43Z",
        "specimen": {
          "reference": "urn:uuid:0c05bbde-8224-484b-85fa-8414a17093dd"
        }
      }
    },
    {
      "fullUrl": "urn:uuid:2b36a228-566f-4a11-bd4c-d60e0bef1641",
      "resource": {
        "resourceType": "Observation",
        "id": "2b36a228-566f-4a11-bd4c-d60e0bef1641",
        "meta": {
          "profile": [
            "http://hl7.eu/fhir/laboratory/StructureDefinition/Observation-resultslab-eu-lab"
          ]
        },
        "performer": [
          {
            "display": "The Central European Lab"
          }
        ],
        "category": [
          {
            "coding": [
              {
                "system": "http://terminology.hl7.org/CodeSystem/observation-category",
                "code": "laboratory"
              }
            ]
          }
        ],
        "code": {
          "coding": [
            {
              "code": "2514-8",
              "system": "http://loinc.org",
              "display": "Ketones [Presence] in Urine by Test strip"
            }
          ],
          "text": "Ketones [Presence] in Urine by Test strip"
        },
        "text": {
          "status": "generated",
          "div": "<div xmlns=\"http://www.w3.org/1999/xhtml\"><table class=\"hl7__eu__lab__report\"><tr><th>Test</th><th>19-Dec-2019</th><th>Reference&#xA0;Range</th><th>Unit</th></tr><tr><td>Ketones [Presence] in Urine by Test strip</td></tr></table></div>"
        },
        "status": "final",
        "subject": {
          "reference": "urn:uuid:c729ab77-86d6-4158-9080-7833b945a463",
          "display": "Marthe Gallet"
        },
        "effectiveDateTime": "2019-12-19T19:05:43Z",
        "specimen": {
          "reference": "urn:uuid:0c05bbde-8224-484b-85fa-8414a17093dd"
        }
      }
    },
    {
      "fullUrl": "urn:uuid:138f08aa-7db4-4009-a864-858754295033",
      "resource": {
        "resourceType": "Observation",
        "id": "138f08aa-7db4-4009-a864-858754295033",
        "meta": {
          "profile": [
            "http://hl7.eu/fhir/laboratory/StructureDefinition/Observation-resultslab-eu-lab"
          ]
        },
        "performer": [
          {
            "display": "The Central European Lab"
          }
        ],
        "category": [
          {
            "coding": [
              {
                "system": "http://terminology.hl7.org/CodeSystem/observation-category",
                "code": "laboratory"
              }
            ]
          }
        ],
        "code": {
          "coding": [
            {
              "code": "5811-5",
              "system": "http://loinc.org",
              "display": "Specific gravity of Urine by Test strip"
            }
          ],
          "text": "Specific gravity of Urine by Test strip"
        },
        "valueQuantity": {
          "system": "http://unitsofmeasure.org",
          "value": 1,
          "unit": "{nominal}",
          "code": "{nominal}"
        },
        "referenceRange": [
          {
            "low": {
              "value": 1.01,
              "code": "g/mL",
              "system": "http://unitsofmeasure.org"
            }
          },
          {
            "high": {
              "value": 1.03,
              "code": "g/mL",
              "system": "http://unitsofmeasure.org"
            }
          }
        ],
        "interpretation": [
          {
            "coding": [
              {
                "code": "L",
                "system": "http://terminology.hl7.org/CodeSystem/v3-ObservationInterpretation",
                "display": "Low"
              }
            ]
          }
        ],
        "text": {
          "status": "generated",
          "div": "<div xmlns=\"http://www.w3.org/1999/xhtml\"><table class=\"hl7__eu__lab__report\"><tr><th>Test</th><th>19-Dec-2019</th><th>Reference&#xA0;Range</th><th>Unit</th></tr><tr><td>Specific gravity of Urine by Test strip</td><td>1.0</td><td>1.01 - 1.03</td><td>L</td><td>{nominal}</td></tr></table></div>"
        },
        "status": "final",
        "subject": {
          "reference": "urn:uuid:c729ab77-86d6-4158-9080-7833b945a463",
          "display": "Marthe Gallet"
        },
        "effectiveDateTime": "2019-12-19T19:05:43Z",
        "specimen": {
          "reference": "urn:uuid:0c05bbde-8224-484b-85fa-8414a17093dd"
        }
      }
    },
    {
      "fullUrl": "urn:uuid:78dde260-ac7a-44b0-95b6-b30989fcdc94",
      "resource": {
        "resourceType": "Observation",
        "id": "78dde260-ac7a-44b0-95b6-b30989fcdc94",
        "meta": {
          "profile": [
            "http://hl7.eu/fhir/laboratory/StructureDefinition/Observation-resultslab-eu-lab"
          ]
        },
        "performer": [
          {
            "display": "The Central European Lab"
          }
        ],
        "category": [
          {
            "coding": [
              {
                "system": "http://terminology.hl7.org/CodeSystem/observation-category",
                "code": "laboratory"
              }
            ]
          }
        ],
        "code": {
          "coding": [
            {
              "code": "5803-2",
              "system": "http://loinc.org",
              "display": "pH of Urine by Test strip"
            }
          ],
          "text": "pH of Urine by Test strip"
        },
        "valueQuantity": {
          "system": "http://unitsofmeasure.org",
          "value": 6.9,
          "unit": "pH",
          "code": "pH"
        },
        "referenceRange": [
          {
            "low": {
              "value": 4.6,
              "code": "pH",
              "system": "http://unitsofmeasure.org"
            }
          },
          {
            "high": {
              "value": 7,
              "code": "pH",
              "system": "http://unitsofmeasure.org"
            }
          }
        ],
        "text": {
          "status": "generated",
          "div": "<div xmlns=\"http://www.w3.org/1999/xhtml\"><table class=\"hl7__eu__lab__report\"><tr><th>Test</th><th>19-Dec-2019</th><th>Reference&#xA0;Range</th><th>Unit</th></tr><tr><td>pH of Urine by Test strip</td><td>6.9</td><td>4.6 - 7</td><td></td><td>pH</td></tr></table></div>"
        },
        "status": "final",
        "subject": {
          "reference": "urn:uuid:c729ab77-86d6-4158-9080-7833b945a463",
          "display": "Marthe Gallet"
        },
        "effectiveDateTime": "2019-12-19T19:05:43Z",
        "specimen": {
          "reference": "urn:uuid:0c05bbde-8224-484b-85fa-8414a17093dd"
        }
      }
    },
    {
      "fullUrl": "urn:uuid:1688476b-98c3-4cb4-9efc-4774f8a8b482",
      "resource": {
        "resourceType": "Observation",
        "id": "1688476b-98c3-4cb4-9efc-4774f8a8b482",
        "meta": {
          "profile": [
            "http://hl7.eu/fhir/laboratory/StructureDefinition/Observation-resultslab-eu-lab"
          ]
        },
        "performer": [
          {
            "display": "The Central European Lab"
          }
        ],
        "category": [
          {
            "coding": [
              {
                "system": "http://terminology.hl7.org/CodeSystem/observation-category",
                "code": "laboratory"
              }
            ]
          }
        ],
        "code": {
          "coding": [
            {
              "code": "5804-0",
              "system": "http://loinc.org",
              "display": "Protein [Mass/volume] in Urine by Test strip"
            }
          ],
          "text": "Protein [Mass/volume] in Urine by Test strip"
        },
        "valueQuantity": {
          "system": "http://unitsofmeasure.org",
          "value": 93.1,
          "unit": "mg/dL",
          "code": "mg/dL"
        },
        "referenceRange": [
          {
            "low": {
              "value": 0,
              "code": "mg/dL",
              "system": "http://unitsofmeasure.org"
            }
          },
          {
            "high": {
              "value": 15,
              "code": "mg/dL",
              "system": "http://unitsofmeasure.org"
            }
          }
        ],
        "interpretation": [
          {
            "coding": [
              {
                "code": "H",
                "system": "http://terminology.hl7.org/CodeSystem/v3-ObservationInterpretation",
                "display": "High"
              }
            ]
          }
        ],
        "text": {
          "status": "generated",
          "div": "<div xmlns=\"http://www.w3.org/1999/xhtml\"><table class=\"hl7__eu__lab__report\"><tr><th>Test</th><th>19-Dec-2019</th><th>Reference&#xA0;Range</th><th>Unit</th></tr><tr><td>Protein [Mass/volume] in Urine by Test strip</td><td>93.1</td><td>0 - 15</td><td>H</td><td>mg/dL</td></tr></table></div>"
        },
        "status": "final",
        "subject": {
          "reference": "urn:uuid:c729ab77-86d6-4158-9080-7833b945a463",
          "display": "Marthe Gallet"
        },
        "effectiveDateTime": "2019-12-19T19:05:43Z",
        "specimen": {
          "reference": "urn:uuid:0c05bbde-8224-484b-85fa-8414a17093dd"
        }
      }
    },
    {
      "fullUrl": "urn:uuid:7231954b-56b8-4851-b50b-d87e2a7f2d61",
      "resource": {
        "resourceType": "Observation",
        "id": "7231954b-56b8-4851-b50b-d87e2a7f2d61",
        "meta": {
          "profile": [
            "http://hl7.eu/fhir/laboratory/StructureDefinition/Observation-resultslab-eu-lab"
          ]
        },
        "performer": [
          {
            "display": "The Central European Lab"
          }
        ],
        "category": [
          {
            "coding": [
              {
                "system": "http://terminology.hl7.org/CodeSystem/observation-category",
                "code": "laboratory"
              }
            ]
          }
        ],
        "code": {
          "coding": [
            {
              "code": "20454-5",
              "system": "http://loinc.org",
              "display": "Protein [Presence] in Urine by Test strip"
            }
          ],
          "text": "Protein [Presence] in Urine by Test strip"
        },
        "text": {
          "status": "generated",
          "div": "<div xmlns=\"http://www.w3.org/1999/xhtml\"><table class=\"hl7__eu__lab__report\"><tr><th>Test</th><th>19-Dec-2019</th><th>Reference&#xA0;Range</th><th>Unit</th></tr><tr><td>Protein [Presence] in Urine by Test strip</td></tr></table></div>"
        },
        "status": "final",
        "subject": {
          "reference": "urn:uuid:c729ab77-86d6-4158-9080-7833b945a463",
          "display": "Marthe Gallet"
        },
        "effectiveDateTime": "2019-12-19T19:05:43Z",
        "specimen": {
          "reference": "urn:uuid:0c05bbde-8224-484b-85fa-8414a17093dd"
        }
      }
    },
    {
      "fullUrl": "urn:uuid:a159843a-f5e4-430c-9293-b4a2928c560e",
      "resource": {
        "resourceType": "Observation",
        "id": "a159843a-f5e4-430c-9293-b4a2928c560e",
        "meta": {
          "profile": [
            "http://hl7.eu/fhir/laboratory/StructureDefinition/Observation-resultslab-eu-lab"
          ]
        },
        "performer": [
          {
            "display": "The Central European Lab"
          }
        ],
        "category": [
          {
            "coding": [
              {
                "system": "http://terminology.hl7.org/CodeSystem/observation-category",
                "code": "laboratory"
              }
            ]
          }
        ],
        "code": {
          "coding": [
            {
              "code": "5802-4",
              "system": "http://loinc.org",
              "display": "Nitrite [Presence] in Urine by Test strip"
            }
          ],
          "text": "Nitrite [Presence] in Urine by Test strip"
        },
        "text": {
          "status": "generated",
          "div": "<div xmlns=\"http://www.w3.org/1999/xhtml\"><table class=\"hl7__eu__lab__report\"><tr><th>Test</th><th>19-Dec-2019</th><th>Reference&#xA0;Range</th><th>Unit</th></tr><tr><td>Nitrite [Presence] in Urine by Test strip</td></tr></table></div>"
        },
        "status": "final",
        "subject": {
          "reference": "urn:uuid:c729ab77-86d6-4158-9080-7833b945a463",
          "display": "Marthe Gallet"
        },
        "effectiveDateTime": "2019-12-19T19:05:43Z",
        "specimen": {
          "reference": "urn:uuid:0c05bbde-8224-484b-85fa-8414a17093dd"
        }
      }
    },
    {
      "fullUrl": "urn:uuid:16cca1c9-9a89-4dfa-9882-c48417b2292a",
      "resource": {
        "resourceType": "Observation",
        "id": "16cca1c9-9a89-4dfa-9882-c48417b2292a",
        "meta": {
          "profile": [
            "http://hl7.eu/fhir/laboratory/StructureDefinition/Observation-resultslab-eu-lab"
          ]
        },
        "performer": [
          {
            "display": "The Central European Lab"
          }
        ],
        "category": [
          {
            "coding": [
              {
                "system": "http://terminology.hl7.org/CodeSystem/observation-category",
                "code": "laboratory"
              }
            ]
          }
        ],
        "code": {
          "coding": [
            {
              "code": "5794-3",
              "system": "http://loinc.org",
              "display": "Hemoglobin [Presence] in Urine by Test strip"
            }
          ],
          "text": "Hemoglobin [Presence] in Urine by Test strip"
        },
        "text": {
          "status": "generated",
          "div": "<div xmlns=\"http://www.w3.org/1999/xhtml\"><table class=\"hl7__eu__lab__report\"><tr><th>Test</th><th>19-Dec-2019</th><th>Reference&#xA0;Range</th><th>Unit</th></tr><tr><td>Hemoglobin [Presence] in Urine by Test strip</td></tr></table></div>"
        },
        "status": "final",
        "subject": {
          "reference": "urn:uuid:c729ab77-86d6-4158-9080-7833b945a463",
          "display": "Marthe Gallet"
        },
        "effectiveDateTime": "2019-12-19T19:05:43Z",
        "specimen": {
          "reference": "urn:uuid:0c05bbde-8224-484b-85fa-8414a17093dd"
        }
      }
    },
    {
      "fullUrl": "urn:uuid:aa2438e3-b07a-4e3c-808c-b2e9c83b410a",
      "resource": {
        "resourceType": "Observation",
        "id": "aa2438e3-b07a-4e3c-808c-b2e9c83b410a",
        "meta": {
          "profile": [
            "http://hl7.eu/fhir/laboratory/StructureDefinition/Observation-resultslab-eu-lab"
          ]
        },
        "performer": [
          {
            "display": "The Central European Lab"
          }
        ],
        "category": [
          {
            "coding": [
              {
                "system": "http://terminology.hl7.org/CodeSystem/observation-category",
                "code": "laboratory"
              }
            ]
          }
        ],
        "code": {
          "coding": [
            {
              "code": "5799-2",
              "system": "http://loinc.org",
              "display": "Leukocyte esterase [Presence] in Urine by Test strip"
            }
          ],
          "text": "Leukocyte esterase [Presence] in Urine by Test strip"
        },
        "text": {
          "status": "generated",
          "div": "<div xmlns=\"http://www.w3.org/1999/xhtml\"><table class=\"hl7__eu__lab__report\"><tr><th>Test</th><th>19-Dec-2019</th><th>Reference&#xA0;Range</th><th>Unit</th></tr><tr><td>Leukocyte esterase [Presence] in Urine by Test strip</td></tr></table></div>"
        },
        "status": "final",
        "subject": {
          "reference": "urn:uuid:c729ab77-86d6-4158-9080-7833b945a463",
          "display": "Marthe Gallet"
        },
        "effectiveDateTime": "2019-12-19T19:05:43Z",
        "specimen": {
          "reference": "urn:uuid:0c05bbde-8224-484b-85fa-8414a17093dd"
        }
      }
    },
    {
      "fullUrl": "urn:uuid:f5d61c23-7b14-4e9d-9268-8b3f9061ed85",
      "resource": {
        "resourceType": "Device",
        "id": "f5d61c23-7b14-4e9d-9268-8b3f9061ed85",
        "deviceName": [
          {
            "name": "SYNDERAI Synthetic Generator",
            "type": "manufacturer-name"
          }
        ],
        "version": [
          {
            "value": "5.0"
          }
        ],
        "text": {
          "status": "generated",
          "div": "<div xmlns=\"http://www.w3.org/1999/xhtml\">SYNDERAI Synthetic Generator v5.0</div>"
        },
        "status": "active\"",
        "distinctIdentifier": "synderai-generator-50",
        "manufacturer": "SYNDERAI Project"
      }
    },
    {
      "fullUrl": "urn:uuid:73bbea39-306b-40b6-ad3d-afcc61a6d640",
      "resource": {
        "resourceType": "Provenance",
        "id": "73bbea39-306b-40b6-ad3d-afcc61a6d640",
        "target": [
          {
            "reference": "Patient/c729ab77-86d6-4158-9080-7833b945a463"
          },
          {
            "reference": "Bundle/e7db7ba9-c7e2-4bfc-b422-7cd43d6b523d"
          },
          {
            "reference": "Composition/75c39457-1a90-4397-9f5b-5649e2b92d62"
          },
          {
            "reference": "PractitionerRole/ea25e0f0-7091-4e54-a1cd-4f00c0ea559f"
          },
          {
            "reference": "Practitioner/26f49ebd-e169-48d9-a356-8e5efe4d14b9"
          },
          {
            "reference": "PractitionerRole/cb5f7594-2414-4c5b-98b9-23d6826650e7"
          },
          {
            "reference": "Organization/e97e3c92-04f4-4b7f-88bf-b9a50cefe8b1"
          }
        ],
        "activity": {
          "text": "Synthetic Example Data Generation"
        },
        "policy": [
          "https://synderai.net/synderai-synthetic-data-policy"
        ],
        "agent": [
          {
            "type": {
              "text": "author"
            },
            "who": {
              "reference": "Device/f5d61c23-7b14-4e9d-9268-8b3f9061ed85"
            }
          }
        ],
        "reason": [
          {
            "text": "Interoperability Testing and Training (non-clinical use)"
          }
        ],
        "text": {
          "status": "generated",
          "div": "<div xmlns=\"http://www.w3.org/1999/xhtml\">Provenance for SYNDERAI Synthetic Example Data Resource</div>"
        },
        "recorded": "2019-12-19T20:05:43Z"
      }
    },
    {
      "fullUrl": "urn:uuid:ea25e0f0-7091-4e54-a1cd-4f00c0ea559f",
      "resource": {
        "resourceType": "PractitionerRole",
        "id": "ea25e0f0-7091-4e54-a1cd-4f00c0ea559f",
        "meta": {
          "profile": [
            "http://hl7.eu/fhir/base/StructureDefinition/practitionerRole-eu"
          ]
        },
        "text": {
          "status": "generated",
          "div": "<div xmlns=\"http://www.w3.org/1999/xhtml\">Laboratory Role Id: ea25e0f0-7091-4e54-a1cd-4f00c0ea559f</div>"
        },
        "practitioner": {
          "reference": "urn:uuid:26f49ebd-e169-48d9-a356-8e5efe4d14b9"
        }
      }
    },
    {
      "fullUrl": "urn:uuid:26f49ebd-e169-48d9-a356-8e5efe4d14b9",
      "resource": {
        "resourceType": "Practitioner",
        "id": "26f49ebd-e169-48d9-a356-8e5efe4d14b9",
        "meta": {
          "profile": [
            "http://hl7.eu/fhir/base/StructureDefinition/practitioner-eu"
          ]
        },
        "identifier": [
          {
            "assigner": {
              "display": "HL7 Europe"
            },
            "system": "urn:oid:2.16.840.1.113883.2.51.999",
            "value": "c1b348e6-5755-444a-a605-d762a00556f8"
          }
        ],
        "name": [
          {
            "prefix": [
              "dr"
            ],
            "given": [
              "Ex"
            ],
            "family": "Ample"
          }
        ],
        "address": [
          {
            "line": [
              "Laboratoire Central Européenne",
              "Boulevard du Jardin Botanique 32"
            ],
            "postalCode": "1000",
            "city": "Brussels",
            "country": "Belgium"
          }
        ],
        "text": {
          "status": "generated",
          "div": "<div xmlns=\"http://www.w3.org/1999/xhtml\">Laboratory: Laboratoire Central Européenne, 1000 Brussels, Belgium</div>"
        }
      }
    }
  ],
  "type": "document",
  "timestamp": "2019-12-19T20:05:43Z"
}
