{
  "resourceType": "Bundle",
  "id": "0a934b70-de2a-4f81-af7f-240b3c28b910",
  "meta": {
    "profile": [
      "http://hl7.eu/fhir/laboratory/StructureDefinition/Bundle-eu-lab"
    ]
  },
  "identifier": {
    "assigner": {
      "display": "HL7 Europe"
    },
    "system": "urn:oid:2.16.840.1.113883.2.51.999",
    "value": "43d6d470-39f5-4014-9f65-8da619b36e9a"
  },
  "entry": [
    {
      "fullUrl": "urn:uuid:2beccf0d-7902-48d4-8c75-51716397d356",
      "resource": {
        "resourceType": "Composition",
        "id": "2beccf0d-7902-48d4-8c75-51716397d356",
        "meta": {
          "profile": [
            "http://hl7.eu/fhir/laboratory/StructureDefinition/Composition-eu-lab"
          ]
        },
        "identifier": {
          "assigner": {
            "display": "HL7 Europe"
          },
          "system": "urn:oid:2.16.840.1.113883.2.51.999",
          "value": "71904690-1bfc-45c0-bca0-05e24975aa42"
        },
        "author": [
          {
            "reference": "urn:uuid:1c29a515-9db8-4eb8-acc0-25078604f393"
          }
        ],
        "category": [
          {
            "coding": [
              {
                "code": "26436-6",
                "system": "http://loinc.org",
                "display": "Laboratory studies (set)"
              }
            ]
          }
        ],
        "type": {
          "coding": [
            {
              "code": "11502-2",
              "system": "http://loinc.org",
              "display": "Laboratory report"
            }
          ],
          "text": "Laboratory Report"
        },
        "section": [
          {
            "code": {
              "coding": [
                {
                  "code": "26436-6",
                  "system": "http://loinc.org",
                  "display": "Laboratory studies (set)"
                }
              ],
              "text": "Laboratory studies"
            },
            "section": [
              {
                "code": {
                  "coding": [
                    {
                      "code": "$18719-5",
                      "system": "http://loinc.org",
                      "display": "Chemistry studies (set)"
                    }
                  ],
                  "text": "Chemistry"
                },
                "entry": [
                  {
                    "reference": "urn:uuid:fc621197-b1e2-49b3-8725-34279acf7411"
                  },
                  {
                    "reference": "urn:uuid:2d750597-06d7-4fbb-bb19-c024119ae701"
                  },
                  {
                    "reference": "urn:uuid:dbdbdcf2-d064-48dd-ba74-6f80c789d9c0"
                  },
                  {
                    "reference": "urn:uuid:fab77105-6119-4f68-9495-1b030c0c5351"
                  }
                ],
                "text": {
                  "status": "generated",
                  "div": "<div xmlns=\"http://www.w3.org/1999/xhtml\"><h3>Chemistry</h3><table class=\"hl7__eu__lab__report\"><thead><tr><th>Test</th><th>11-MAR-2018</th><th>Reference&#xA0;Range</th><th>Unit</th></tr></thead><tbody><tr><td>Cholesterol [Mass/volume] in Serum or Plasma</td><td><strong>203.8 H</strong></td><td>125 - 200</td><td>mg/dL</td></tr><tr><td>Triglyceride [Mass/volume] in Serum or Plasma</td><td>119.0</td><td>35 - 150</td><td>mg/dL</td></tr><tr><td>Cholesterol in LDL [Mass/volume] in Serum or Plasma by Direct assay</td><td>123.2</td><td>0 - 130</td><td>mg/dL</td></tr><tr><td>Cholesterol in HDL [Mass/volume] in Serum or Plasma</td><td>56.8</td><td>40 - 100</td><td>mg/dL</td></tr></tbody></table></div>"
                },
                "title": "Chemistry"
              }
            ],
            "title": "Laboratory Report"
          },
          {
            "text": {
              "status": "generated",
              "div": "<div xmlns=\"http://www.w3.org/1999/xhtml\"><h3>Annotation</h3><table class=\"hl7__eu__lab__report\"><tr><th>Conclusion and Recommendations based on this report and previous findings known to us</th></tr><tr><td>The patient shows mildly elevated total cholesterol, while LDL, HDL, and triglycerides are within normal limits. This lipid profile suggests a slightly increased cardiovascular risk, but no significant dyslipidemia. Recommend lifestyle modifications and periodic monitoring. No acute laboratory concerns.</td></tr></table></div>"
            },
            "code": {
              "coding": [
                {
                  "system": "http://loinc.org",
                  "code": "48767-8",
                  "display": "Annotation comment"
                }
              ]
            },
            "title": "Annotation comment"
          }
        ],
        "status": "final",
        "subject": {
          "reference": "urn:uuid:41ea7947-888f-40d4-91fe-3a7a20fb8e91",
          "display": "Katy Johnston"
        },
        "date": "2018-03-11T10:58:49Z",
        "title": "Laboratory Report",
        "confidentiality": "N"
      }
    },
    {
      "fullUrl": "urn:uuid:4045dd5e-c6df-46dc-9fa9-6dce5bba3d7d",
      "resource": {
        "resourceType": "DiagnosticReport",
        "id": "4045dd5e-c6df-46dc-9fa9-6dce5bba3d7d",
        "meta": {
          "profile": [
            "http://hl7.eu/fhir/laboratory/StructureDefinition/DiagnosticReport-eu-lab"
          ]
        },
        "identifier": [
          {
            "assigner": {
              "display": "HL7 Europe"
            },
            "system": "urn:oid:2.16.840.1.113883.2.51.999",
            "value": "fefe343e-1ad8-4606-bb6c-e70e0e342c22"
          }
        ],
        "extension": [
          {
            "url": "http://hl7.org/fhir/5.0/StructureDefinition/extension-DiagnosticReport.composition",
            "valueReference": {
              "reference": "urn:uuid:71904690-1bfc-45c0-bca0-05e24975aa42"
            }
          }
        ],
        "category": [
          {
            "coding": [
              {
                "code": "26436-6",
                "system": "http://loinc.org",
                "display": "Laboratory studies (set)"
              }
            ]
          }
        ],
        "specimen": [
          {
            "reference": "urn:uuid:a32e7d11-ec58-4ba7-af8e-79d9a6b48e98"
          }
        ],
        "result": [
          {
            "reference": "urn:uuid:fc621197-b1e2-49b3-8725-34279acf7411"
          },
          {
            "reference": "urn:uuid:2d750597-06d7-4fbb-bb19-c024119ae701"
          },
          {
            "reference": "urn:uuid:dbdbdcf2-d064-48dd-ba74-6f80c789d9c0"
          },
          {
            "reference": "urn:uuid:fab77105-6119-4f68-9495-1b030c0c5351"
          }
        ],
        "status": "registered",
        "code": {
          "coding": [
            {
              "code": "11502-2",
              "system": "http://loinc.org",
              "display": "Laboratory report"
            }
          ]
        },
        "subject": {
          "reference": "urn:uuid:41ea7947-888f-40d4-91fe-3a7a20fb8e91",
          "display": "Katy Johnston"
        }
      }
    },
    {
      "fullUrl": "urn:uuid:41ea7947-888f-40d4-91fe-3a7a20fb8e91",
      "resource": {
        "resourceType": "Patient",
        "id": "41ea7947-888f-40d4-91fe-3a7a20fb8e91",
        "meta": {
          "security": [
            {
              "system": "http://terminology.hl7.org/CodeSystem/v3-ActReason",
              "code": "HTEST"
            },
            {
              "system": "http://terminology.hl7.org/CodeSystem/v3-ActReason",
              "code": "TRAIN"
            }
          ],
          "tag": [
            {
              "system": "https://synderai.net/fhir/CodeSystem/tags",
              "code": "synthetic",
              "display": "SYNDERAI Synthetic data"
            }
          ],
          "profile": [
            "http://hl7.eu/fhir/base/StructureDefinition/patient-eu-core"
          ]
        },
        "identifier": [
          {
            "type": {
              "coding": [
                {
                  "code": "PT",
                  "system": "http://terminology.hl7.org/CodeSystem/v2-0203"
                }
              ]
            },
            "system": "http://ec.europa.eu/identifier/eci",
            "value": "1854-452946-6"
          },
          {
            "type": {
              "coding": [
                {
                  "code": "MR",
                  "system": "http://terminology.hl7.org/CodeSystem/v2-0203"
                }
              ]
            },
            "system": "http://local.setting.eu/identifier",
            "value": "f94741cf-8405-9657-1aec-b3bd1788b46e"
          }
        ],
        "name": [
          {
            "family": "Johnston"
          },
          {
            "given": [
              "Katy"
            ]
          },
          {
            "text": "Katy Johnston"
          }
        ],
        "address": [
          {
            "line": [
              "Flat 16f",
              "Stokes roads"
            ],
            "use": "home",
            "type": "physical",
            "postalCode": "E1",
            "city": "London",
            "country": "United Kingdom"
          }
        ],
        "telecom": [
          {
            "system": "phone",
            "value": "+44808 1570256"
          }
        ],
        "extension": [
          {
            "url": "http://hl7.org/fhir/StructureDefinition/patient-nationality",
            "valueCodeableConcept": {
              "coding": [
                {
                  "code": "GB",
                  "system": "http://hl7.org/fhir/ValueSet/country"
                }
              ]
            }
          }
        ],
        "text": {
          "status": "generated",
          "div": "<div xmlns=\"http://www.w3.org/1999/xhtml\"><table class=\"hl7__ips\"><tr><td>Katy Johnston</td><td>female</td><td>19-Sep-1988</td></tr></table></div>"
        },
        "gender": "female",
        "birthDate": "1988-09-19"
      }
    },
    {
      "fullUrl": "urn:uuid:10a97915-bad7-447a-8fb9-596ef128a9bb",
      "resource": {
        "resourceType": "ServiceRequest",
        "id": "10a97915-bad7-447a-8fb9-596ef128a9bb",
        "meta": {
          "profile": [
            "http://hl7.eu/fhir/laboratory/StructureDefinition/ServiceRequest-eu-lab"
          ]
        },
        "identifier": [
          {
            "system": "http://example.org",
            "value": "6a8df600-d4bd-4610-b89d-42e7d9b1d61e"
          }
        ],
        "specimen": [
          {
            "reference": "urn:uuid:a32e7d11-ec58-4ba7-af8e-79d9a6b48e98"
          }
        ],
        "reasonCode": [
          {
            "coding": [
              {
                "code": "284549007",
                "system": "http://snomed.info/sct",
                "display": "Laceration of hand"
              }
            ]
          },
          {
            "coding": [
              {
                "code": "312608009",
                "system": "http://snomed.info/sct",
                "display": "Laceration - injury"
              }
            ]
          },
          {
            "coding": [
              {
                "code": "15777000",
                "system": "http://snomed.info/sct",
                "display": "Prediabetes"
              }
            ]
          },
          {
            "coding": [
              {
                "code": "271737000",
                "system": "http://snomed.info/sct",
                "display": "Anemia"
              }
            ]
          },
          {
            "coding": [
              {
                "code": "203082005",
                "system": "http://snomed.info/sct",
                "display": "Fibromyalgia"
              }
            ]
          },
          {
            "coding": [
              {
                "code": "6525002",
                "system": "http://snomed.info/sct",
                "display": "Dependent drug abuse"
              }
            ]
          },
          {
            "coding": [
              {
                "code": "124171000119105",
                "system": "http://snomed.info/sct",
                "display": "Chronic intractable migraine without aura"
              }
            ]
          },
          {
            "coding": [
              {
                "code": "196416002",
                "system": "http://snomed.info/sct",
                "display": "Impacted molars"
              }
            ]
          }
        ],
        "status": "active",
        "intent": "order",
        "code": {
          "coding": [
            {
              "code": "108252007",
              "system": "http://snomed.info/sct",
              "display": "Laboratory procedure"
            }
          ]
        },
        "subject": {
          "reference": "urn:uuid:41ea7947-888f-40d4-91fe-3a7a20fb8e91",
          "display": "Katy Johnston"
        },
        "requester": {
          "reference": "urn:uuid:942a0620-0cae-4133-b59c-48d01f0f245a"
        }
      }
    },
    {
      "fullUrl": "urn:uuid:942a0620-0cae-4133-b59c-48d01f0f245a",
      "resource": {
        "resourceType": "PractitionerRole",
        "id": "942a0620-0cae-4133-b59c-48d01f0f245a",
        "meta": {
          "profile": [
            "http://hl7.eu/fhir/base/StructureDefinition/practitionerRole-eu"
          ]
        },
        "text": {
          "status": "generated",
          "div": "<div xmlns=\"http://www.w3.org/1999/xhtml\">Provider Role Id: 942a0620-0cae-4133-b59c-48d01f0f245a</div>"
        },
        "organization": {
          "reference": "urn:uuid:504bef8e-f00e-49dd-a6b4-ddd00b9fdf82"
        }
      }
    },
    {
      "fullUrl": "urn:uuid:504bef8e-f00e-49dd-a6b4-ddd00b9fdf82",
      "resource": {
        "resourceType": "Organization",
        "id": "504bef8e-f00e-49dd-a6b4-ddd00b9fdf82",
        "meta": {
          "profile": [
            "http://hl7.eu/fhir/base/StructureDefinition/organization-eu"
          ]
        },
        "identifier": [
          {
            "assigner": {
              "display": "HL7 Europe"
            },
            "system": "urn:oid:2.16.840.1.113883.2.51.999",
            "value": "c7856860-d68d-406d-a361-9651fd03c1d5"
          }
        ],
        "address": [
          {
            "city": "London",
            "postalCode": "SE1 7",
            "country": "United Kingdom"
          }
        ],
        "text": {
          "status": "generated",
          "div": "<div xmlns=\"http://www.w3.org/1999/xhtml\">Provider Organization: Evelina Children&#039;s Hospital</div>"
        },
        "name": "Evelina Children&#039;s Hospital"
      }
    },
    {
      "fullUrl": "urn:uuid:a32e7d11-ec58-4ba7-af8e-79d9a6b48e98",
      "resource": {
        "resourceType": "Specimen",
        "id": "a32e7d11-ec58-4ba7-af8e-79d9a6b48e98",
        "meta": {
          "profile": [
            "http://hl7.eu/fhir/laboratory/StructureDefinition/Specimen-eu-lab"
          ]
        },
        "collection": {
          "collectedDateTime": "2018-03-11"
        },
        "text": {
          "status": "generated",
          "div": "<div xmlns=\"http://www.w3.org/1999/xhtml\"><table class=\"hl7__eu__lab__report\"><tr><th>Specimen</th><th>Collection Date</th></tr><tr><td>Acellular blood (serum or plasma) specimen</td><td><span class=\"nb\">11-Mar-2018</span></td></tr></table></div>"
        },
        "type": {
          "coding": [
            {
              "code": "122592007",
              "system": "http://snomed.info/sct",
              "display": "Acellular blood (serum or plasma) specimen"
            }
          ]
        }
      }
    },
    {
      "fullUrl": "urn:uuid:fc621197-b1e2-49b3-8725-34279acf7411",
      "resource": {
        "resourceType": "Observation",
        "id": "fc621197-b1e2-49b3-8725-34279acf7411",
        "meta": {
          "profile": [
            "http://hl7.eu/fhir/laboratory/StructureDefinition/Observation-resultslab-eu-lab"
          ]
        },
        "performer": [
          {
            "display": "The Central European Lab"
          }
        ],
        "category": [
          {
            "coding": [
              {
                "system": "http://terminology.hl7.org/CodeSystem/observation-category",
                "code": "laboratory"
              }
            ]
          }
        ],
        "code": {
          "coding": [
            {
              "code": "2093-3",
              "system": "http://loinc.org",
              "display": "Cholesterol [Mass/volume] in Serum or Plasma"
            }
          ],
          "text": "Cholesterol [Mass/volume] in Serum or Plasma"
        },
        "valueQuantity": {
          "system": "http://unitsofmeasure.org",
          "value": 203.8,
          "unit": "mg/dL",
          "code": "mg/dL"
        },
        "referenceRange": [
          {
            "low": {
              "value": 125,
              "code": "mg/dL",
              "system": "http://unitsofmeasure.org"
            }
          },
          {
            "high": {
              "value": 200,
              "code": "mg/dL",
              "system": "http://unitsofmeasure.org"
            }
          }
        ],
        "interpretation": [
          {
            "coding": [
              {
                "code": "H",
                "system": "http://terminology.hl7.org/CodeSystem/v3-ObservationInterpretation",
                "display": "High"
              }
            ]
          }
        ],
        "text": {
          "status": "generated",
          "div": "<div xmlns=\"http://www.w3.org/1999/xhtml\"><table class=\"hl7__eu__lab__report\"><tr><th>Test</th><th>11-Mar-2018</th><th>Reference&#xA0;Range</th><th>Unit</th></tr><tr><td>Cholesterol [Mass/volume] in Serum or Plasma</td><td>203.8</td><td>125 - 200</td><td>H</td><td>mg/dL</td></tr></table></div>"
        },
        "status": "final",
        "subject": {
          "reference": "urn:uuid:41ea7947-888f-40d4-91fe-3a7a20fb8e91",
          "display": "Katy Johnston"
        },
        "effectiveDateTime": "2018-03-11T09:58:49Z",
        "specimen": {
          "reference": "urn:uuid:a32e7d11-ec58-4ba7-af8e-79d9a6b48e98"
        }
      }
    },
    {
      "fullUrl": "urn:uuid:2d750597-06d7-4fbb-bb19-c024119ae701",
      "resource": {
        "resourceType": "Observation",
        "id": "2d750597-06d7-4fbb-bb19-c024119ae701",
        "meta": {
          "profile": [
            "http://hl7.eu/fhir/laboratory/StructureDefinition/Observation-resultslab-eu-lab"
          ]
        },
        "performer": [
          {
            "display": "The Central European Lab"
          }
        ],
        "category": [
          {
            "coding": [
              {
                "system": "http://terminology.hl7.org/CodeSystem/observation-category",
                "code": "laboratory"
              }
            ]
          }
        ],
        "code": {
          "coding": [
            {
              "code": "2571-8",
              "system": "http://loinc.org",
              "display": "Triglyceride [Mass/volume] in Serum or Plasma"
            }
          ],
          "text": "Triglyceride [Mass/volume] in Serum or Plasma"
        },
        "valueQuantity": {
          "system": "http://unitsofmeasure.org",
          "value": 119,
          "unit": "mg/dL",
          "code": "mg/dL"
        },
        "referenceRange": [
          {
            "low": {
              "value": 35,
              "code": "mg/dL",
              "system": "http://unitsofmeasure.org"
            }
          },
          {
            "high": {
              "value": 150,
              "code": "mg/dL",
              "system": "http://unitsofmeasure.org"
            }
          }
        ],
        "text": {
          "status": "generated",
          "div": "<div xmlns=\"http://www.w3.org/1999/xhtml\"><table class=\"hl7__eu__lab__report\"><tr><th>Test</th><th>11-Mar-2018</th><th>Reference&#xA0;Range</th><th>Unit</th></tr><tr><td>Triglyceride [Mass/volume] in Serum or Plasma</td><td>119.0</td><td>35 - 150</td><td></td><td>mg/dL</td></tr></table></div>"
        },
        "status": "final",
        "subject": {
          "reference": "urn:uuid:41ea7947-888f-40d4-91fe-3a7a20fb8e91",
          "display": "Katy Johnston"
        },
        "effectiveDateTime": "2018-03-11T09:58:49Z",
        "specimen": {
          "reference": "urn:uuid:a32e7d11-ec58-4ba7-af8e-79d9a6b48e98"
        }
      }
    },
    {
      "fullUrl": "urn:uuid:dbdbdcf2-d064-48dd-ba74-6f80c789d9c0",
      "resource": {
        "resourceType": "Observation",
        "id": "dbdbdcf2-d064-48dd-ba74-6f80c789d9c0",
        "meta": {
          "profile": [
            "http://hl7.eu/fhir/laboratory/StructureDefinition/Observation-resultslab-eu-lab"
          ]
        },
        "performer": [
          {
            "display": "The Central European Lab"
          }
        ],
        "category": [
          {
            "coding": [
              {
                "system": "http://terminology.hl7.org/CodeSystem/observation-category",
                "code": "laboratory"
              }
            ]
          }
        ],
        "code": {
          "coding": [
            {
              "code": "18262-6",
              "system": "http://loinc.org",
              "display": "Cholesterol in LDL [Mass/volume] in Serum or Plasma by Direct assay"
            }
          ],
          "text": "Cholesterol in LDL [Mass/volume] in Serum or Plasma by Direct assay"
        },
        "valueQuantity": {
          "system": "http://unitsofmeasure.org",
          "value": 123.2,
          "unit": "mg/dL",
          "code": "mg/dL"
        },
        "referenceRange": [
          {
            "low": {
              "value": 0,
              "code": "mg/dL",
              "system": "http://unitsofmeasure.org"
            }
          },
          {
            "high": {
              "value": 130,
              "code": "mg/dL",
              "system": "http://unitsofmeasure.org"
            }
          }
        ],
        "text": {
          "status": "generated",
          "div": "<div xmlns=\"http://www.w3.org/1999/xhtml\"><table class=\"hl7__eu__lab__report\"><tr><th>Test</th><th>11-Mar-2018</th><th>Reference&#xA0;Range</th><th>Unit</th></tr><tr><td>Cholesterol in LDL [Mass/volume] in Serum or Plasma by Direct assay</td><td>123.2</td><td>0 - 130</td><td></td><td>mg/dL</td></tr></table></div>"
        },
        "status": "final",
        "subject": {
          "reference": "urn:uuid:41ea7947-888f-40d4-91fe-3a7a20fb8e91",
          "display": "Katy Johnston"
        },
        "effectiveDateTime": "2018-03-11T09:58:49Z",
        "specimen": {
          "reference": "urn:uuid:a32e7d11-ec58-4ba7-af8e-79d9a6b48e98"
        }
      }
    },
    {
      "fullUrl": "urn:uuid:fab77105-6119-4f68-9495-1b030c0c5351",
      "resource": {
        "resourceType": "Observation",
        "id": "fab77105-6119-4f68-9495-1b030c0c5351",
        "meta": {
          "profile": [
            "http://hl7.eu/fhir/laboratory/StructureDefinition/Observation-resultslab-eu-lab"
          ]
        },
        "performer": [
          {
            "display": "The Central European Lab"
          }
        ],
        "category": [
          {
            "coding": [
              {
                "system": "http://terminology.hl7.org/CodeSystem/observation-category",
                "code": "laboratory"
              }
            ]
          }
        ],
        "code": {
          "coding": [
            {
              "code": "2085-9",
              "system": "http://loinc.org",
              "display": "Cholesterol in HDL [Mass/volume] in Serum or Plasma"
            }
          ],
          "text": "Cholesterol in HDL [Mass/volume] in Serum or Plasma"
        },
        "valueQuantity": {
          "system": "http://unitsofmeasure.org",
          "value": 56.8,
          "unit": "mg/dL",
          "code": "mg/dL"
        },
        "referenceRange": [
          {
            "low": {
              "value": 40,
              "code": "mg/dL",
              "system": "http://unitsofmeasure.org"
            }
          },
          {
            "high": {
              "value": 100,
              "code": "mg/dL",
              "system": "http://unitsofmeasure.org"
            }
          }
        ],
        "text": {
          "status": "generated",
          "div": "<div xmlns=\"http://www.w3.org/1999/xhtml\"><table class=\"hl7__eu__lab__report\"><tr><th>Test</th><th>11-Mar-2018</th><th>Reference&#xA0;Range</th><th>Unit</th></tr><tr><td>Cholesterol in HDL [Mass/volume] in Serum or Plasma</td><td>56.8</td><td>40 - 100</td><td></td><td>mg/dL</td></tr></table></div>"
        },
        "status": "final",
        "subject": {
          "reference": "urn:uuid:41ea7947-888f-40d4-91fe-3a7a20fb8e91",
          "display": "Katy Johnston"
        },
        "effectiveDateTime": "2018-03-11T09:58:49Z",
        "specimen": {
          "reference": "urn:uuid:a32e7d11-ec58-4ba7-af8e-79d9a6b48e98"
        }
      }
    },
    {
      "fullUrl": "urn:uuid:227143a2-e3fb-4e97-9802-ecd31b09614b",
      "resource": {
        "resourceType": "Device",
        "id": "227143a2-e3fb-4e97-9802-ecd31b09614b",
        "deviceName": [
          {
            "name": "SYNDERAI Synthetic Generator",
            "type": "manufacturer-name"
          }
        ],
        "version": [
          {
            "value": "5.0"
          }
        ],
        "text": {
          "status": "generated",
          "div": "<div xmlns=\"http://www.w3.org/1999/xhtml\">SYNDERAI Synthetic Generator v5.0</div>"
        },
        "status": "active\"",
        "distinctIdentifier": "synderai-generator-50",
        "manufacturer": "SYNDERAI Project"
      }
    },
    {
      "fullUrl": "urn:uuid:7c22759b-b269-4772-bd9c-ba6aaefc30d4",
      "resource": {
        "resourceType": "Provenance",
        "id": "7c22759b-b269-4772-bd9c-ba6aaefc30d4",
        "target": [
          {
            "reference": "Patient/41ea7947-888f-40d4-91fe-3a7a20fb8e91"
          },
          {
            "reference": "Bundle/0a934b70-de2a-4f81-af7f-240b3c28b910"
          },
          {
            "reference": "Composition/2beccf0d-7902-48d4-8c75-51716397d356"
          },
          {
            "reference": "PractitionerRole/1c29a515-9db8-4eb8-acc0-25078604f393"
          },
          {
            "reference": "Practitioner/bfbde858-b4b2-49a8-9922-f3cb032f0ede"
          },
          {
            "reference": "PractitionerRole/942a0620-0cae-4133-b59c-48d01f0f245a"
          },
          {
            "reference": "Organization/504bef8e-f00e-49dd-a6b4-ddd00b9fdf82"
          }
        ],
        "activity": {
          "text": "Synthetic Example Data Generation"
        },
        "policy": [
          "https://synderai.net/synderai-synthetic-data-policy"
        ],
        "agent": [
          {
            "type": {
              "text": "author"
            },
            "who": {
              "reference": "Device/227143a2-e3fb-4e97-9802-ecd31b09614b"
            }
          }
        ],
        "reason": [
          {
            "text": "Interoperability Testing and Training (non-clinical use)"
          }
        ],
        "text": {
          "status": "generated",
          "div": "<div xmlns=\"http://www.w3.org/1999/xhtml\">Provenance for SYNDERAI Synthetic Example Data Resource</div>"
        },
        "recorded": "2018-03-11T10:58:49Z"
      }
    },
    {
      "fullUrl": "urn:uuid:1c29a515-9db8-4eb8-acc0-25078604f393",
      "resource": {
        "resourceType": "PractitionerRole",
        "id": "1c29a515-9db8-4eb8-acc0-25078604f393",
        "meta": {
          "profile": [
            "http://hl7.eu/fhir/base/StructureDefinition/practitionerRole-eu"
          ]
        },
        "text": {
          "status": "generated",
          "div": "<div xmlns=\"http://www.w3.org/1999/xhtml\">Laboratory Role Id: 1c29a515-9db8-4eb8-acc0-25078604f393</div>"
        },
        "practitioner": {
          "reference": "urn:uuid:bfbde858-b4b2-49a8-9922-f3cb032f0ede"
        }
      }
    },
    {
      "fullUrl": "urn:uuid:bfbde858-b4b2-49a8-9922-f3cb032f0ede",
      "resource": {
        "resourceType": "Practitioner",
        "id": "bfbde858-b4b2-49a8-9922-f3cb032f0ede",
        "meta": {
          "profile": [
            "http://hl7.eu/fhir/base/StructureDefinition/practitioner-eu"
          ]
        },
        "identifier": [
          {
            "assigner": {
              "display": "HL7 Europe"
            },
            "system": "urn:oid:2.16.840.1.113883.2.51.999",
            "value": "62c4318e-a28c-45ee-833d-edaa2173d0e4"
          }
        ],
        "name": [
          {
            "prefix": [
              "dr"
            ],
            "given": [
              "Ex"
            ],
            "family": "Ample"
          }
        ],
        "address": [
          {
            "line": [
              "Laboratoire Central Européenne",
              "Boulevard du Jardin Botanique 32"
            ],
            "postalCode": "1000",
            "city": "Brussels",
            "country": "Belgium"
          }
        ],
        "text": {
          "status": "generated",
          "div": "<div xmlns=\"http://www.w3.org/1999/xhtml\">Laboratory: Laboratoire Central Européenne, 1000 Brussels, Belgium</div>"
        }
      }
    }
  ],
  "type": "document",
  "timestamp": "2018-03-11T10:58:49Z"
}
