{
  "resourceType": "Bundle",
  "id": "871b5ace-c6ff-4a02-b649-e827be5effbf",
  "meta": {
    "profile": [
      "http://hl7.eu/fhir/laboratory/StructureDefinition/Bundle-eu-lab"
    ]
  },
  "identifier": {
    "assigner": {
      "display": "HL7 Europe"
    },
    "system": "urn:oid:2.16.840.1.113883.2.51.999",
    "value": "fe49aa3d-a4a4-4ec2-a54b-e20505f5dfce"
  },
  "entry": [
    {
      "fullUrl": "urn:uuid:321a0467-d289-479f-8256-8bb6727403de",
      "resource": {
        "resourceType": "Composition",
        "id": "321a0467-d289-479f-8256-8bb6727403de",
        "meta": {
          "profile": [
            "http://hl7.eu/fhir/laboratory/StructureDefinition/Composition-eu-lab"
          ]
        },
        "identifier": {
          "assigner": {
            "display": "HL7 Europe"
          },
          "system": "urn:oid:2.16.840.1.113883.2.51.999",
          "value": "f3954eae-c513-4c2c-bf53-a6531d8d7039"
        },
        "author": [
          {
            "reference": "urn:uuid:eb7eeead-94ca-42d0-a03f-8c345dd40c73"
          }
        ],
        "category": [
          {
            "coding": [
              {
                "code": "26436-6",
                "system": "http://loinc.org",
                "display": "Laboratory studies (set)"
              }
            ]
          }
        ],
        "type": {
          "coding": [
            {
              "code": "11502-2",
              "system": "http://loinc.org",
              "display": "Laboratory report"
            }
          ],
          "text": "Laboratory Report"
        },
        "section": [
          {
            "code": {
              "coding": [
                {
                  "code": "26436-6",
                  "system": "http://loinc.org",
                  "display": "Laboratory studies (set)"
                }
              ],
              "text": "Laboratory studies"
            },
            "section": [
              {
                "code": {
                  "coding": [
                    {
                      "code": "$18719-5",
                      "system": "http://loinc.org",
                      "display": "Chemistry studies (set)"
                    }
                  ],
                  "text": "Chemistry"
                },
                "entry": [
                  {
                    "reference": "urn:uuid:f2dfdd62-d1dc-466c-90b2-33037a062c76"
                  },
                  {
                    "reference": "urn:uuid:3e6e4b68-161b-4029-b5cf-64490a919e75"
                  },
                  {
                    "reference": "urn:uuid:a15e4777-bf45-4d7f-9101-50522632c342"
                  },
                  {
                    "reference": "urn:uuid:07c882e4-690b-44ba-a85c-6cba4dea175a"
                  }
                ],
                "text": {
                  "status": "generated",
                  "div": "<div xmlns=\"http://www.w3.org/1999/xhtml\"><h3>Chemistry</h3><table class=\"hl7__eu__lab__report\"><thead><tr><th>Test</th><th>28-MAR-2021</th><th>Reference Range</th><th>Unit</th></tr></thead><tbody><tr><td>Cholesterol [Mass/volume] in Serum or Plasma</td><td>178.7</td><td>125 - 200</td><td>mg/dL</td></tr><tr><td>Triglyceride [Mass/volume] in Serum or Plasma</td><td>121.5</td><td>35 - 150</td><td>mg/dL</td></tr><tr><td>Cholesterol in LDL [Mass/volume] in Serum or Plasma by Direct assay</td><td>95.8</td><td>0 - 130</td><td>mg/dL</td></tr><tr><td>Cholesterol in HDL [Mass/volume] in Serum or Plasma</td><td>58.6</td><td>35 - 82</td><td>mg/dL</td></tr></tbody></table></div>"
                },
                "title": "Chemistry"
              }
            ],
            "title": "Laboratory Report"
          },
          {
            "text": {
              "status": "generated",
              "div": "<div xmlns=\"http://www.w3.org/1999/xhtml\"><h3>Annotation</h3><table class=\"hl7__eu__lab__report\"><tr><th>Conclusion and Recommendations based on this report and previous findings known to us</th></tr><tr><td>All lipid parameters (total cholesterol, triglycerides, LDL, and HDL) are within normal limits. No dyslipidemia is detected. These results indicate a favorable lipid profile with no current laboratory evidence of increased cardiovascular risk. No further action required from a laboratory perspective.</td></tr></table></div>"
            },
            "code": {
              "coding": [
                {
                  "system": "http://loinc.org",
                  "code": "48767-8",
                  "display": "Annotation comment"
                }
              ]
            },
            "title": "Annotation comment"
          }
        ],
        "status": "final",
        "subject": {
          "reference": "urn:uuid:ad186ffa-258c-4e69-bdf9-18d7cc747d08",
          "display": "Olga Bąbel"
        },
        "date": "2021-03-28T05:55:50Z",
        "title": "Laboratory Report",
        "confidentiality": "N"
      }
    },
    {
      "fullUrl": "urn:uuid:a7d9000c-0888-4ebc-850a-9e74e491489c",
      "resource": {
        "resourceType": "DiagnosticReport",
        "id": "a7d9000c-0888-4ebc-850a-9e74e491489c",
        "meta": {
          "profile": [
            "http://hl7.eu/fhir/laboratory/StructureDefinition/DiagnosticReport-eu-lab"
          ]
        },
        "identifier": [
          {
            "assigner": {
              "display": "HL7 Europe"
            },
            "system": "urn:oid:2.16.840.1.113883.2.51.999",
            "value": "0b36892e-2131-461d-9ee8-4303e033a71f"
          }
        ],
        "extension": [
          {
            "url": "http://hl7.org/fhir/5.0/StructureDefinition/extension-DiagnosticReport.composition",
            "valueReference": {
              "reference": "urn:uuid:f3954eae-c513-4c2c-bf53-a6531d8d7039"
            }
          }
        ],
        "category": [
          {
            "coding": [
              {
                "code": "26436-6",
                "system": "http://loinc.org",
                "display": "Laboratory studies (set)"
              }
            ]
          }
        ],
        "specimen": [
          {
            "reference": "urn:uuid:a1ab1197-b26e-41b3-9790-ae6aedc5d9ba"
          }
        ],
        "result": [
          {
            "reference": "urn:uuid:f2dfdd62-d1dc-466c-90b2-33037a062c76"
          },
          {
            "reference": "urn:uuid:3e6e4b68-161b-4029-b5cf-64490a919e75"
          },
          {
            "reference": "urn:uuid:a15e4777-bf45-4d7f-9101-50522632c342"
          },
          {
            "reference": "urn:uuid:07c882e4-690b-44ba-a85c-6cba4dea175a"
          }
        ],
        "status": "registered",
        "code": {
          "coding": [
            {
              "code": "11502-2",
              "system": "http://loinc.org",
              "display": "Laboratory report"
            }
          ]
        },
        "subject": {
          "reference": "urn:uuid:ad186ffa-258c-4e69-bdf9-18d7cc747d08",
          "display": "Olga Bąbel"
        }
      }
    },
    {
      "fullUrl": "urn:uuid:ad186ffa-258c-4e69-bdf9-18d7cc747d08",
      "resource": {
        "resourceType": "Patient",
        "id": "ad186ffa-258c-4e69-bdf9-18d7cc747d08",
        "meta": {
          "security": [
            {
              "system": "http://terminology.hl7.org/CodeSystem/v3-ActReason",
              "code": "HTEST"
            },
            {
              "system": "http://terminology.hl7.org/CodeSystem/v3-ActReason",
              "code": "TRAIN"
            }
          ],
          "tag": [
            {
              "system": "https://synderai.net/fhir/CodeSystem/tags",
              "code": "synthetic",
              "display": "SYNDERAI Synthetic data"
            }
          ],
          "profile": [
            "http://hl7.eu/fhir/base/StructureDefinition/patient-eu-core"
          ]
        },
        "identifier": [
          {
            "type": {
              "coding": [
                {
                  "code": "PT",
                  "system": "http://terminology.hl7.org/CodeSystem/v2-0203"
                }
              ]
            },
            "system": "http://ec.europa.eu/identifier/eci",
            "value": "5030-866518-6"
          },
          {
            "type": {
              "coding": [
                {
                  "code": "MR",
                  "system": "http://terminology.hl7.org/CodeSystem/v2-0203"
                }
              ]
            },
            "system": "http://local.setting.eu/identifier",
            "value": "90f4ce41-5cb2-20e8-d5ac-80001edd2b41"
          }
        ],
        "name": [
          {
            "family": "Bąbel"
          },
          {
            "given": [
              "Olga"
            ]
          },
          {
            "text": "Olga Bąbel"
          }
        ],
        "address": [
          {
            "line": [
              "ul. Podleśna 13/38"
            ],
            "use": "home",
            "type": "physical",
            "postalCode": "05-200",
            "city": "Wołomin",
            "country": "Poland"
          }
        ],
        "telecom": [
          {
            "system": "phone",
            "value": "+48 506 354 073"
          }
        ],
        "extension": [
          {
            "url": "http://hl7.org/fhir/StructureDefinition/patient-nationality",
            "valueCodeableConcept": {
              "coding": [
                {
                  "code": "PL",
                  "system": "http://hl7.org/fhir/ValueSet/country"
                }
              ]
            }
          }
        ],
        "text": {
          "status": "generated",
          "div": "<div xmlns=\"http://www.w3.org/1999/xhtml\"><table class=\"hl7__ips\"><tr><td>Olga Bąbel</td><td>female</td><td>05-Jun-1993</td></tr></table></div>"
        },
        "gender": "female",
        "birthDate": "1993-06-05"
      }
    },
    {
      "fullUrl": "urn:uuid:327691b5-b05e-419d-81ab-2405ddf18254",
      "resource": {
        "resourceType": "ServiceRequest",
        "id": "327691b5-b05e-419d-81ab-2405ddf18254",
        "meta": {
          "profile": [
            "http://hl7.eu/fhir/laboratory/StructureDefinition/ServiceRequest-eu-lab"
          ]
        },
        "identifier": [
          {
            "system": "http://example.org",
            "value": "8650f59c-a5f8-4782-83ee-80cc9e4e99b0"
          }
        ],
        "specimen": [
          {
            "reference": "urn:uuid:a1ab1197-b26e-41b3-9790-ae6aedc5d9ba"
          }
        ],
        "reasonCode": [
          {
            "coding": [
              {
                "code": "15777000",
                "system": "http://snomed.info/sct",
                "display": "Prediabetes"
              }
            ]
          },
          {
            "coding": [
              {
                "code": "271737000",
                "system": "http://snomed.info/sct",
                "display": "Anemia"
              }
            ]
          }
        ],
        "status": "active",
        "intent": "order",
        "code": {
          "coding": [
            {
              "code": "108252007",
              "system": "http://snomed.info/sct",
              "display": "Laboratory procedure"
            }
          ]
        },
        "subject": {
          "reference": "urn:uuid:ad186ffa-258c-4e69-bdf9-18d7cc747d08",
          "display": "Olga Bąbel"
        },
        "requester": {
          "reference": "urn:uuid:e76cc81a-f6e3-4f0e-a487-066f471ed18b"
        }
      }
    },
    {
      "fullUrl": "urn:uuid:e76cc81a-f6e3-4f0e-a487-066f471ed18b",
      "resource": {
        "resourceType": "PractitionerRole",
        "id": "e76cc81a-f6e3-4f0e-a487-066f471ed18b",
        "meta": {
          "profile": [
            "http://hl7.eu/fhir/base/StructureDefinition/practitionerRole-eu"
          ]
        },
        "text": {
          "status": "generated",
          "div": "<div xmlns=\"http://www.w3.org/1999/xhtml\">Provider Role Id: e76cc81a-f6e3-4f0e-a487-066f471ed18b</div>"
        },
        "organization": {
          "reference": "urn:uuid:84b7a740-9247-4506-85e9-b6bee0bfb022"
        }
      }
    },
    {
      "fullUrl": "urn:uuid:84b7a740-9247-4506-85e9-b6bee0bfb022",
      "resource": {
        "resourceType": "Organization",
        "id": "84b7a740-9247-4506-85e9-b6bee0bfb022",
        "meta": {
          "profile": [
            "http://hl7.eu/fhir/base/StructureDefinition/organization-eu"
          ]
        },
        "identifier": [
          {
            "assigner": {
              "display": "HL7 Europe"
            },
            "system": "urn:oid:2.16.840.1.113883.2.51.999",
            "value": "2b1d1334-95f1-40f7-9526-7ecacc7310e9"
          }
        ],
        "address": [
          {
            "line": [
              "Ignacego Prądzyńskiego 11"
            ],
            "city": "Wołomin",
            "postalCode": "05-200",
            "country": "Poland"
          }
        ],
        "text": {
          "status": "generated",
          "div": "<div xmlns=\"http://www.w3.org/1999/xhtml\">Provider Organization: Miejski Samodzielny Publiczny Zakład Opieki Zdrowotnej Nr 1</div>"
        },
        "name": "Miejski Samodzielny Publiczny Zakład Opieki Zdrowotnej Nr 1"
      }
    },
    {
      "fullUrl": "urn:uuid:a1ab1197-b26e-41b3-9790-ae6aedc5d9ba",
      "resource": {
        "resourceType": "Specimen",
        "id": "a1ab1197-b26e-41b3-9790-ae6aedc5d9ba",
        "meta": {
          "profile": [
            "http://hl7.eu/fhir/laboratory/StructureDefinition/Specimen-eu-lab"
          ]
        },
        "collection": {
          "collectedDateTime": "2021-03-28"
        },
        "text": {
          "status": "generated",
          "div": "<div xmlns=\"http://www.w3.org/1999/xhtml\"><table class=\"hl7__eu__lab__report\"><tr><th>Specimen</th><th>Collection Date</th></tr><tr><td>Acellular blood (serum or plasma) specimen</td><td><span class=\"nb\">28-Mar-2021</span></td></tr></table></div>"
        },
        "type": {
          "coding": [
            {
              "code": "122592007",
              "system": "http://snomed.info/sct",
              "display": "Acellular blood (serum or plasma) specimen"
            }
          ]
        }
      }
    },
    {
      "fullUrl": "urn:uuid:f2dfdd62-d1dc-466c-90b2-33037a062c76",
      "resource": {
        "resourceType": "Observation",
        "id": "f2dfdd62-d1dc-466c-90b2-33037a062c76",
        "meta": {
          "profile": [
            "http://hl7.eu/fhir/laboratory/StructureDefinition/Observation-resultslab-eu-lab"
          ]
        },
        "performer": [
          {
            "display": "The Central European Lab"
          }
        ],
        "category": [
          {
            "coding": [
              {
                "system": "http://terminology.hl7.org/CodeSystem/observation-category",
                "code": "laboratory"
              }
            ]
          }
        ],
        "code": {
          "coding": [
            {
              "code": "2093-3",
              "system": "http://loinc.org",
              "display": "Cholesterol [Mass/volume] in Serum or Plasma"
            }
          ],
          "text": "Cholesterol [Mass/volume] in Serum or Plasma"
        },
        "valueQuantity": {
          "system": "http://unitsofmeasure.org",
          "value": 178.7,
          "unit": "mg/dL",
          "code": "mg/dL"
        },
        "referenceRange": [
          {
            "low": {
              "value": 125,
              "code": "mg/dL",
              "system": "http://unitsofmeasure.org"
            }
          },
          {
            "high": {
              "value": 200,
              "code": "mg/dL",
              "system": "http://unitsofmeasure.org"
            }
          }
        ],
        "text": {
          "status": "generated",
          "div": "<div xmlns=\"http://www.w3.org/1999/xhtml\"><table class=\"hl7__eu__lab__report\"><tr><th>Test</th><th>28-Mar-2021</th><th>Reference Range</th><th>Unit</th></tr><tr><td>Cholesterol [Mass/volume] in Serum or Plasma</td><td>178.7</td><td>125 - 200</td><td></td><td>mg/dL</td></tr></table></div>"
        },
        "status": "final",
        "subject": {
          "reference": "urn:uuid:ad186ffa-258c-4e69-bdf9-18d7cc747d08",
          "display": "Olga Bąbel"
        },
        "effectiveDateTime": "2021-03-28T03:55:50Z",
        "specimen": {
          "reference": "urn:uuid:a1ab1197-b26e-41b3-9790-ae6aedc5d9ba"
        }
      }
    },
    {
      "fullUrl": "urn:uuid:3e6e4b68-161b-4029-b5cf-64490a919e75",
      "resource": {
        "resourceType": "Observation",
        "id": "3e6e4b68-161b-4029-b5cf-64490a919e75",
        "meta": {
          "profile": [
            "http://hl7.eu/fhir/laboratory/StructureDefinition/Observation-resultslab-eu-lab"
          ]
        },
        "performer": [
          {
            "display": "The Central European Lab"
          }
        ],
        "category": [
          {
            "coding": [
              {
                "system": "http://terminology.hl7.org/CodeSystem/observation-category",
                "code": "laboratory"
              }
            ]
          }
        ],
        "code": {
          "coding": [
            {
              "code": "2571-8",
              "system": "http://loinc.org",
              "display": "Triglyceride [Mass/volume] in Serum or Plasma"
            }
          ],
          "text": "Triglyceride [Mass/volume] in Serum or Plasma"
        },
        "valueQuantity": {
          "system": "http://unitsofmeasure.org",
          "value": 121.5,
          "unit": "mg/dL",
          "code": "mg/dL"
        },
        "referenceRange": [
          {
            "low": {
              "value": 35,
              "code": "mg/dL",
              "system": "http://unitsofmeasure.org"
            }
          },
          {
            "high": {
              "value": 150,
              "code": "mg/dL",
              "system": "http://unitsofmeasure.org"
            }
          }
        ],
        "text": {
          "status": "generated",
          "div": "<div xmlns=\"http://www.w3.org/1999/xhtml\"><table class=\"hl7__eu__lab__report\"><tr><th>Test</th><th>28-Mar-2021</th><th>Reference Range</th><th>Unit</th></tr><tr><td>Triglyceride [Mass/volume] in Serum or Plasma</td><td>121.5</td><td>35 - 150</td><td></td><td>mg/dL</td></tr></table></div>"
        },
        "status": "final",
        "subject": {
          "reference": "urn:uuid:ad186ffa-258c-4e69-bdf9-18d7cc747d08",
          "display": "Olga Bąbel"
        },
        "effectiveDateTime": "2021-03-28T03:55:50Z",
        "specimen": {
          "reference": "urn:uuid:a1ab1197-b26e-41b3-9790-ae6aedc5d9ba"
        }
      }
    },
    {
      "fullUrl": "urn:uuid:a15e4777-bf45-4d7f-9101-50522632c342",
      "resource": {
        "resourceType": "Observation",
        "id": "a15e4777-bf45-4d7f-9101-50522632c342",
        "meta": {
          "profile": [
            "http://hl7.eu/fhir/laboratory/StructureDefinition/Observation-resultslab-eu-lab"
          ]
        },
        "performer": [
          {
            "display": "The Central European Lab"
          }
        ],
        "category": [
          {
            "coding": [
              {
                "system": "http://terminology.hl7.org/CodeSystem/observation-category",
                "code": "laboratory"
              }
            ]
          }
        ],
        "code": {
          "coding": [
            {
              "code": "18262-6",
              "system": "http://loinc.org",
              "display": "Cholesterol in LDL [Mass/volume] in Serum or Plasma by Direct assay"
            }
          ],
          "text": "Cholesterol in LDL [Mass/volume] in Serum or Plasma by Direct assay"
        },
        "valueQuantity": {
          "system": "http://unitsofmeasure.org",
          "value": 95.8,
          "unit": "mg/dL",
          "code": "mg/dL"
        },
        "referenceRange": [
          {
            "low": {
              "value": 0,
              "code": "mg/dL",
              "system": "http://unitsofmeasure.org"
            }
          },
          {
            "high": {
              "value": 130,
              "code": "mg/dL",
              "system": "http://unitsofmeasure.org"
            }
          }
        ],
        "text": {
          "status": "generated",
          "div": "<div xmlns=\"http://www.w3.org/1999/xhtml\"><table class=\"hl7__eu__lab__report\"><tr><th>Test</th><th>28-Mar-2021</th><th>Reference Range</th><th>Unit</th></tr><tr><td>Cholesterol in LDL [Mass/volume] in Serum or Plasma by Direct assay</td><td>95.8</td><td>0 - 130</td><td></td><td>mg/dL</td></tr></table></div>"
        },
        "status": "final",
        "subject": {
          "reference": "urn:uuid:ad186ffa-258c-4e69-bdf9-18d7cc747d08",
          "display": "Olga Bąbel"
        },
        "effectiveDateTime": "2021-03-28T03:55:50Z",
        "specimen": {
          "reference": "urn:uuid:a1ab1197-b26e-41b3-9790-ae6aedc5d9ba"
        }
      }
    },
    {
      "fullUrl": "urn:uuid:07c882e4-690b-44ba-a85c-6cba4dea175a",
      "resource": {
        "resourceType": "Observation",
        "id": "07c882e4-690b-44ba-a85c-6cba4dea175a",
        "meta": {
          "profile": [
            "http://hl7.eu/fhir/laboratory/StructureDefinition/Observation-resultslab-eu-lab"
          ]
        },
        "performer": [
          {
            "display": "The Central European Lab"
          }
        ],
        "category": [
          {
            "coding": [
              {
                "system": "http://terminology.hl7.org/CodeSystem/observation-category",
                "code": "laboratory"
              }
            ]
          }
        ],
        "code": {
          "coding": [
            {
              "code": "2085-9",
              "system": "http://loinc.org",
              "display": "Cholesterol in HDL [Mass/volume] in Serum or Plasma"
            }
          ],
          "text": "Cholesterol in HDL [Mass/volume] in Serum or Plasma"
        },
        "valueQuantity": {
          "system": "http://unitsofmeasure.org",
          "value": 58.6,
          "unit": "mg/dL",
          "code": "mg/dL"
        },
        "referenceRange": [
          {
            "low": {
              "value": 35,
              "code": "mg/dL",
              "system": "http://unitsofmeasure.org"
            }
          },
          {
            "high": {
              "value": 82,
              "code": "mg/dL",
              "system": "http://unitsofmeasure.org"
            }
          }
        ],
        "text": {
          "status": "generated",
          "div": "<div xmlns=\"http://www.w3.org/1999/xhtml\"><table class=\"hl7__eu__lab__report\"><tr><th>Test</th><th>28-Mar-2021</th><th>Reference Range</th><th>Unit</th></tr><tr><td>Cholesterol in HDL [Mass/volume] in Serum or Plasma</td><td>58.6</td><td>35 - 82</td><td></td><td>mg/dL</td></tr></table></div>"
        },
        "status": "final",
        "subject": {
          "reference": "urn:uuid:ad186ffa-258c-4e69-bdf9-18d7cc747d08",
          "display": "Olga Bąbel"
        },
        "effectiveDateTime": "2021-03-28T03:55:50Z",
        "specimen": {
          "reference": "urn:uuid:a1ab1197-b26e-41b3-9790-ae6aedc5d9ba"
        }
      }
    },
    {
      "fullUrl": "urn:uuid:82363c47-d2db-4144-979c-12e519d4e9de",
      "resource": {
        "resourceType": "Device",
        "id": "82363c47-d2db-4144-979c-12e519d4e9de",
        "deviceName": [
          {
            "name": "SYNDERAI Synthetic Generator",
            "type": "manufacturer-name"
          }
        ],
        "version": [
          {
            "value": "5.0"
          }
        ],
        "text": {
          "status": "generated",
          "div": "<div xmlns=\"http://www.w3.org/1999/xhtml\">SYNDERAI Synthetic Generator v5.0</div>"
        },
        "status": "active\"",
        "distinctIdentifier": "synderai-generator-50",
        "manufacturer": "SYNDERAI Project"
      }
    },
    {
      "fullUrl": "urn:uuid:98242502-e697-4218-a337-8a37ea040d78",
      "resource": {
        "resourceType": "Provenance",
        "id": "98242502-e697-4218-a337-8a37ea040d78",
        "target": [
          {
            "reference": "Patient/ad186ffa-258c-4e69-bdf9-18d7cc747d08"
          },
          {
            "reference": "Bundle/871b5ace-c6ff-4a02-b649-e827be5effbf"
          },
          {
            "reference": "Composition/321a0467-d289-479f-8256-8bb6727403de"
          },
          {
            "reference": "PractitionerRole/eb7eeead-94ca-42d0-a03f-8c345dd40c73"
          },
          {
            "reference": "Practitioner/0ad90a41-38d6-42b1-bb56-9644c5148155"
          },
          {
            "reference": "PractitionerRole/e76cc81a-f6e3-4f0e-a487-066f471ed18b"
          },
          {
            "reference": "Organization/84b7a740-9247-4506-85e9-b6bee0bfb022"
          }
        ],
        "activity": {
          "text": "Synthetic Example Data Generation"
        },
        "policy": [
          "https://synderai.net/synderai-synthetic-data-policy"
        ],
        "agent": [
          {
            "type": {
              "text": "author"
            },
            "who": {
              "reference": "Device/82363c47-d2db-4144-979c-12e519d4e9de"
            }
          }
        ],
        "reason": [
          {
            "text": "Interoperability Testing and Training (non-clinical use)"
          }
        ],
        "text": {
          "status": "generated",
          "div": "<div xmlns=\"http://www.w3.org/1999/xhtml\">Provenance for SYNDERAI Synthetic Example Data Resource</div>"
        },
        "recorded": "2021-03-28T05:55:50Z"
      }
    },
    {
      "fullUrl": "urn:uuid:eb7eeead-94ca-42d0-a03f-8c345dd40c73",
      "resource": {
        "resourceType": "PractitionerRole",
        "id": "eb7eeead-94ca-42d0-a03f-8c345dd40c73",
        "meta": {
          "profile": [
            "http://hl7.eu/fhir/base/StructureDefinition/practitionerRole-eu"
          ]
        },
        "text": {
          "status": "generated",
          "div": "<div xmlns=\"http://www.w3.org/1999/xhtml\">Laboratory Role Id: eb7eeead-94ca-42d0-a03f-8c345dd40c73</div>"
        },
        "practitioner": {
          "reference": "urn:uuid:0ad90a41-38d6-42b1-bb56-9644c5148155"
        }
      }
    },
    {
      "fullUrl": "urn:uuid:0ad90a41-38d6-42b1-bb56-9644c5148155",
      "resource": {
        "resourceType": "Practitioner",
        "id": "0ad90a41-38d6-42b1-bb56-9644c5148155",
        "meta": {
          "profile": [
            "http://hl7.eu/fhir/base/StructureDefinition/practitioner-eu"
          ]
        },
        "identifier": [
          {
            "assigner": {
              "display": "HL7 Europe"
            },
            "system": "urn:oid:2.16.840.1.113883.2.51.999",
            "value": "92f09186-30ed-4850-b743-005e85c0403b"
          }
        ],
        "name": [
          {
            "prefix": [
              "dr"
            ],
            "given": [
              "Ex"
            ],
            "family": "Ample"
          }
        ],
        "address": [
          {
            "line": [
              "Laboratoire Central Européenne",
              "Boulevard du Jardin Botanique 32"
            ],
            "postalCode": "1000",
            "city": "Brussels",
            "country": "Belgium"
          }
        ],
        "text": {
          "status": "generated",
          "div": "<div xmlns=\"http://www.w3.org/1999/xhtml\">Laboratory: Laboratoire Central Européenne, 1000 Brussels, Belgium</div>"
        }
      }
    }
  ],
  "type": "document",
  "timestamp": "2021-03-28T05:55:50Z"
}
