{
  "resourceType": "Bundle",
  "id": "29f2afee-7aa4-4e25-b87a-5302a75fa2a3",
  "meta": {
    "profile": [
      "http://hl7.eu/fhir/laboratory/StructureDefinition/Bundle-eu-lab"
    ]
  },
  "identifier": {
    "assigner": {
      "display": "HL7 Europe"
    },
    "system": "urn:oid:2.16.840.1.113883.2.51.999",
    "value": "b5561e39-3bab-49f3-84eb-78f6cf9294f3"
  },
  "entry": [
    {
      "fullUrl": "urn:uuid:a0af4235-f38e-4b19-b15c-21f500f8c970",
      "resource": {
        "resourceType": "Composition",
        "id": "a0af4235-f38e-4b19-b15c-21f500f8c970",
        "meta": {
          "profile": [
            "http://hl7.eu/fhir/laboratory/StructureDefinition/Composition-eu-lab"
          ]
        },
        "identifier": {
          "assigner": {
            "display": "HL7 Europe"
          },
          "system": "urn:oid:2.16.840.1.113883.2.51.999",
          "value": "ef3834db-ea93-4d19-bd67-3afa2c50dd1c"
        },
        "author": [
          {
            "reference": "urn:uuid:1238bf51-c9e6-47f7-bb2a-426adb2e75b7"
          }
        ],
        "category": [
          {
            "coding": [
              {
                "code": "26436-6",
                "system": "http://loinc.org",
                "display": "Laboratory studies (set)"
              }
            ]
          }
        ],
        "type": {
          "coding": [
            {
              "code": "11502-2",
              "system": "http://loinc.org",
              "display": "Laboratory report"
            }
          ],
          "text": "Laboratory Report"
        },
        "section": [
          {
            "code": {
              "coding": [
                {
                  "code": "26436-6",
                  "system": "http://loinc.org",
                  "display": "Laboratory studies (set)"
                }
              ],
              "text": "Laboratory studies"
            },
            "section": [
              {
                "code": {
                  "coding": [
                    {
                      "code": "$18719-5",
                      "system": "http://loinc.org",
                      "display": "Chemistry studies (set)"
                    }
                  ],
                  "text": "Chemistry"
                },
                "entry": [
                  {
                    "reference": "urn:uuid:ccefdbe3-bbb9-4351-8c31-d104ef8f90c3"
                  },
                  {
                    "reference": "urn:uuid:ce02082d-a7c2-45e2-b587-b17f180e1ab8"
                  },
                  {
                    "reference": "urn:uuid:4216de18-146d-44a0-a935-d1f00de95b3b"
                  },
                  {
                    "reference": "urn:uuid:b8974d64-32a9-4fef-a912-bef347270395"
                  }
                ],
                "text": {
                  "status": "generated",
                  "div": "<div xmlns=\"http://www.w3.org/1999/xhtml\"><h3>Chemistry</h3><table class=\"hl7__eu__lab__report\"><thead><tr><th>Test</th><th>11-FEB-2024</th><th>Reference&#xA0;Range</th><th>Unit</th></tr></thead><tbody><tr><td>Cholesterol [Mass/volume] in Serum or Plasma</td><td>183.0</td><td>125 - 200</td><td>mg/dL</td></tr><tr><td>Triglyceride [Mass/volume] in Serum or Plasma</td><td>133.5</td><td>35 - 150</td><td>mg/dL</td></tr><tr><td>Cholesterol in LDL [Mass/volume] in Serum or Plasma by Direct assay</td><td>92.8</td><td>0 - 130</td><td>mg/dL</td></tr><tr><td>Cholesterol in HDL [Mass/volume] in Serum or Plasma</td><td>63.5</td><td>40 - 100</td><td>mg/dL</td></tr></tbody></table></div>"
                },
                "title": "Chemistry"
              }
            ],
            "title": "Laboratory Report"
          },
          {
            "text": {
              "status": "generated",
              "div": "<div xmlns=\"http://www.w3.org/1999/xhtml\"><h3>Annotation</h3><table class=\"hl7__eu__lab__report\"><tr><th>Conclusion and Recommendations based on this report and previous findings known to us</th></tr><tr><td>All lipid parameters are within normal limits. No evidence of dyslipidemia. These results suggest a favorable cardiovascular risk profile from a laboratory perspective. Continued monitoring as per clinical guidelines is recommended.</td></tr></table></div>"
            },
            "code": {
              "coding": [
                {
                  "system": "http://loinc.org",
                  "code": "48767-8",
                  "display": "Annotation comment"
                }
              ]
            },
            "title": "Annotation comment"
          }
        ],
        "status": "final",
        "subject": {
          "reference": "urn:uuid:c074ec22-f17e-44c9-a323-d3676e86b6ee",
          "display": "Gülsen Dörschner"
        },
        "date": "2024-02-11T22:09:08Z",
        "title": "Laboratory Report",
        "confidentiality": "N"
      }
    },
    {
      "fullUrl": "urn:uuid:430f8a83-dabf-44a1-ac43-26b2945bb563",
      "resource": {
        "resourceType": "DiagnosticReport",
        "id": "430f8a83-dabf-44a1-ac43-26b2945bb563",
        "meta": {
          "profile": [
            "http://hl7.eu/fhir/laboratory/StructureDefinition/DiagnosticReport-eu-lab"
          ]
        },
        "identifier": [
          {
            "assigner": {
              "display": "HL7 Europe"
            },
            "system": "urn:oid:2.16.840.1.113883.2.51.999",
            "value": "5a605f9a-0aba-438e-b747-6b765d5b36bd"
          }
        ],
        "extension": [
          {
            "url": "http://hl7.org/fhir/5.0/StructureDefinition/extension-DiagnosticReport.composition",
            "valueReference": {
              "reference": "urn:uuid:ef3834db-ea93-4d19-bd67-3afa2c50dd1c"
            }
          }
        ],
        "category": [
          {
            "coding": [
              {
                "code": "26436-6",
                "system": "http://loinc.org",
                "display": "Laboratory studies (set)"
              }
            ]
          }
        ],
        "specimen": [
          {
            "reference": "urn:uuid:b6a605d9-6062-40c4-92ce-3ad24fd259f2"
          }
        ],
        "result": [
          {
            "reference": "urn:uuid:ccefdbe3-bbb9-4351-8c31-d104ef8f90c3"
          },
          {
            "reference": "urn:uuid:ce02082d-a7c2-45e2-b587-b17f180e1ab8"
          },
          {
            "reference": "urn:uuid:4216de18-146d-44a0-a935-d1f00de95b3b"
          },
          {
            "reference": "urn:uuid:b8974d64-32a9-4fef-a912-bef347270395"
          }
        ],
        "status": "registered",
        "code": {
          "coding": [
            {
              "code": "11502-2",
              "system": "http://loinc.org",
              "display": "Laboratory report"
            }
          ]
        },
        "subject": {
          "reference": "urn:uuid:c074ec22-f17e-44c9-a323-d3676e86b6ee",
          "display": "Gülsen Dörschner"
        }
      }
    },
    {
      "fullUrl": "urn:uuid:c074ec22-f17e-44c9-a323-d3676e86b6ee",
      "resource": {
        "resourceType": "Patient",
        "id": "c074ec22-f17e-44c9-a323-d3676e86b6ee",
        "meta": {
          "security": [
            {
              "system": "http://terminology.hl7.org/CodeSystem/v3-ActReason",
              "code": "HTEST"
            },
            {
              "system": "http://terminology.hl7.org/CodeSystem/v3-ActReason",
              "code": "TRAIN"
            }
          ],
          "tag": [
            {
              "system": "https://synderai.net/fhir/CodeSystem/tags",
              "code": "synthetic",
              "display": "SYNDERAI Synthetic data"
            }
          ],
          "profile": [
            "http://hl7.eu/fhir/base/StructureDefinition/patient-eu-core"
          ]
        },
        "identifier": [
          {
            "type": {
              "coding": [
                {
                  "code": "PT",
                  "system": "http://terminology.hl7.org/CodeSystem/v2-0203"
                }
              ]
            },
            "system": "http://ec.europa.eu/identifier/eci",
            "value": "3549-346619-3"
          },
          {
            "type": {
              "coding": [
                {
                  "code": "MR",
                  "system": "http://terminology.hl7.org/CodeSystem/v2-0203"
                }
              ]
            },
            "system": "http://local.setting.eu/identifier",
            "value": "bcd9933a-4b4f-f81c-ee50-85330dd204e6"
          }
        ],
        "name": [
          {
            "family": "Dörschner"
          },
          {
            "given": [
              "Gülsen"
            ]
          },
          {
            "text": "Gülsen Dörschner"
          }
        ],
        "address": [
          {
            "line": [
              "Patbergplatz 571"
            ],
            "use": "home",
            "type": "physical",
            "postalCode": "56068",
            "city": "Koblenz",
            "country": "Germany"
          }
        ],
        "telecom": [
          {
            "system": "phone",
            "value": "(05189) 62305"
          }
        ],
        "extension": [
          {
            "url": "http://hl7.org/fhir/StructureDefinition/patient-nationality",
            "valueCodeableConcept": {
              "coding": [
                {
                  "code": "DE",
                  "system": "http://hl7.org/fhir/ValueSet/country"
                }
              ]
            }
          }
        ],
        "text": {
          "status": "generated",
          "div": "<div xmlns=\"http://www.w3.org/1999/xhtml\"><table class=\"hl7__ips\"><tr><td>Gülsen Dörschner</td><td>female</td><td>30-Jul-1970</td></tr></table></div>"
        },
        "gender": "female",
        "birthDate": "1970-07-30"
      }
    },
    {
      "fullUrl": "urn:uuid:c6ed9ddb-1aca-44af-8f74-51469aa2eada",
      "resource": {
        "resourceType": "ServiceRequest",
        "id": "c6ed9ddb-1aca-44af-8f74-51469aa2eada",
        "meta": {
          "profile": [
            "http://hl7.eu/fhir/laboratory/StructureDefinition/ServiceRequest-eu-lab"
          ]
        },
        "identifier": [
          {
            "system": "http://example.org",
            "value": "8da190a8-7145-431e-98b7-06f10d5cc9f0"
          }
        ],
        "specimen": [
          {
            "reference": "urn:uuid:b6a605d9-6062-40c4-92ce-3ad24fd259f2"
          }
        ],
        "reasonCode": [
          {
            "coding": [
              {
                "code": "239873007",
                "system": "http://snomed.info/sct",
                "display": "Osteoarthritis of knee"
              }
            ]
          },
          {
            "coding": [
              {
                "code": "87433001",
                "system": "http://snomed.info/sct",
                "display": "Pulmonary emphysema"
              }
            ]
          },
          {
            "coding": [
              {
                "code": "271737000",
                "system": "http://snomed.info/sct",
                "display": "Anemia"
              }
            ]
          },
          {
            "coding": [
              {
                "code": "59621000",
                "system": "http://snomed.info/sct",
                "display": "Essential hypertension"
              }
            ]
          }
        ],
        "status": "active",
        "intent": "order",
        "code": {
          "coding": [
            {
              "code": "108252007",
              "system": "http://snomed.info/sct",
              "display": "Laboratory procedure"
            }
          ]
        },
        "subject": {
          "reference": "urn:uuid:c074ec22-f17e-44c9-a323-d3676e86b6ee",
          "display": "Gülsen Dörschner"
        },
        "requester": {
          "reference": "urn:uuid:81f23502-e471-44f4-ab06-52b0157cf84b"
        }
      }
    },
    {
      "fullUrl": "urn:uuid:81f23502-e471-44f4-ab06-52b0157cf84b",
      "resource": {
        "resourceType": "PractitionerRole",
        "id": "81f23502-e471-44f4-ab06-52b0157cf84b",
        "meta": {
          "profile": [
            "http://hl7.eu/fhir/base/StructureDefinition/practitionerRole-eu"
          ]
        },
        "text": {
          "status": "generated",
          "div": "<div xmlns=\"http://www.w3.org/1999/xhtml\">Provider Role Id: 81f23502-e471-44f4-ab06-52b0157cf84b</div>"
        },
        "organization": {
          "reference": "urn:uuid:6ce5ccf8-3443-4d67-a1ca-24d331709222"
        }
      }
    },
    {
      "fullUrl": "urn:uuid:6ce5ccf8-3443-4d67-a1ca-24d331709222",
      "resource": {
        "resourceType": "Organization",
        "id": "6ce5ccf8-3443-4d67-a1ca-24d331709222",
        "meta": {
          "profile": [
            "http://hl7.eu/fhir/base/StructureDefinition/organization-eu"
          ]
        },
        "identifier": [
          {
            "assigner": {
              "display": "HL7 Europe"
            },
            "system": "urn:oid:2.16.840.1.113883.2.51.999",
            "value": "89163199-7561-4875-a9c8-8ed5e1b78fff"
          }
        ],
        "address": [
          {
            "line": [
              "Kardinal-Krementz-Straße 1-5"
            ],
            "city": "Koblenz",
            "postalCode": "56068",
            "country": "Germany"
          }
        ],
        "text": {
          "status": "generated",
          "div": "<div xmlns=\"http://www.w3.org/1999/xhtml\">Provider Organization: Brüderhaus Koblenz</div>"
        },
        "name": "Brüderhaus Koblenz"
      }
    },
    {
      "fullUrl": "urn:uuid:b6a605d9-6062-40c4-92ce-3ad24fd259f2",
      "resource": {
        "resourceType": "Specimen",
        "id": "b6a605d9-6062-40c4-92ce-3ad24fd259f2",
        "meta": {
          "profile": [
            "http://hl7.eu/fhir/laboratory/StructureDefinition/Specimen-eu-lab"
          ]
        },
        "collection": {
          "collectedDateTime": "2024-02-11"
        },
        "text": {
          "status": "generated",
          "div": "<div xmlns=\"http://www.w3.org/1999/xhtml\"><table class=\"hl7__eu__lab__report\"><tr><th>Specimen</th><th>Collection Date</th></tr><tr><td>Acellular blood (serum or plasma) specimen</td><td><span class=\"nb\">11-Feb-2024</span></td></tr></table></div>"
        },
        "type": {
          "coding": [
            {
              "code": "122592007",
              "system": "http://snomed.info/sct",
              "display": "Acellular blood (serum or plasma) specimen"
            }
          ]
        }
      }
    },
    {
      "fullUrl": "urn:uuid:ccefdbe3-bbb9-4351-8c31-d104ef8f90c3",
      "resource": {
        "resourceType": "Observation",
        "id": "ccefdbe3-bbb9-4351-8c31-d104ef8f90c3",
        "meta": {
          "profile": [
            "http://hl7.eu/fhir/laboratory/StructureDefinition/Observation-resultslab-eu-lab"
          ]
        },
        "performer": [
          {
            "display": "The Central European Lab"
          }
        ],
        "category": [
          {
            "coding": [
              {
                "system": "http://terminology.hl7.org/CodeSystem/observation-category",
                "code": "laboratory"
              }
            ]
          }
        ],
        "code": {
          "coding": [
            {
              "code": "2093-3",
              "system": "http://loinc.org",
              "display": "Cholesterol [Mass/volume] in Serum or Plasma"
            }
          ],
          "text": "Cholesterol [Mass/volume] in Serum or Plasma"
        },
        "valueQuantity": {
          "system": "http://unitsofmeasure.org",
          "value": 183,
          "unit": "mg/dL",
          "code": "mg/dL"
        },
        "referenceRange": [
          {
            "low": {
              "value": 125,
              "code": "mg/dL",
              "system": "http://unitsofmeasure.org"
            }
          },
          {
            "high": {
              "value": 200,
              "code": "mg/dL",
              "system": "http://unitsofmeasure.org"
            }
          }
        ],
        "text": {
          "status": "generated",
          "div": "<div xmlns=\"http://www.w3.org/1999/xhtml\"><table class=\"hl7__eu__lab__report\"><tr><th>Test</th><th>11-Feb-2024</th><th>Reference&#xA0;Range</th><th>Unit</th></tr><tr><td>Cholesterol [Mass/volume] in Serum or Plasma</td><td>183.0</td><td>125 - 200</td><td></td><td>mg/dL</td></tr></table></div>"
        },
        "status": "final",
        "subject": {
          "reference": "urn:uuid:c074ec22-f17e-44c9-a323-d3676e86b6ee",
          "display": "Gülsen Dörschner"
        },
        "effectiveDateTime": "2024-02-11T21:09:08Z",
        "specimen": {
          "reference": "urn:uuid:b6a605d9-6062-40c4-92ce-3ad24fd259f2"
        }
      }
    },
    {
      "fullUrl": "urn:uuid:ce02082d-a7c2-45e2-b587-b17f180e1ab8",
      "resource": {
        "resourceType": "Observation",
        "id": "ce02082d-a7c2-45e2-b587-b17f180e1ab8",
        "meta": {
          "profile": [
            "http://hl7.eu/fhir/laboratory/StructureDefinition/Observation-resultslab-eu-lab"
          ]
        },
        "performer": [
          {
            "display": "The Central European Lab"
          }
        ],
        "category": [
          {
            "coding": [
              {
                "system": "http://terminology.hl7.org/CodeSystem/observation-category",
                "code": "laboratory"
              }
            ]
          }
        ],
        "code": {
          "coding": [
            {
              "code": "2571-8",
              "system": "http://loinc.org",
              "display": "Triglyceride [Mass/volume] in Serum or Plasma"
            }
          ],
          "text": "Triglyceride [Mass/volume] in Serum or Plasma"
        },
        "valueQuantity": {
          "system": "http://unitsofmeasure.org",
          "value": 133.5,
          "unit": "mg/dL",
          "code": "mg/dL"
        },
        "referenceRange": [
          {
            "low": {
              "value": 35,
              "code": "mg/dL",
              "system": "http://unitsofmeasure.org"
            }
          },
          {
            "high": {
              "value": 150,
              "code": "mg/dL",
              "system": "http://unitsofmeasure.org"
            }
          }
        ],
        "text": {
          "status": "generated",
          "div": "<div xmlns=\"http://www.w3.org/1999/xhtml\"><table class=\"hl7__eu__lab__report\"><tr><th>Test</th><th>11-Feb-2024</th><th>Reference&#xA0;Range</th><th>Unit</th></tr><tr><td>Triglyceride [Mass/volume] in Serum or Plasma</td><td>133.5</td><td>35 - 150</td><td></td><td>mg/dL</td></tr></table></div>"
        },
        "status": "final",
        "subject": {
          "reference": "urn:uuid:c074ec22-f17e-44c9-a323-d3676e86b6ee",
          "display": "Gülsen Dörschner"
        },
        "effectiveDateTime": "2024-02-11T21:09:08Z",
        "specimen": {
          "reference": "urn:uuid:b6a605d9-6062-40c4-92ce-3ad24fd259f2"
        }
      }
    },
    {
      "fullUrl": "urn:uuid:4216de18-146d-44a0-a935-d1f00de95b3b",
      "resource": {
        "resourceType": "Observation",
        "id": "4216de18-146d-44a0-a935-d1f00de95b3b",
        "meta": {
          "profile": [
            "http://hl7.eu/fhir/laboratory/StructureDefinition/Observation-resultslab-eu-lab"
          ]
        },
        "performer": [
          {
            "display": "The Central European Lab"
          }
        ],
        "category": [
          {
            "coding": [
              {
                "system": "http://terminology.hl7.org/CodeSystem/observation-category",
                "code": "laboratory"
              }
            ]
          }
        ],
        "code": {
          "coding": [
            {
              "code": "18262-6",
              "system": "http://loinc.org",
              "display": "Cholesterol in LDL [Mass/volume] in Serum or Plasma by Direct assay"
            }
          ],
          "text": "Cholesterol in LDL [Mass/volume] in Serum or Plasma by Direct assay"
        },
        "valueQuantity": {
          "system": "http://unitsofmeasure.org",
          "value": 92.8,
          "unit": "mg/dL",
          "code": "mg/dL"
        },
        "referenceRange": [
          {
            "low": {
              "value": 0,
              "code": "mg/dL",
              "system": "http://unitsofmeasure.org"
            }
          },
          {
            "high": {
              "value": 130,
              "code": "mg/dL",
              "system": "http://unitsofmeasure.org"
            }
          }
        ],
        "text": {
          "status": "generated",
          "div": "<div xmlns=\"http://www.w3.org/1999/xhtml\"><table class=\"hl7__eu__lab__report\"><tr><th>Test</th><th>11-Feb-2024</th><th>Reference&#xA0;Range</th><th>Unit</th></tr><tr><td>Cholesterol in LDL [Mass/volume] in Serum or Plasma by Direct assay</td><td>92.8</td><td>0 - 130</td><td></td><td>mg/dL</td></tr></table></div>"
        },
        "status": "final",
        "subject": {
          "reference": "urn:uuid:c074ec22-f17e-44c9-a323-d3676e86b6ee",
          "display": "Gülsen Dörschner"
        },
        "effectiveDateTime": "2024-02-11T21:09:08Z",
        "specimen": {
          "reference": "urn:uuid:b6a605d9-6062-40c4-92ce-3ad24fd259f2"
        }
      }
    },
    {
      "fullUrl": "urn:uuid:b8974d64-32a9-4fef-a912-bef347270395",
      "resource": {
        "resourceType": "Observation",
        "id": "b8974d64-32a9-4fef-a912-bef347270395",
        "meta": {
          "profile": [
            "http://hl7.eu/fhir/laboratory/StructureDefinition/Observation-resultslab-eu-lab"
          ]
        },
        "performer": [
          {
            "display": "The Central European Lab"
          }
        ],
        "category": [
          {
            "coding": [
              {
                "system": "http://terminology.hl7.org/CodeSystem/observation-category",
                "code": "laboratory"
              }
            ]
          }
        ],
        "code": {
          "coding": [
            {
              "code": "2085-9",
              "system": "http://loinc.org",
              "display": "Cholesterol in HDL [Mass/volume] in Serum or Plasma"
            }
          ],
          "text": "Cholesterol in HDL [Mass/volume] in Serum or Plasma"
        },
        "valueQuantity": {
          "system": "http://unitsofmeasure.org",
          "value": 63.5,
          "unit": "mg/dL",
          "code": "mg/dL"
        },
        "referenceRange": [
          {
            "low": {
              "value": 40,
              "code": "mg/dL",
              "system": "http://unitsofmeasure.org"
            }
          },
          {
            "high": {
              "value": 100,
              "code": "mg/dL",
              "system": "http://unitsofmeasure.org"
            }
          }
        ],
        "text": {
          "status": "generated",
          "div": "<div xmlns=\"http://www.w3.org/1999/xhtml\"><table class=\"hl7__eu__lab__report\"><tr><th>Test</th><th>11-Feb-2024</th><th>Reference&#xA0;Range</th><th>Unit</th></tr><tr><td>Cholesterol in HDL [Mass/volume] in Serum or Plasma</td><td>63.5</td><td>40 - 100</td><td></td><td>mg/dL</td></tr></table></div>"
        },
        "status": "final",
        "subject": {
          "reference": "urn:uuid:c074ec22-f17e-44c9-a323-d3676e86b6ee",
          "display": "Gülsen Dörschner"
        },
        "effectiveDateTime": "2024-02-11T21:09:08Z",
        "specimen": {
          "reference": "urn:uuid:b6a605d9-6062-40c4-92ce-3ad24fd259f2"
        }
      }
    },
    {
      "fullUrl": "urn:uuid:bfee2dba-5b90-4fec-acc4-cd3d905845e9",
      "resource": {
        "resourceType": "Device",
        "id": "bfee2dba-5b90-4fec-acc4-cd3d905845e9",
        "deviceName": [
          {
            "name": "SYNDERAI Synthetic Generator",
            "type": "manufacturer-name"
          }
        ],
        "version": [
          {
            "value": "5.0"
          }
        ],
        "text": {
          "status": "generated",
          "div": "<div xmlns=\"http://www.w3.org/1999/xhtml\">SYNDERAI Synthetic Generator v5.0</div>"
        },
        "status": "active\"",
        "distinctIdentifier": "synderai-generator-50",
        "manufacturer": "SYNDERAI Project"
      }
    },
    {
      "fullUrl": "urn:uuid:c44d15de-bc12-40a2-b3e9-a34306f6593a",
      "resource": {
        "resourceType": "Provenance",
        "id": "c44d15de-bc12-40a2-b3e9-a34306f6593a",
        "target": [
          {
            "reference": "Patient/c074ec22-f17e-44c9-a323-d3676e86b6ee"
          },
          {
            "reference": "Bundle/29f2afee-7aa4-4e25-b87a-5302a75fa2a3"
          },
          {
            "reference": "Composition/a0af4235-f38e-4b19-b15c-21f500f8c970"
          },
          {
            "reference": "PractitionerRole/1238bf51-c9e6-47f7-bb2a-426adb2e75b7"
          },
          {
            "reference": "Practitioner/b4f9fc5c-44a8-4382-a141-bf1da66b11c0"
          },
          {
            "reference": "PractitionerRole/81f23502-e471-44f4-ab06-52b0157cf84b"
          },
          {
            "reference": "Organization/6ce5ccf8-3443-4d67-a1ca-24d331709222"
          }
        ],
        "activity": {
          "text": "Synthetic Example Data Generation"
        },
        "policy": [
          "https://synderai.net/synderai-synthetic-data-policy"
        ],
        "agent": [
          {
            "type": {
              "text": "author"
            },
            "who": {
              "reference": "Device/bfee2dba-5b90-4fec-acc4-cd3d905845e9"
            }
          }
        ],
        "reason": [
          {
            "text": "Interoperability Testing and Training (non-clinical use)"
          }
        ],
        "text": {
          "status": "generated",
          "div": "<div xmlns=\"http://www.w3.org/1999/xhtml\">Provenance for SYNDERAI Synthetic Example Data Resource</div>"
        },
        "recorded": "2024-02-11T22:09:08Z"
      }
    },
    {
      "fullUrl": "urn:uuid:1238bf51-c9e6-47f7-bb2a-426adb2e75b7",
      "resource": {
        "resourceType": "PractitionerRole",
        "id": "1238bf51-c9e6-47f7-bb2a-426adb2e75b7",
        "meta": {
          "profile": [
            "http://hl7.eu/fhir/base/StructureDefinition/practitionerRole-eu"
          ]
        },
        "text": {
          "status": "generated",
          "div": "<div xmlns=\"http://www.w3.org/1999/xhtml\">Laboratory Role Id: 1238bf51-c9e6-47f7-bb2a-426adb2e75b7</div>"
        },
        "practitioner": {
          "reference": "urn:uuid:b4f9fc5c-44a8-4382-a141-bf1da66b11c0"
        }
      }
    },
    {
      "fullUrl": "urn:uuid:b4f9fc5c-44a8-4382-a141-bf1da66b11c0",
      "resource": {
        "resourceType": "Practitioner",
        "id": "b4f9fc5c-44a8-4382-a141-bf1da66b11c0",
        "meta": {
          "profile": [
            "http://hl7.eu/fhir/base/StructureDefinition/practitioner-eu"
          ]
        },
        "identifier": [
          {
            "assigner": {
              "display": "HL7 Europe"
            },
            "system": "urn:oid:2.16.840.1.113883.2.51.999",
            "value": "17d46386-596c-43ef-9fc3-193e68384071"
          }
        ],
        "name": [
          {
            "prefix": [
              "dr"
            ],
            "given": [
              "Ex"
            ],
            "family": "Ample"
          }
        ],
        "address": [
          {
            "line": [
              "Laboratoire Central Européenne",
              "Boulevard du Jardin Botanique 32"
            ],
            "postalCode": "1000",
            "city": "Brussels",
            "country": "Belgium"
          }
        ],
        "text": {
          "status": "generated",
          "div": "<div xmlns=\"http://www.w3.org/1999/xhtml\">Laboratory: Laboratoire Central Européenne, 1000 Brussels, Belgium</div>"
        }
      }
    }
  ],
  "type": "document",
  "timestamp": "2024-02-11T22:09:08Z"
}
