{
  "resourceType": "Bundle",
  "id": "fb8ca1ad-2aaf-4dfe-9f6d-f6a49b02a5c8",
  "meta": {
    "profile": [
      "http://hl7.eu/fhir/laboratory/StructureDefinition/Bundle-eu-lab"
    ]
  },
  "identifier": {
    "assigner": {
      "display": "HL7 Europe"
    },
    "system": "urn:oid:2.16.840.1.113883.2.51.999",
    "value": "26b2eb38-281a-49e6-9488-e12a14fc2206"
  },
  "entry": [
    {
      "fullUrl": "urn:uuid:58539611-0795-4e84-aebb-914341405479",
      "resource": {
        "resourceType": "Composition",
        "id": "58539611-0795-4e84-aebb-914341405479",
        "meta": {
          "profile": [
            "http://hl7.eu/fhir/laboratory/StructureDefinition/Composition-eu-lab"
          ]
        },
        "identifier": {
          "assigner": {
            "display": "HL7 Europe"
          },
          "system": "urn:oid:2.16.840.1.113883.2.51.999",
          "value": "aa959124-5829-4d23-825e-d6c096416480"
        },
        "author": [
          {
            "reference": "urn:uuid:a5fbe977-bd2c-4bd5-91e6-b5ba330107d9"
          }
        ],
        "category": [
          {
            "coding": [
              {
                "code": "26436-6",
                "system": "http://loinc.org",
                "display": "Laboratory studies (set)"
              }
            ]
          }
        ],
        "type": {
          "coding": [
            {
              "code": "11502-2",
              "system": "http://loinc.org",
              "display": "Laboratory report"
            }
          ],
          "text": "Laboratory Report"
        },
        "section": [
          {
            "code": {
              "coding": [
                {
                  "code": "26436-6",
                  "system": "http://loinc.org",
                  "display": "Laboratory studies (set)"
                }
              ],
              "text": "Laboratory studies"
            },
            "section": [
              {
                "code": {
                  "coding": [
                    {
                      "code": "$18719-5",
                      "system": "http://loinc.org",
                      "display": "Chemistry studies (set)"
                    }
                  ],
                  "text": "Chemistry"
                },
                "entry": [
                  {
                    "reference": "urn:uuid:bbf792e6-47e8-4972-ab39-6f38f44cfac5"
                  },
                  {
                    "reference": "urn:uuid:a3628f21-c72b-4bd8-9f4b-cd3defdef2e1"
                  },
                  {
                    "reference": "urn:uuid:fd2f6798-6b7e-4265-b057-6f8f14f93f5c"
                  },
                  {
                    "reference": "urn:uuid:37789fd6-6f89-4dff-a091-abcadbb7b13b"
                  },
                  {
                    "reference": "urn:uuid:76fb7c4c-c10e-4b9b-a4d6-76f3c06353b5"
                  },
                  {
                    "reference": "urn:uuid:a08d5a72-eca5-4cff-9c98-082aaf08d8d1"
                  },
                  {
                    "reference": "urn:uuid:05e32b0e-d53d-4370-9e54-7db3c0b23f43"
                  },
                  {
                    "reference": "urn:uuid:376f2d9c-2cca-40b6-a355-bb5d3949c481"
                  },
                  {
                    "reference": "urn:uuid:6189e383-dcc8-48fa-b520-eb2055c1a026"
                  },
                  {
                    "reference": "urn:uuid:bc6b3baf-c401-4fd7-88df-22249cb826ba"
                  },
                  {
                    "reference": "urn:uuid:8fee0b9f-24a7-4704-a6c7-6e2a91885ea7"
                  },
                  {
                    "reference": "urn:uuid:0107e372-805f-4257-a4e4-b6e4a94694f9"
                  },
                  {
                    "reference": "urn:uuid:06c7d62a-b0d9-44dc-9b74-bfdf5e9434af"
                  },
                  {
                    "reference": "urn:uuid:5aaac47d-a2f6-4459-81fd-074f6ef8a6ed"
                  },
                  {
                    "reference": "urn:uuid:68917425-dffd-43f4-9707-70d028c5c740"
                  },
                  {
                    "reference": "urn:uuid:4bac2e82-dfd9-4d33-b3d3-0bc2901c34cd"
                  },
                  {
                    "reference": "urn:uuid:27e3691d-fb2a-47af-a14e-899832be478c"
                  },
                  {
                    "reference": "urn:uuid:c22aa1a5-8c3c-4d62-8df7-b76d86d1d340"
                  }
                ],
                "text": {
                  "status": "generated",
                  "div": "<div xmlns=\"http://www.w3.org/1999/xhtml\"><h3>Chemistry</h3><table class=\"hl7__eu__lab__report\"><thead><tr><th>Test</th><th>13-DEC-2023</th><th>Reference&#xA0;Range</th><th>Unit</th></tr></thead><tbody><tr><td>Glucose [Mass/volume] in Serum or Plasma</td><td>92.6</td><td>70 - 140</td><td>mg/dL</td></tr><tr><td>Urea nitrogen [Mass/volume] in Serum or Plasma</td><td>9.8</td><td>7 - 20</td><td>mg/dL</td></tr><tr><td>Creatinine [Mass/volume] in Serum or Plasma</td><td><strong>2.0 H</strong></td><td>0.9 - 1.3</td><td>mg/dL</td></tr><tr><td>Calcium [Mass/volume] in Serum or Plasma</td><td>8.8</td><td>8.5 - 10.5</td><td>mg/dL</td></tr><tr><td>Sodium [Moles/volume] in Serum or Plasma</td><td>136.4</td><td>135 - 145</td><td>mmol/L</td></tr><tr><td>Potassium [Moles/volume] in Serum or Plasma</td><td>4.5</td><td>3.5 - 5</td><td>mmol/L</td></tr><tr><td>Chloride [Moles/volume] in Serum or Plasma</td><td><strong>109.8 H</strong></td><td>98 - 108</td><td>mmol/L</td></tr><tr><td>Carbon dioxide, total [Moles/volume] in Serum or Plasma</td><td>27.8</td><td>22 - 29</td><td>mmol/L</td></tr><tr><td>Ketones [Presence] in Urine by Test strip</td><td>Urine ketone test = ++</td><td></td><td></td></tr><tr><td>Hemoglobin A1c/Hemoglobin.total in Blood</td><td><strong>3.2 L</strong></td><td>4.3 - 6.4</td><td>%</td></tr><tr><td>Glucose [Mass/volume] in Blood</td><td>92.6</td><td>70 - 140</td><td>mg/dL</td></tr><tr><td>Urea nitrogen [Mass/volume] in Blood</td><td>9.8</td><td>7 - 20</td><td>mg/dL</td></tr><tr><td>Creatinine [Mass/volume] in Blood</td><td><strong>7.0 H</strong></td><td>0.6 - 1.3</td><td>mg/dL</td></tr><tr><td>Calcium [Mass/volume] in Blood</td><td>8.8</td><td>8.5 - 10.5</td><td>mg/dL</td></tr><tr><td>Sodium [Moles/volume] in Blood</td><td>136.4</td><td>135 - 145</td><td>mmol/L</td></tr><tr><td>Potassium [Moles/volume] in Blood</td><td>4.5</td><td>3.5 - 5.3</td><td>mmol/L</td></tr><tr><td>Chloride [Moles/volume] in Blood</td><td>109.8</td><td>98 - 110</td><td>mmol/L</td></tr><tr><td>Carbon dioxide, total [Moles/volume] in Blood</td><td>27.8</td><td>22 - 29</td><td>mmol/L</td></tr></tbody></table></div>"
                },
                "title": "Chemistry"
              },
              {
                "code": {
                  "coding": [
                    {
                      "code": "$18729-4",
                      "system": "http://loinc.org",
                      "display": "Urinalysis studies (set)"
                    }
                  ],
                  "text": "Urinalysis"
                },
                "entry": [
                  {
                    "reference": "urn:uuid:0397e648-4488-4475-b2e9-bcc5eebc4f0a"
                  },
                  {
                    "reference": "urn:uuid:9728fcc4-daa2-4260-812e-17944fc4ed56"
                  },
                  {
                    "reference": "urn:uuid:8f693dbf-aef2-465f-9cd7-3a0dbabf0206"
                  },
                  {
                    "reference": "urn:uuid:de983529-9b5e-4754-b70b-d3ebce880979"
                  },
                  {
                    "reference": "urn:uuid:0f2aac1c-2369-4f5c-86fb-db7f3cb0975f"
                  },
                  {
                    "reference": "urn:uuid:aa4c2c74-c3a4-49d6-a3b0-c83e51835ff6"
                  },
                  {
                    "reference": "urn:uuid:68ee4016-0f04-4e54-a9ee-c2e4a016422f"
                  },
                  {
                    "reference": "urn:uuid:4e41dcd9-3a29-40f3-a43b-dc634943cf4b"
                  },
                  {
                    "reference": "urn:uuid:e6975afd-8b6c-432d-8b7c-e8adae950991"
                  },
                  {
                    "reference": "urn:uuid:f77152ec-0193-4791-ba3f-d94a4a07ea61"
                  },
                  {
                    "reference": "urn:uuid:168dcf37-de01-4efa-8833-b34dcb8abbc9"
                  },
                  {
                    "reference": "urn:uuid:90640117-2312-4068-968d-e35f7d8cf35c"
                  }
                ],
                "text": {
                  "status": "generated",
                  "div": "<div xmlns=\"http://www.w3.org/1999/xhtml\"><h3>Urinalysis</h3><table class=\"hl7__eu__lab__report\"><thead><tr><th>Test</th><th>13-DEC-2023</th><th>Reference&#xA0;Range</th><th>Unit</th></tr></thead><tbody><tr><td>Glucose [Mass/volume] in Urine by Test strip</td><td><strong>1.7 H</strong></td><td>0 - 0.8</td><td>mg/dL</td></tr><tr><td>Glucose [Presence] in Urine by Test strip</td><td>++</td><td></td><td></td></tr><tr><td>Bilirubin.total [Mass/volume] in Urine by Test strip</td><td><strong>1.2 H</strong></td><td>0.2 - 1</td><td>mg/dL</td></tr><tr><td>Bilirubin.total [Presence] in Urine by Test strip</td><td>Finding of bilirubin in urine</td><td></td><td></td></tr><tr><td>Ketones [Mass/volume] in Urine by Test strip</td><td><strong>12.2 H</strong></td><td>0 - 5</td><td>mg/dL</td></tr><tr><td>Specific gravity of Urine by Test strip</td><td><strong>1.0 L</strong></td><td>1.005 - 1.03</td><td>{nominal}</td></tr><tr><td>pH of Urine by Test strip</td><td>6.9</td><td>4.6 - 7</td><td>pH</td></tr><tr><td>Protein [Mass/volume] in Urine by Test strip</td><td><strong>351.0 H</strong></td><td>0 - 150</td><td>mg/dL</td></tr><tr><td>Protein [Presence] in Urine by Test strip</td><td>Urine protein test = ++</td><td></td><td></td></tr><tr><td>Nitrite [Presence] in Urine by Test strip</td><td>Urine nitrite negative</td><td></td><td></td></tr><tr><td>Hemoglobin [Presence] in Urine by Test strip</td><td>Urine blood test = negative</td><td></td><td></td></tr><tr><td>Leukocyte esterase [Presence] in Urine by Test strip</td><td>Urine leukocyte test negative</td><td></td><td></td></tr></tbody></table></div>"
                },
                "title": "Urinalysis"
              },
              {
                "code": {
                  "coding": [
                    {
                      "code": "$LP7846-1",
                      "system": "http://loinc.org",
                      "display": "Specimen information"
                    }
                  ],
                  "text": "Specimen information"
                },
                "entry": [
                  {
                    "reference": "urn:uuid:89ac6ad6-da00-4576-8cce-07908e5b0d28"
                  },
                  {
                    "reference": "urn:uuid:382e5e46-5647-4261-bea4-288eeacbbbc0"
                  },
                  {
                    "reference": "urn:uuid:18334961-0154-4222-a7a8-9f97f3ccfe15"
                  },
                  {
                    "reference": "urn:uuid:d76693e3-b20f-42c7-a5a5-e6e9fe700a6f"
                  }
                ],
                "text": {
                  "status": "generated",
                  "div": "<div xmlns=\"http://www.w3.org/1999/xhtml\"><h3>Specimen information</h3><table class=\"hl7__eu__lab__report\"><thead><tr><th>Test</th><th>13-DEC-2023</th><th>Specimen</th><th></th></tr></thead><tbody><tr><td>Appearance of Urine</td><td>Cloudy urine</td><td>Urine</td><td></td></tr><tr><td>Odor of Urine</td><td>Urine smell ammoniacal</td><td>Urine</td><td></td></tr><tr><td>Clarity of Urine</td><td>Translucent</td><td>Urine</td><td></td></tr><tr><td>Color of Urine</td><td>Brown color</td><td>Urine</td><td></td></tr></tbody></table></div>"
                },
                "title": "Specimen information"
              }
            ],
            "title": "Laboratory Report"
          },
          {
            "text": {
              "status": "generated",
              "div": "<div xmlns=\"http://www.w3.org/1999/xhtml\"><h3>Annotation</h3><table class=\"hl7__eu__lab__report\"><tr><th>Conclusion and Recommendations based on this report and previous findings known to us</th></tr><tr><td>The patient shows markedly elevated creatinine, proteinuria, glucosuria, ketonuria, and bilirubinuria, with low urine specific gravity and abnormal urine appearance, suggesting significant renal dysfunction, possibly acute or chronic kidney disease with impaired concentrating ability. The low HbA1c with normal serum glucose and high urine glucose/ketones may indicate recent onset or fluctuating hyperglycemia. Further nephrological and diabetic evaluation is recommended. No evidence of urinary tract infection. Prompt clinical correlation and follow-up are advised.</td></tr></table></div>"
            },
            "code": {
              "coding": [
                {
                  "system": "http://loinc.org",
                  "code": "48767-8",
                  "display": "Annotation comment"
                }
              ]
            },
            "title": "Annotation comment"
          }
        ],
        "status": "final",
        "subject": {
          "reference": "urn:uuid:79baca73-4b82-44bf-a6eb-17ec6946d4c3",
          "display": "Θεμιστοκλής Λιναρδάκη"
        },
        "date": "2023-12-13T07:16:00Z",
        "title": "Laboratory Report",
        "confidentiality": "N"
      }
    },
    {
      "fullUrl": "urn:uuid:e2a6b8dc-f724-477c-ac52-dd2297e5212c",
      "resource": {
        "resourceType": "DiagnosticReport",
        "id": "e2a6b8dc-f724-477c-ac52-dd2297e5212c",
        "meta": {
          "profile": [
            "http://hl7.eu/fhir/laboratory/StructureDefinition/DiagnosticReport-eu-lab"
          ]
        },
        "identifier": [
          {
            "assigner": {
              "display": "HL7 Europe"
            },
            "system": "urn:oid:2.16.840.1.113883.2.51.999",
            "value": "57c7f1ec-3820-4af1-8d1b-20a52487aba1"
          }
        ],
        "extension": [
          {
            "url": "http://hl7.org/fhir/5.0/StructureDefinition/extension-DiagnosticReport.composition",
            "valueReference": {
              "reference": "urn:uuid:aa959124-5829-4d23-825e-d6c096416480"
            }
          }
        ],
        "category": [
          {
            "coding": [
              {
                "code": "26436-6",
                "system": "http://loinc.org",
                "display": "Laboratory studies (set)"
              }
            ]
          }
        ],
        "specimen": [
          {
            "reference": "urn:uuid:a5c67f09-8653-458e-b375-9ff1b2f12f5b"
          },
          {
            "reference": "urn:uuid:5d1ce6bf-0e2f-4071-9796-b5130965563d"
          },
          {
            "reference": "urn:uuid:0198cd86-9e74-46cc-bba8-1713863f250e"
          }
        ],
        "result": [
          {
            "reference": "urn:uuid:bbf792e6-47e8-4972-ab39-6f38f44cfac5"
          },
          {
            "reference": "urn:uuid:a3628f21-c72b-4bd8-9f4b-cd3defdef2e1"
          },
          {
            "reference": "urn:uuid:fd2f6798-6b7e-4265-b057-6f8f14f93f5c"
          },
          {
            "reference": "urn:uuid:37789fd6-6f89-4dff-a091-abcadbb7b13b"
          },
          {
            "reference": "urn:uuid:76fb7c4c-c10e-4b9b-a4d6-76f3c06353b5"
          },
          {
            "reference": "urn:uuid:a08d5a72-eca5-4cff-9c98-082aaf08d8d1"
          },
          {
            "reference": "urn:uuid:05e32b0e-d53d-4370-9e54-7db3c0b23f43"
          },
          {
            "reference": "urn:uuid:376f2d9c-2cca-40b6-a355-bb5d3949c481"
          },
          {
            "reference": "urn:uuid:89ac6ad6-da00-4576-8cce-07908e5b0d28"
          },
          {
            "reference": "urn:uuid:382e5e46-5647-4261-bea4-288eeacbbbc0"
          },
          {
            "reference": "urn:uuid:18334961-0154-4222-a7a8-9f97f3ccfe15"
          },
          {
            "reference": "urn:uuid:d76693e3-b20f-42c7-a5a5-e6e9fe700a6f"
          },
          {
            "reference": "urn:uuid:0397e648-4488-4475-b2e9-bcc5eebc4f0a"
          },
          {
            "reference": "urn:uuid:9728fcc4-daa2-4260-812e-17944fc4ed56"
          },
          {
            "reference": "urn:uuid:8f693dbf-aef2-465f-9cd7-3a0dbabf0206"
          },
          {
            "reference": "urn:uuid:de983529-9b5e-4754-b70b-d3ebce880979"
          },
          {
            "reference": "urn:uuid:0f2aac1c-2369-4f5c-86fb-db7f3cb0975f"
          },
          {
            "reference": "urn:uuid:6189e383-dcc8-48fa-b520-eb2055c1a026"
          },
          {
            "reference": "urn:uuid:aa4c2c74-c3a4-49d6-a3b0-c83e51835ff6"
          },
          {
            "reference": "urn:uuid:68ee4016-0f04-4e54-a9ee-c2e4a016422f"
          },
          {
            "reference": "urn:uuid:4e41dcd9-3a29-40f3-a43b-dc634943cf4b"
          },
          {
            "reference": "urn:uuid:e6975afd-8b6c-432d-8b7c-e8adae950991"
          },
          {
            "reference": "urn:uuid:f77152ec-0193-4791-ba3f-d94a4a07ea61"
          },
          {
            "reference": "urn:uuid:168dcf37-de01-4efa-8833-b34dcb8abbc9"
          },
          {
            "reference": "urn:uuid:90640117-2312-4068-968d-e35f7d8cf35c"
          },
          {
            "reference": "urn:uuid:bc6b3baf-c401-4fd7-88df-22249cb826ba"
          },
          {
            "reference": "urn:uuid:8fee0b9f-24a7-4704-a6c7-6e2a91885ea7"
          },
          {
            "reference": "urn:uuid:0107e372-805f-4257-a4e4-b6e4a94694f9"
          },
          {
            "reference": "urn:uuid:06c7d62a-b0d9-44dc-9b74-bfdf5e9434af"
          },
          {
            "reference": "urn:uuid:5aaac47d-a2f6-4459-81fd-074f6ef8a6ed"
          },
          {
            "reference": "urn:uuid:68917425-dffd-43f4-9707-70d028c5c740"
          },
          {
            "reference": "urn:uuid:4bac2e82-dfd9-4d33-b3d3-0bc2901c34cd"
          },
          {
            "reference": "urn:uuid:27e3691d-fb2a-47af-a14e-899832be478c"
          },
          {
            "reference": "urn:uuid:c22aa1a5-8c3c-4d62-8df7-b76d86d1d340"
          }
        ],
        "status": "registered",
        "code": {
          "coding": [
            {
              "code": "11502-2",
              "system": "http://loinc.org",
              "display": "Laboratory report"
            }
          ]
        },
        "subject": {
          "reference": "urn:uuid:79baca73-4b82-44bf-a6eb-17ec6946d4c3",
          "display": "Θεμιστοκλής Λιναρδάκη"
        }
      }
    },
    {
      "fullUrl": "urn:uuid:79baca73-4b82-44bf-a6eb-17ec6946d4c3",
      "resource": {
        "resourceType": "Patient",
        "id": "79baca73-4b82-44bf-a6eb-17ec6946d4c3",
        "meta": {
          "security": [
            {
              "system": "http://terminology.hl7.org/CodeSystem/v3-ActReason",
              "code": "HTEST"
            },
            {
              "system": "http://terminology.hl7.org/CodeSystem/v3-ActReason",
              "code": "TRAIN"
            }
          ],
          "tag": [
            {
              "system": "https://synderai.net/fhir/CodeSystem/tags",
              "code": "synthetic",
              "display": "SYNDERAI Synthetic data"
            }
          ],
          "profile": [
            "http://hl7.eu/fhir/base/StructureDefinition/patient-eu-core"
          ]
        },
        "identifier": [
          {
            "type": {
              "coding": [
                {
                  "code": "PT",
                  "system": "http://terminology.hl7.org/CodeSystem/v2-0203"
                }
              ]
            },
            "system": "http://ec.europa.eu/identifier/eci",
            "value": "5962-476889-7"
          },
          {
            "type": {
              "coding": [
                {
                  "code": "MR",
                  "system": "http://terminology.hl7.org/CodeSystem/v2-0203"
                }
              ]
            },
            "system": "http://local.setting.eu/identifier",
            "value": "925e2603-2ef9-6bdf-1330-2ebf526636c4"
          }
        ],
        "name": [
          {
            "family": "Λιναρδάκη"
          },
          {
            "given": [
              "Θεμιστοκλής"
            ]
          },
          {
            "text": "Θεμιστοκλής Λιναρδάκη"
          }
        ],
        "address": [
          {
            "line": [
              "Αμαρύνθου 54-58"
            ],
            "use": "home",
            "type": "physical",
            "postalCode": "262 21",
            "city": "Πάτρα",
            "country": "Greece"
          }
        ],
        "telecom": [
          {
            "system": "phone",
            "value": "+302226364480"
          }
        ],
        "extension": [
          {
            "url": "http://hl7.org/fhir/StructureDefinition/patient-nationality",
            "valueCodeableConcept": {
              "coding": [
                {
                  "code": "GR",
                  "system": "http://hl7.org/fhir/ValueSet/country"
                }
              ]
            }
          }
        ],
        "text": {
          "status": "generated",
          "div": "<div xmlns=\"http://www.w3.org/1999/xhtml\"><table class=\"hl7__ips\"><tr><td>Θεμιστοκλής Λιναρδάκη</td><td>male</td><td>21-Jan-1974</td></tr></table></div>"
        },
        "gender": "male",
        "birthDate": "1974-01-21"
      }
    },
    {
      "fullUrl": "urn:uuid:5730c985-eed7-4b9f-93e5-7cbc821f62b8",
      "resource": {
        "resourceType": "ServiceRequest",
        "id": "5730c985-eed7-4b9f-93e5-7cbc821f62b8",
        "meta": {
          "profile": [
            "http://hl7.eu/fhir/laboratory/StructureDefinition/ServiceRequest-eu-lab"
          ]
        },
        "identifier": [
          {
            "system": "http://example.org",
            "value": "67595b79-62e1-460a-9b57-c215c18b4b39"
          }
        ],
        "specimen": [
          {
            "reference": "urn:uuid:a5c67f09-8653-458e-b375-9ff1b2f12f5b"
          },
          {
            "reference": "urn:uuid:5d1ce6bf-0e2f-4071-9796-b5130965563d"
          },
          {
            "reference": "urn:uuid:0198cd86-9e74-46cc-bba8-1713863f250e"
          }
        ],
        "reasonCode": [
          {
            "coding": [
              {
                "code": "237602007",
                "system": "http://snomed.info/sct",
                "display": "Metabolic syndrome X"
              }
            ]
          },
          {
            "coding": [
              {
                "code": "433144002",
                "system": "http://snomed.info/sct",
                "display": "Chronic kidney disease stage 3"
              }
            ]
          },
          {
            "coding": [
              {
                "code": "157141000119108",
                "system": "http://snomed.info/sct",
                "display": "Proteinuria due to type 2 diabetes mellitus"
              }
            ]
          },
          {
            "coding": [
              {
                "code": "431856006",
                "system": "http://snomed.info/sct",
                "display": "Chronic kidney disease stage 2"
              }
            ]
          },
          {
            "coding": [
              {
                "code": "90781000119102",
                "system": "http://snomed.info/sct",
                "display": "Microalbuminuria due to type 2 diabetes mellitus"
              }
            ]
          },
          {
            "coding": [
              {
                "code": "127013003",
                "system": "http://snomed.info/sct",
                "display": "Disorder of kidney due to diabetes mellitus"
              }
            ]
          },
          {
            "coding": [
              {
                "code": "431855005",
                "system": "http://snomed.info/sct",
                "display": "Chronic kidney disease stage 1"
              }
            ]
          },
          {
            "coding": [
              {
                "code": "59621000",
                "system": "http://snomed.info/sct",
                "display": "Essential hypertension"
              }
            ]
          },
          {
            "coding": [
              {
                "code": "15777000",
                "system": "http://snomed.info/sct",
                "display": "Prediabetes"
              }
            ]
          },
          {
            "coding": [
              {
                "code": "271737000",
                "system": "http://snomed.info/sct",
                "display": "Anemia"
              }
            ]
          }
        ],
        "status": "active",
        "intent": "order",
        "code": {
          "coding": [
            {
              "code": "108252007",
              "system": "http://snomed.info/sct",
              "display": "Laboratory procedure"
            }
          ]
        },
        "subject": {
          "reference": "urn:uuid:79baca73-4b82-44bf-a6eb-17ec6946d4c3",
          "display": "Θεμιστοκλής Λιναρδάκη"
        },
        "requester": {
          "reference": "urn:uuid:6527f04a-919d-474a-8828-4dd278013221"
        }
      }
    },
    {
      "fullUrl": "urn:uuid:6527f04a-919d-474a-8828-4dd278013221",
      "resource": {
        "resourceType": "PractitionerRole",
        "id": "6527f04a-919d-474a-8828-4dd278013221",
        "meta": {
          "profile": [
            "http://hl7.eu/fhir/base/StructureDefinition/practitionerRole-eu"
          ]
        },
        "text": {
          "status": "generated",
          "div": "<div xmlns=\"http://www.w3.org/1999/xhtml\">Provider Role Id: 6527f04a-919d-474a-8828-4dd278013221</div>"
        },
        "organization": {
          "reference": "urn:uuid:250631d9-b47b-4474-a555-7c201e531109"
        }
      }
    },
    {
      "fullUrl": "urn:uuid:250631d9-b47b-4474-a555-7c201e531109",
      "resource": {
        "resourceType": "Organization",
        "id": "250631d9-b47b-4474-a555-7c201e531109",
        "meta": {
          "profile": [
            "http://hl7.eu/fhir/base/StructureDefinition/organization-eu"
          ]
        },
        "identifier": [
          {
            "assigner": {
              "display": "HL7 Europe"
            },
            "system": "urn:oid:2.16.840.1.113883.2.51.999",
            "value": "29079a11-c464-47bd-9d49-5b7cedf83a54"
          }
        ],
        "address": [
          {
            "line": [
              "211 Odós Filellinon"
            ],
            "city": "Patras",
            "postalCode": "262 21",
            "country": "Greece"
          }
        ],
        "text": {
          "status": "generated",
          "div": "<div xmlns=\"http://www.w3.org/1999/xhtml\">Provider Organization: Dr. Dimitris Economou</div>"
        },
        "name": "Dr. Dimitris Economou"
      }
    },
    {
      "fullUrl": "urn:uuid:a5c67f09-8653-458e-b375-9ff1b2f12f5b",
      "resource": {
        "resourceType": "Specimen",
        "id": "a5c67f09-8653-458e-b375-9ff1b2f12f5b",
        "meta": {
          "profile": [
            "http://hl7.eu/fhir/laboratory/StructureDefinition/Specimen-eu-lab"
          ]
        },
        "collection": {
          "collectedDateTime": "2023-12-13"
        },
        "text": {
          "status": "generated",
          "div": "<div xmlns=\"http://www.w3.org/1999/xhtml\"><table class=\"hl7__eu__lab__report\"><tr><th>Specimen</th><th>Collection Date</th></tr><tr><td>Acellular blood (serum or plasma) specimen</td><td><span class=\"nb\">13-Dec-2023</span></td></tr></table></div>"
        },
        "type": {
          "coding": [
            {
              "code": "122592007",
              "system": "http://snomed.info/sct",
              "display": "Acellular blood (serum or plasma) specimen"
            }
          ]
        }
      }
    },
    {
      "fullUrl": "urn:uuid:5d1ce6bf-0e2f-4071-9796-b5130965563d",
      "resource": {
        "resourceType": "Specimen",
        "id": "5d1ce6bf-0e2f-4071-9796-b5130965563d",
        "meta": {
          "profile": [
            "http://hl7.eu/fhir/laboratory/StructureDefinition/Specimen-eu-lab"
          ]
        },
        "collection": {
          "collectedDateTime": "2023-12-13"
        },
        "text": {
          "status": "generated",
          "div": "<div xmlns=\"http://www.w3.org/1999/xhtml\"><table class=\"hl7__eu__lab__report\"><tr><th>Specimen</th><th>Collection Date</th></tr><tr><td>Urine specimen</td><td><span class=\"nb\">13-Dec-2023</span></td></tr></table></div>"
        },
        "type": {
          "coding": [
            {
              "code": "122575003",
              "system": "http://snomed.info/sct",
              "display": "Urine specimen"
            }
          ]
        }
      }
    },
    {
      "fullUrl": "urn:uuid:0198cd86-9e74-46cc-bba8-1713863f250e",
      "resource": {
        "resourceType": "Specimen",
        "id": "0198cd86-9e74-46cc-bba8-1713863f250e",
        "meta": {
          "profile": [
            "http://hl7.eu/fhir/laboratory/StructureDefinition/Specimen-eu-lab"
          ]
        },
        "collection": {
          "collectedDateTime": "2023-12-13"
        },
        "text": {
          "status": "generated",
          "div": "<div xmlns=\"http://www.w3.org/1999/xhtml\"><table class=\"hl7__eu__lab__report\"><tr><th>Specimen</th><th>Collection Date</th></tr><tr><td>Whole blood specimen (specimen)</td><td><span class=\"nb\">13-Dec-2023</span></td></tr></table></div>"
        },
        "type": {
          "coding": [
            {
              "code": "258580003",
              "system": "http://snomed.info/sct",
              "display": "Whole blood specimen (specimen)"
            }
          ]
        }
      }
    },
    {
      "fullUrl": "urn:uuid:bbf792e6-47e8-4972-ab39-6f38f44cfac5",
      "resource": {
        "resourceType": "Observation",
        "id": "bbf792e6-47e8-4972-ab39-6f38f44cfac5",
        "meta": {
          "profile": [
            "http://hl7.eu/fhir/laboratory/StructureDefinition/Observation-resultslab-eu-lab"
          ]
        },
        "performer": [
          {
            "display": "The Central European Lab"
          }
        ],
        "category": [
          {
            "coding": [
              {
                "system": "http://terminology.hl7.org/CodeSystem/observation-category",
                "code": "laboratory"
              }
            ]
          }
        ],
        "code": {
          "coding": [
            {
              "code": "2345-7",
              "system": "http://loinc.org",
              "display": "Glucose [Mass/volume] in Serum or Plasma"
            }
          ],
          "text": "Glucose [Mass/volume] in Serum or Plasma"
        },
        "valueQuantity": {
          "system": "http://unitsofmeasure.org",
          "value": 92.6,
          "unit": "mg/dL",
          "code": "mg/dL"
        },
        "referenceRange": [
          {
            "low": {
              "value": 70,
              "code": "mg/dL",
              "system": "http://unitsofmeasure.org"
            }
          },
          {
            "high": {
              "value": 140,
              "code": "mg/dL",
              "system": "http://unitsofmeasure.org"
            }
          }
        ],
        "text": {
          "status": "generated",
          "div": "<div xmlns=\"http://www.w3.org/1999/xhtml\"><table class=\"hl7__eu__lab__report\"><tr><th>Test</th><th>13-Dec-2023</th><th>Reference&#xA0;Range</th><th>Unit</th></tr><tr><td>Glucose [Mass/volume] in Serum or Plasma</td><td>92.6</td><td>70 - 140</td><td></td><td>mg/dL</td></tr></table></div>"
        },
        "status": "final",
        "subject": {
          "reference": "urn:uuid:79baca73-4b82-44bf-a6eb-17ec6946d4c3",
          "display": "Θεμιστοκλής Λιναρδάκη"
        },
        "effectiveDateTime": "2023-12-13T06:16:00Z",
        "specimen": {
          "reference": "urn:uuid:a5c67f09-8653-458e-b375-9ff1b2f12f5b"
        }
      }
    },
    {
      "fullUrl": "urn:uuid:a3628f21-c72b-4bd8-9f4b-cd3defdef2e1",
      "resource": {
        "resourceType": "Observation",
        "id": "a3628f21-c72b-4bd8-9f4b-cd3defdef2e1",
        "meta": {
          "profile": [
            "http://hl7.eu/fhir/laboratory/StructureDefinition/Observation-resultslab-eu-lab"
          ]
        },
        "performer": [
          {
            "display": "The Central European Lab"
          }
        ],
        "category": [
          {
            "coding": [
              {
                "system": "http://terminology.hl7.org/CodeSystem/observation-category",
                "code": "laboratory"
              }
            ]
          }
        ],
        "code": {
          "coding": [
            {
              "code": "3094-0",
              "system": "http://loinc.org",
              "display": "Urea nitrogen [Mass/volume] in Serum or Plasma"
            }
          ],
          "text": "Urea nitrogen [Mass/volume] in Serum or Plasma"
        },
        "valueQuantity": {
          "system": "http://unitsofmeasure.org",
          "value": 9.8,
          "unit": "mg/dL",
          "code": "mg/dL"
        },
        "referenceRange": [
          {
            "low": {
              "value": 7,
              "code": "mg/dL",
              "system": "http://unitsofmeasure.org"
            }
          },
          {
            "high": {
              "value": 20,
              "code": "mg/dL",
              "system": "http://unitsofmeasure.org"
            }
          }
        ],
        "text": {
          "status": "generated",
          "div": "<div xmlns=\"http://www.w3.org/1999/xhtml\"><table class=\"hl7__eu__lab__report\"><tr><th>Test</th><th>13-Dec-2023</th><th>Reference&#xA0;Range</th><th>Unit</th></tr><tr><td>Urea nitrogen [Mass/volume] in Serum or Plasma</td><td>9.8</td><td>7 - 20</td><td></td><td>mg/dL</td></tr></table></div>"
        },
        "status": "final",
        "subject": {
          "reference": "urn:uuid:79baca73-4b82-44bf-a6eb-17ec6946d4c3",
          "display": "Θεμιστοκλής Λιναρδάκη"
        },
        "effectiveDateTime": "2023-12-13T06:16:00Z",
        "specimen": {
          "reference": "urn:uuid:a5c67f09-8653-458e-b375-9ff1b2f12f5b"
        }
      }
    },
    {
      "fullUrl": "urn:uuid:fd2f6798-6b7e-4265-b057-6f8f14f93f5c",
      "resource": {
        "resourceType": "Observation",
        "id": "fd2f6798-6b7e-4265-b057-6f8f14f93f5c",
        "meta": {
          "profile": [
            "http://hl7.eu/fhir/laboratory/StructureDefinition/Observation-resultslab-eu-lab"
          ]
        },
        "performer": [
          {
            "display": "The Central European Lab"
          }
        ],
        "category": [
          {
            "coding": [
              {
                "system": "http://terminology.hl7.org/CodeSystem/observation-category",
                "code": "laboratory"
              }
            ]
          }
        ],
        "code": {
          "coding": [
            {
              "code": "2160-0",
              "system": "http://loinc.org",
              "display": "Creatinine [Mass/volume] in Serum or Plasma"
            }
          ],
          "text": "Creatinine [Mass/volume] in Serum or Plasma"
        },
        "valueQuantity": {
          "system": "http://unitsofmeasure.org",
          "value": 2,
          "unit": "mg/dL",
          "code": "mg/dL"
        },
        "referenceRange": [
          {
            "low": {
              "value": 0.9,
              "code": "mg/dL",
              "system": "http://unitsofmeasure.org"
            }
          },
          {
            "high": {
              "value": 1.3,
              "code": "mg/dL",
              "system": "http://unitsofmeasure.org"
            }
          }
        ],
        "interpretation": [
          {
            "coding": [
              {
                "code": "H",
                "system": "http://terminology.hl7.org/CodeSystem/v3-ObservationInterpretation",
                "display": "High"
              }
            ]
          }
        ],
        "text": {
          "status": "generated",
          "div": "<div xmlns=\"http://www.w3.org/1999/xhtml\"><table class=\"hl7__eu__lab__report\"><tr><th>Test</th><th>13-Dec-2023</th><th>Reference&#xA0;Range</th><th>Unit</th></tr><tr><td>Creatinine [Mass/volume] in Serum or Plasma</td><td>2.0</td><td>0.9 - 1.3</td><td>H</td><td>mg/dL</td></tr></table></div>"
        },
        "status": "final",
        "subject": {
          "reference": "urn:uuid:79baca73-4b82-44bf-a6eb-17ec6946d4c3",
          "display": "Θεμιστοκλής Λιναρδάκη"
        },
        "effectiveDateTime": "2023-12-13T06:16:00Z",
        "specimen": {
          "reference": "urn:uuid:a5c67f09-8653-458e-b375-9ff1b2f12f5b"
        }
      }
    },
    {
      "fullUrl": "urn:uuid:37789fd6-6f89-4dff-a091-abcadbb7b13b",
      "resource": {
        "resourceType": "Observation",
        "id": "37789fd6-6f89-4dff-a091-abcadbb7b13b",
        "meta": {
          "profile": [
            "http://hl7.eu/fhir/laboratory/StructureDefinition/Observation-resultslab-eu-lab"
          ]
        },
        "performer": [
          {
            "display": "The Central European Lab"
          }
        ],
        "category": [
          {
            "coding": [
              {
                "system": "http://terminology.hl7.org/CodeSystem/observation-category",
                "code": "laboratory"
              }
            ]
          }
        ],
        "code": {
          "coding": [
            {
              "code": "17861-6",
              "system": "http://loinc.org",
              "display": "Calcium [Mass/volume] in Serum or Plasma"
            }
          ],
          "text": "Calcium [Mass/volume] in Serum or Plasma"
        },
        "valueQuantity": {
          "system": "http://unitsofmeasure.org",
          "value": 8.8,
          "unit": "mg/dL",
          "code": "mg/dL"
        },
        "referenceRange": [
          {
            "low": {
              "value": 8.5,
              "code": "mg/dL",
              "system": "http://unitsofmeasure.org"
            }
          },
          {
            "high": {
              "value": 10.5,
              "code": "mg/dL",
              "system": "http://unitsofmeasure.org"
            }
          }
        ],
        "text": {
          "status": "generated",
          "div": "<div xmlns=\"http://www.w3.org/1999/xhtml\"><table class=\"hl7__eu__lab__report\"><tr><th>Test</th><th>13-Dec-2023</th><th>Reference&#xA0;Range</th><th>Unit</th></tr><tr><td>Calcium [Mass/volume] in Serum or Plasma</td><td>8.8</td><td>8.5 - 10.5</td><td></td><td>mg/dL</td></tr></table></div>"
        },
        "status": "final",
        "subject": {
          "reference": "urn:uuid:79baca73-4b82-44bf-a6eb-17ec6946d4c3",
          "display": "Θεμιστοκλής Λιναρδάκη"
        },
        "effectiveDateTime": "2023-12-13T06:16:00Z",
        "specimen": {
          "reference": "urn:uuid:a5c67f09-8653-458e-b375-9ff1b2f12f5b"
        }
      }
    },
    {
      "fullUrl": "urn:uuid:76fb7c4c-c10e-4b9b-a4d6-76f3c06353b5",
      "resource": {
        "resourceType": "Observation",
        "id": "76fb7c4c-c10e-4b9b-a4d6-76f3c06353b5",
        "meta": {
          "profile": [
            "http://hl7.eu/fhir/laboratory/StructureDefinition/Observation-resultslab-eu-lab"
          ]
        },
        "performer": [
          {
            "display": "The Central European Lab"
          }
        ],
        "category": [
          {
            "coding": [
              {
                "system": "http://terminology.hl7.org/CodeSystem/observation-category",
                "code": "laboratory"
              }
            ]
          }
        ],
        "code": {
          "coding": [
            {
              "code": "2951-2",
              "system": "http://loinc.org",
              "display": "Sodium [Moles/volume] in Serum or Plasma"
            }
          ],
          "text": "Sodium [Moles/volume] in Serum or Plasma"
        },
        "valueQuantity": {
          "system": "http://unitsofmeasure.org",
          "value": 136.4,
          "unit": "mmol/L",
          "code": "mmol/L"
        },
        "referenceRange": [
          {
            "low": {
              "value": 135,
              "code": "mmol/L",
              "system": "http://unitsofmeasure.org"
            }
          },
          {
            "high": {
              "value": 145,
              "code": "mmol/L",
              "system": "http://unitsofmeasure.org"
            }
          }
        ],
        "text": {
          "status": "generated",
          "div": "<div xmlns=\"http://www.w3.org/1999/xhtml\"><table class=\"hl7__eu__lab__report\"><tr><th>Test</th><th>13-Dec-2023</th><th>Reference&#xA0;Range</th><th>Unit</th></tr><tr><td>Sodium [Moles/volume] in Serum or Plasma</td><td>136.4</td><td>135 - 145</td><td></td><td>mmol/L</td></tr></table></div>"
        },
        "status": "final",
        "subject": {
          "reference": "urn:uuid:79baca73-4b82-44bf-a6eb-17ec6946d4c3",
          "display": "Θεμιστοκλής Λιναρδάκη"
        },
        "effectiveDateTime": "2023-12-13T06:16:00Z",
        "specimen": {
          "reference": "urn:uuid:a5c67f09-8653-458e-b375-9ff1b2f12f5b"
        }
      }
    },
    {
      "fullUrl": "urn:uuid:a08d5a72-eca5-4cff-9c98-082aaf08d8d1",
      "resource": {
        "resourceType": "Observation",
        "id": "a08d5a72-eca5-4cff-9c98-082aaf08d8d1",
        "meta": {
          "profile": [
            "http://hl7.eu/fhir/laboratory/StructureDefinition/Observation-resultslab-eu-lab"
          ]
        },
        "performer": [
          {
            "display": "The Central European Lab"
          }
        ],
        "category": [
          {
            "coding": [
              {
                "system": "http://terminology.hl7.org/CodeSystem/observation-category",
                "code": "laboratory"
              }
            ]
          }
        ],
        "code": {
          "coding": [
            {
              "code": "2823-3",
              "system": "http://loinc.org",
              "display": "Potassium [Moles/volume] in Serum or Plasma"
            }
          ],
          "text": "Potassium [Moles/volume] in Serum or Plasma"
        },
        "valueQuantity": {
          "system": "http://unitsofmeasure.org",
          "value": 4.5,
          "unit": "mmol/L",
          "code": "mmol/L"
        },
        "referenceRange": [
          {
            "low": {
              "value": 3.5,
              "code": "mmol/L",
              "system": "http://unitsofmeasure.org"
            }
          },
          {
            "high": {
              "value": 5,
              "code": "mmol/L",
              "system": "http://unitsofmeasure.org"
            }
          }
        ],
        "text": {
          "status": "generated",
          "div": "<div xmlns=\"http://www.w3.org/1999/xhtml\"><table class=\"hl7__eu__lab__report\"><tr><th>Test</th><th>13-Dec-2023</th><th>Reference&#xA0;Range</th><th>Unit</th></tr><tr><td>Potassium [Moles/volume] in Serum or Plasma</td><td>4.5</td><td>3.5 - 5</td><td></td><td>mmol/L</td></tr></table></div>"
        },
        "status": "final",
        "subject": {
          "reference": "urn:uuid:79baca73-4b82-44bf-a6eb-17ec6946d4c3",
          "display": "Θεμιστοκλής Λιναρδάκη"
        },
        "effectiveDateTime": "2023-12-13T06:16:00Z",
        "specimen": {
          "reference": "urn:uuid:a5c67f09-8653-458e-b375-9ff1b2f12f5b"
        }
      }
    },
    {
      "fullUrl": "urn:uuid:05e32b0e-d53d-4370-9e54-7db3c0b23f43",
      "resource": {
        "resourceType": "Observation",
        "id": "05e32b0e-d53d-4370-9e54-7db3c0b23f43",
        "meta": {
          "profile": [
            "http://hl7.eu/fhir/laboratory/StructureDefinition/Observation-resultslab-eu-lab"
          ]
        },
        "performer": [
          {
            "display": "The Central European Lab"
          }
        ],
        "category": [
          {
            "coding": [
              {
                "system": "http://terminology.hl7.org/CodeSystem/observation-category",
                "code": "laboratory"
              }
            ]
          }
        ],
        "code": {
          "coding": [
            {
              "code": "2075-0",
              "system": "http://loinc.org",
              "display": "Chloride [Moles/volume] in Serum or Plasma"
            }
          ],
          "text": "Chloride [Moles/volume] in Serum or Plasma"
        },
        "valueQuantity": {
          "system": "http://unitsofmeasure.org",
          "value": 109.8,
          "unit": "mmol/L",
          "code": "mmol/L"
        },
        "referenceRange": [
          {
            "low": {
              "value": 98,
              "code": "mmol/L",
              "system": "http://unitsofmeasure.org"
            }
          },
          {
            "high": {
              "value": 108,
              "code": "mmol/L",
              "system": "http://unitsofmeasure.org"
            }
          }
        ],
        "interpretation": [
          {
            "coding": [
              {
                "code": "H",
                "system": "http://terminology.hl7.org/CodeSystem/v3-ObservationInterpretation",
                "display": "High"
              }
            ]
          }
        ],
        "text": {
          "status": "generated",
          "div": "<div xmlns=\"http://www.w3.org/1999/xhtml\"><table class=\"hl7__eu__lab__report\"><tr><th>Test</th><th>13-Dec-2023</th><th>Reference&#xA0;Range</th><th>Unit</th></tr><tr><td>Chloride [Moles/volume] in Serum or Plasma</td><td>109.8</td><td>98 - 108</td><td>H</td><td>mmol/L</td></tr></table></div>"
        },
        "status": "final",
        "subject": {
          "reference": "urn:uuid:79baca73-4b82-44bf-a6eb-17ec6946d4c3",
          "display": "Θεμιστοκλής Λιναρδάκη"
        },
        "effectiveDateTime": "2023-12-13T06:16:00Z",
        "specimen": {
          "reference": "urn:uuid:a5c67f09-8653-458e-b375-9ff1b2f12f5b"
        }
      }
    },
    {
      "fullUrl": "urn:uuid:376f2d9c-2cca-40b6-a355-bb5d3949c481",
      "resource": {
        "resourceType": "Observation",
        "id": "376f2d9c-2cca-40b6-a355-bb5d3949c481",
        "meta": {
          "profile": [
            "http://hl7.eu/fhir/laboratory/StructureDefinition/Observation-resultslab-eu-lab"
          ]
        },
        "performer": [
          {
            "display": "The Central European Lab"
          }
        ],
        "category": [
          {
            "coding": [
              {
                "system": "http://terminology.hl7.org/CodeSystem/observation-category",
                "code": "laboratory"
              }
            ]
          }
        ],
        "code": {
          "coding": [
            {
              "code": "2028-9",
              "system": "http://loinc.org",
              "display": "Carbon dioxide, total [Moles/volume] in Serum or Plasma"
            }
          ],
          "text": "Carbon dioxide, total [Moles/volume] in Serum or Plasma"
        },
        "valueQuantity": {
          "system": "http://unitsofmeasure.org",
          "value": 27.8,
          "unit": "mmol/L",
          "code": "mmol/L"
        },
        "referenceRange": [
          {
            "low": {
              "value": 22,
              "code": "mmol/L",
              "system": "http://unitsofmeasure.org"
            }
          },
          {
            "high": {
              "value": 29,
              "code": "mmol/L",
              "system": "http://unitsofmeasure.org"
            }
          }
        ],
        "text": {
          "status": "generated",
          "div": "<div xmlns=\"http://www.w3.org/1999/xhtml\"><table class=\"hl7__eu__lab__report\"><tr><th>Test</th><th>13-Dec-2023</th><th>Reference&#xA0;Range</th><th>Unit</th></tr><tr><td>Carbon dioxide, total [Moles/volume] in Serum or Plasma</td><td>27.8</td><td>22 - 29</td><td></td><td>mmol/L</td></tr></table></div>"
        },
        "status": "final",
        "subject": {
          "reference": "urn:uuid:79baca73-4b82-44bf-a6eb-17ec6946d4c3",
          "display": "Θεμιστοκλής Λιναρδάκη"
        },
        "effectiveDateTime": "2023-12-13T06:16:00Z",
        "specimen": {
          "reference": "urn:uuid:a5c67f09-8653-458e-b375-9ff1b2f12f5b"
        }
      }
    },
    {
      "fullUrl": "urn:uuid:89ac6ad6-da00-4576-8cce-07908e5b0d28",
      "resource": {
        "resourceType": "Observation",
        "id": "89ac6ad6-da00-4576-8cce-07908e5b0d28",
        "meta": {
          "profile": [
            "http://hl7.eu/fhir/laboratory/StructureDefinition/Observation-resultslab-eu-lab"
          ]
        },
        "performer": [
          {
            "display": "The Central European Lab"
          }
        ],
        "category": [
          {
            "coding": [
              {
                "system": "http://terminology.hl7.org/CodeSystem/observation-category",
                "code": "laboratory"
              }
            ]
          }
        ],
        "code": {
          "coding": [
            {
              "code": "5767-9",
              "system": "http://loinc.org",
              "display": "Appearance of Urine"
            }
          ],
          "text": "Appearance of Urine"
        },
        "text": {
          "status": "generated",
          "div": "<div xmlns=\"http://www.w3.org/1999/xhtml\"><table class=\"hl7__eu__lab__report\"><tr><th>Test</th><th>13-Dec-2023</th><th>Reference&#xA0;Range</th><th>Unit</th></tr><tr><td>Appearance of Urine</td></tr></table></div>"
        },
        "status": "final",
        "subject": {
          "reference": "urn:uuid:79baca73-4b82-44bf-a6eb-17ec6946d4c3",
          "display": "Θεμιστοκλής Λιναρδάκη"
        },
        "effectiveDateTime": "2023-12-13T06:16:00Z",
        "specimen": {
          "reference": "urn:uuid:5d1ce6bf-0e2f-4071-9796-b5130965563d"
        }
      }
    },
    {
      "fullUrl": "urn:uuid:382e5e46-5647-4261-bea4-288eeacbbbc0",
      "resource": {
        "resourceType": "Observation",
        "id": "382e5e46-5647-4261-bea4-288eeacbbbc0",
        "meta": {
          "profile": [
            "http://hl7.eu/fhir/laboratory/StructureDefinition/Observation-resultslab-eu-lab"
          ]
        },
        "performer": [
          {
            "display": "The Central European Lab"
          }
        ],
        "category": [
          {
            "coding": [
              {
                "system": "http://terminology.hl7.org/CodeSystem/observation-category",
                "code": "laboratory"
              }
            ]
          }
        ],
        "code": {
          "coding": [
            {
              "code": "34533-0",
              "system": "http://loinc.org",
              "display": "Odor of Urine"
            }
          ],
          "text": "Odor of Urine"
        },
        "text": {
          "status": "generated",
          "div": "<div xmlns=\"http://www.w3.org/1999/xhtml\"><table class=\"hl7__eu__lab__report\"><tr><th>Test</th><th>13-Dec-2023</th><th>Reference&#xA0;Range</th><th>Unit</th></tr><tr><td>Odor of Urine</td></tr></table></div>"
        },
        "status": "final",
        "subject": {
          "reference": "urn:uuid:79baca73-4b82-44bf-a6eb-17ec6946d4c3",
          "display": "Θεμιστοκλής Λιναρδάκη"
        },
        "effectiveDateTime": "2023-12-13T06:16:00Z",
        "specimen": {
          "reference": "urn:uuid:5d1ce6bf-0e2f-4071-9796-b5130965563d"
        }
      }
    },
    {
      "fullUrl": "urn:uuid:18334961-0154-4222-a7a8-9f97f3ccfe15",
      "resource": {
        "resourceType": "Observation",
        "id": "18334961-0154-4222-a7a8-9f97f3ccfe15",
        "meta": {
          "profile": [
            "http://hl7.eu/fhir/laboratory/StructureDefinition/Observation-resultslab-eu-lab"
          ]
        },
        "performer": [
          {
            "display": "The Central European Lab"
          }
        ],
        "category": [
          {
            "coding": [
              {
                "system": "http://terminology.hl7.org/CodeSystem/observation-category",
                "code": "laboratory"
              }
            ]
          }
        ],
        "code": {
          "coding": [
            {
              "code": "32167-9",
              "system": "http://loinc.org",
              "display": "Clarity of Urine"
            }
          ],
          "text": "Clarity of Urine"
        },
        "text": {
          "status": "generated",
          "div": "<div xmlns=\"http://www.w3.org/1999/xhtml\"><table class=\"hl7__eu__lab__report\"><tr><th>Test</th><th>13-Dec-2023</th><th>Reference&#xA0;Range</th><th>Unit</th></tr><tr><td>Clarity of Urine</td></tr></table></div>"
        },
        "status": "final",
        "subject": {
          "reference": "urn:uuid:79baca73-4b82-44bf-a6eb-17ec6946d4c3",
          "display": "Θεμιστοκλής Λιναρδάκη"
        },
        "effectiveDateTime": "2023-12-13T06:16:00Z",
        "specimen": {
          "reference": "urn:uuid:5d1ce6bf-0e2f-4071-9796-b5130965563d"
        }
      }
    },
    {
      "fullUrl": "urn:uuid:d76693e3-b20f-42c7-a5a5-e6e9fe700a6f",
      "resource": {
        "resourceType": "Observation",
        "id": "d76693e3-b20f-42c7-a5a5-e6e9fe700a6f",
        "meta": {
          "profile": [
            "http://hl7.eu/fhir/laboratory/StructureDefinition/Observation-resultslab-eu-lab"
          ]
        },
        "performer": [
          {
            "display": "The Central European Lab"
          }
        ],
        "category": [
          {
            "coding": [
              {
                "system": "http://terminology.hl7.org/CodeSystem/observation-category",
                "code": "laboratory"
              }
            ]
          }
        ],
        "code": {
          "coding": [
            {
              "code": "5778-6",
              "system": "http://loinc.org",
              "display": "Color of Urine"
            }
          ],
          "text": "Color of Urine"
        },
        "text": {
          "status": "generated",
          "div": "<div xmlns=\"http://www.w3.org/1999/xhtml\"><table class=\"hl7__eu__lab__report\"><tr><th>Test</th><th>13-Dec-2023</th><th>Reference&#xA0;Range</th><th>Unit</th></tr><tr><td>Color of Urine</td></tr></table></div>"
        },
        "status": "final",
        "subject": {
          "reference": "urn:uuid:79baca73-4b82-44bf-a6eb-17ec6946d4c3",
          "display": "Θεμιστοκλής Λιναρδάκη"
        },
        "effectiveDateTime": "2023-12-13T06:16:00Z",
        "specimen": {
          "reference": "urn:uuid:5d1ce6bf-0e2f-4071-9796-b5130965563d"
        }
      }
    },
    {
      "fullUrl": "urn:uuid:0397e648-4488-4475-b2e9-bcc5eebc4f0a",
      "resource": {
        "resourceType": "Observation",
        "id": "0397e648-4488-4475-b2e9-bcc5eebc4f0a",
        "meta": {
          "profile": [
            "http://hl7.eu/fhir/laboratory/StructureDefinition/Observation-resultslab-eu-lab"
          ]
        },
        "performer": [
          {
            "display": "The Central European Lab"
          }
        ],
        "category": [
          {
            "coding": [
              {
                "system": "http://terminology.hl7.org/CodeSystem/observation-category",
                "code": "laboratory"
              }
            ]
          }
        ],
        "code": {
          "coding": [
            {
              "code": "5792-7",
              "system": "http://loinc.org",
              "display": "Glucose [Mass/volume] in Urine by Test strip"
            }
          ],
          "text": "Glucose [Mass/volume] in Urine by Test strip"
        },
        "valueQuantity": {
          "system": "http://unitsofmeasure.org",
          "value": 1.7,
          "unit": "mg/dL",
          "code": "mg/dL"
        },
        "referenceRange": [
          {
            "low": {
              "value": 0,
              "code": "mg/dL",
              "system": "http://unitsofmeasure.org"
            }
          },
          {
            "high": {
              "value": 0.8,
              "code": "mg/dL",
              "system": "http://unitsofmeasure.org"
            }
          }
        ],
        "interpretation": [
          {
            "coding": [
              {
                "code": "H",
                "system": "http://terminology.hl7.org/CodeSystem/v3-ObservationInterpretation",
                "display": "High"
              }
            ]
          }
        ],
        "text": {
          "status": "generated",
          "div": "<div xmlns=\"http://www.w3.org/1999/xhtml\"><table class=\"hl7__eu__lab__report\"><tr><th>Test</th><th>13-Dec-2023</th><th>Reference&#xA0;Range</th><th>Unit</th></tr><tr><td>Glucose [Mass/volume] in Urine by Test strip</td><td>1.7</td><td>0 - 0.8</td><td>H</td><td>mg/dL</td></tr></table></div>"
        },
        "status": "final",
        "subject": {
          "reference": "urn:uuid:79baca73-4b82-44bf-a6eb-17ec6946d4c3",
          "display": "Θεμιστοκλής Λιναρδάκη"
        },
        "effectiveDateTime": "2023-12-13T06:16:00Z",
        "specimen": {
          "reference": "urn:uuid:5d1ce6bf-0e2f-4071-9796-b5130965563d"
        }
      }
    },
    {
      "fullUrl": "urn:uuid:9728fcc4-daa2-4260-812e-17944fc4ed56",
      "resource": {
        "resourceType": "Observation",
        "id": "9728fcc4-daa2-4260-812e-17944fc4ed56",
        "meta": {
          "profile": [
            "http://hl7.eu/fhir/laboratory/StructureDefinition/Observation-resultslab-eu-lab"
          ]
        },
        "performer": [
          {
            "display": "The Central European Lab"
          }
        ],
        "category": [
          {
            "coding": [
              {
                "system": "http://terminology.hl7.org/CodeSystem/observation-category",
                "code": "laboratory"
              }
            ]
          }
        ],
        "code": {
          "coding": [
            {
              "code": "25428-4",
              "system": "http://loinc.org",
              "display": "Glucose [Presence] in Urine by Test strip"
            }
          ],
          "text": "Glucose [Presence] in Urine by Test strip"
        },
        "text": {
          "status": "generated",
          "div": "<div xmlns=\"http://www.w3.org/1999/xhtml\"><table class=\"hl7__eu__lab__report\"><tr><th>Test</th><th>13-Dec-2023</th><th>Reference&#xA0;Range</th><th>Unit</th></tr><tr><td>Glucose [Presence] in Urine by Test strip</td></tr></table></div>"
        },
        "status": "final",
        "subject": {
          "reference": "urn:uuid:79baca73-4b82-44bf-a6eb-17ec6946d4c3",
          "display": "Θεμιστοκλής Λιναρδάκη"
        },
        "effectiveDateTime": "2023-12-13T06:16:00Z",
        "specimen": {
          "reference": "urn:uuid:5d1ce6bf-0e2f-4071-9796-b5130965563d"
        }
      }
    },
    {
      "fullUrl": "urn:uuid:8f693dbf-aef2-465f-9cd7-3a0dbabf0206",
      "resource": {
        "resourceType": "Observation",
        "id": "8f693dbf-aef2-465f-9cd7-3a0dbabf0206",
        "meta": {
          "profile": [
            "http://hl7.eu/fhir/laboratory/StructureDefinition/Observation-resultslab-eu-lab"
          ]
        },
        "performer": [
          {
            "display": "The Central European Lab"
          }
        ],
        "category": [
          {
            "coding": [
              {
                "system": "http://terminology.hl7.org/CodeSystem/observation-category",
                "code": "laboratory"
              }
            ]
          }
        ],
        "code": {
          "coding": [
            {
              "code": "20505-4",
              "system": "http://loinc.org",
              "display": "Bilirubin.total [Mass/volume] in Urine by Test strip"
            }
          ],
          "text": "Bilirubin.total [Mass/volume] in Urine by Test strip"
        },
        "valueQuantity": {
          "system": "http://unitsofmeasure.org",
          "value": 1.2,
          "unit": "mg/dL",
          "code": "mg/dL"
        },
        "referenceRange": [
          {
            "low": {
              "value": 0.2,
              "code": "mg/dL",
              "system": "http://unitsofmeasure.org"
            }
          },
          {
            "high": {
              "value": 1,
              "code": "mg/dL",
              "system": "http://unitsofmeasure.org"
            }
          }
        ],
        "interpretation": [
          {
            "coding": [
              {
                "code": "H",
                "system": "http://terminology.hl7.org/CodeSystem/v3-ObservationInterpretation",
                "display": "High"
              }
            ]
          }
        ],
        "text": {
          "status": "generated",
          "div": "<div xmlns=\"http://www.w3.org/1999/xhtml\"><table class=\"hl7__eu__lab__report\"><tr><th>Test</th><th>13-Dec-2023</th><th>Reference&#xA0;Range</th><th>Unit</th></tr><tr><td>Bilirubin.total [Mass/volume] in Urine by Test strip</td><td>1.2</td><td>0.2 - 1</td><td>H</td><td>mg/dL</td></tr></table></div>"
        },
        "status": "final",
        "subject": {
          "reference": "urn:uuid:79baca73-4b82-44bf-a6eb-17ec6946d4c3",
          "display": "Θεμιστοκλής Λιναρδάκη"
        },
        "effectiveDateTime": "2023-12-13T06:16:00Z",
        "specimen": {
          "reference": "urn:uuid:5d1ce6bf-0e2f-4071-9796-b5130965563d"
        }
      }
    },
    {
      "fullUrl": "urn:uuid:de983529-9b5e-4754-b70b-d3ebce880979",
      "resource": {
        "resourceType": "Observation",
        "id": "de983529-9b5e-4754-b70b-d3ebce880979",
        "meta": {
          "profile": [
            "http://hl7.eu/fhir/laboratory/StructureDefinition/Observation-resultslab-eu-lab"
          ]
        },
        "performer": [
          {
            "display": "The Central European Lab"
          }
        ],
        "category": [
          {
            "coding": [
              {
                "system": "http://terminology.hl7.org/CodeSystem/observation-category",
                "code": "laboratory"
              }
            ]
          }
        ],
        "code": {
          "coding": [
            {
              "code": "5770-3",
              "system": "http://loinc.org",
              "display": "Bilirubin.total [Presence] in Urine by Test strip"
            }
          ],
          "text": "Bilirubin.total [Presence] in Urine by Test strip"
        },
        "text": {
          "status": "generated",
          "div": "<div xmlns=\"http://www.w3.org/1999/xhtml\"><table class=\"hl7__eu__lab__report\"><tr><th>Test</th><th>13-Dec-2023</th><th>Reference&#xA0;Range</th><th>Unit</th></tr><tr><td>Bilirubin.total [Presence] in Urine by Test strip</td></tr></table></div>"
        },
        "status": "final",
        "subject": {
          "reference": "urn:uuid:79baca73-4b82-44bf-a6eb-17ec6946d4c3",
          "display": "Θεμιστοκλής Λιναρδάκη"
        },
        "effectiveDateTime": "2023-12-13T06:16:00Z",
        "specimen": {
          "reference": "urn:uuid:5d1ce6bf-0e2f-4071-9796-b5130965563d"
        }
      }
    },
    {
      "fullUrl": "urn:uuid:0f2aac1c-2369-4f5c-86fb-db7f3cb0975f",
      "resource": {
        "resourceType": "Observation",
        "id": "0f2aac1c-2369-4f5c-86fb-db7f3cb0975f",
        "meta": {
          "profile": [
            "http://hl7.eu/fhir/laboratory/StructureDefinition/Observation-resultslab-eu-lab"
          ]
        },
        "performer": [
          {
            "display": "The Central European Lab"
          }
        ],
        "category": [
          {
            "coding": [
              {
                "system": "http://terminology.hl7.org/CodeSystem/observation-category",
                "code": "laboratory"
              }
            ]
          }
        ],
        "code": {
          "coding": [
            {
              "code": "5797-6",
              "system": "http://loinc.org",
              "display": "Ketones [Mass/volume] in Urine by Test strip"
            }
          ],
          "text": "Ketones [Mass/volume] in Urine by Test strip"
        },
        "valueQuantity": {
          "system": "http://unitsofmeasure.org",
          "value": 12.2,
          "unit": "mg/dL",
          "code": "mg/dL"
        },
        "referenceRange": [
          {
            "low": {
              "value": 0,
              "code": "mg/dL",
              "system": "http://unitsofmeasure.org"
            }
          },
          {
            "high": {
              "value": 5,
              "code": "mg/dL",
              "system": "http://unitsofmeasure.org"
            }
          }
        ],
        "interpretation": [
          {
            "coding": [
              {
                "code": "H",
                "system": "http://terminology.hl7.org/CodeSystem/v3-ObservationInterpretation",
                "display": "High"
              }
            ]
          }
        ],
        "text": {
          "status": "generated",
          "div": "<div xmlns=\"http://www.w3.org/1999/xhtml\"><table class=\"hl7__eu__lab__report\"><tr><th>Test</th><th>13-Dec-2023</th><th>Reference&#xA0;Range</th><th>Unit</th></tr><tr><td>Ketones [Mass/volume] in Urine by Test strip</td><td>12.2</td><td>0 - 5</td><td>H</td><td>mg/dL</td></tr></table></div>"
        },
        "status": "final",
        "subject": {
          "reference": "urn:uuid:79baca73-4b82-44bf-a6eb-17ec6946d4c3",
          "display": "Θεμιστοκλής Λιναρδάκη"
        },
        "effectiveDateTime": "2023-12-13T06:16:00Z",
        "specimen": {
          "reference": "urn:uuid:5d1ce6bf-0e2f-4071-9796-b5130965563d"
        }
      }
    },
    {
      "fullUrl": "urn:uuid:6189e383-dcc8-48fa-b520-eb2055c1a026",
      "resource": {
        "resourceType": "Observation",
        "id": "6189e383-dcc8-48fa-b520-eb2055c1a026",
        "meta": {
          "profile": [
            "http://hl7.eu/fhir/laboratory/StructureDefinition/Observation-resultslab-eu-lab"
          ]
        },
        "performer": [
          {
            "display": "The Central European Lab"
          }
        ],
        "category": [
          {
            "coding": [
              {
                "system": "http://terminology.hl7.org/CodeSystem/observation-category",
                "code": "laboratory"
              }
            ]
          }
        ],
        "code": {
          "coding": [
            {
              "code": "2514-8",
              "system": "http://loinc.org",
              "display": "Ketones [Presence] in Urine by Test strip"
            }
          ],
          "text": "Ketones [Presence] in Urine by Test strip"
        },
        "text": {
          "status": "generated",
          "div": "<div xmlns=\"http://www.w3.org/1999/xhtml\"><table class=\"hl7__eu__lab__report\"><tr><th>Test</th><th>13-Dec-2023</th><th>Reference&#xA0;Range</th><th>Unit</th></tr><tr><td>Ketones [Presence] in Urine by Test strip</td></tr></table></div>"
        },
        "status": "final",
        "subject": {
          "reference": "urn:uuid:79baca73-4b82-44bf-a6eb-17ec6946d4c3",
          "display": "Θεμιστοκλής Λιναρδάκη"
        },
        "effectiveDateTime": "2023-12-13T06:16:00Z",
        "specimen": {
          "reference": "urn:uuid:5d1ce6bf-0e2f-4071-9796-b5130965563d"
        }
      }
    },
    {
      "fullUrl": "urn:uuid:aa4c2c74-c3a4-49d6-a3b0-c83e51835ff6",
      "resource": {
        "resourceType": "Observation",
        "id": "aa4c2c74-c3a4-49d6-a3b0-c83e51835ff6",
        "meta": {
          "profile": [
            "http://hl7.eu/fhir/laboratory/StructureDefinition/Observation-resultslab-eu-lab"
          ]
        },
        "performer": [
          {
            "display": "The Central European Lab"
          }
        ],
        "category": [
          {
            "coding": [
              {
                "system": "http://terminology.hl7.org/CodeSystem/observation-category",
                "code": "laboratory"
              }
            ]
          }
        ],
        "code": {
          "coding": [
            {
              "code": "5811-5",
              "system": "http://loinc.org",
              "display": "Specific gravity of Urine by Test strip"
            }
          ],
          "text": "Specific gravity of Urine by Test strip"
        },
        "valueQuantity": {
          "system": "http://unitsofmeasure.org",
          "value": 1,
          "unit": "{nominal}",
          "code": "{nominal}"
        },
        "referenceRange": [
          {
            "low": {
              "value": 1.005,
              "code": "g/mL",
              "system": "http://unitsofmeasure.org"
            }
          },
          {
            "high": {
              "value": 1.03,
              "code": "g/mL",
              "system": "http://unitsofmeasure.org"
            }
          }
        ],
        "interpretation": [
          {
            "coding": [
              {
                "code": "L",
                "system": "http://terminology.hl7.org/CodeSystem/v3-ObservationInterpretation",
                "display": "Low"
              }
            ]
          }
        ],
        "text": {
          "status": "generated",
          "div": "<div xmlns=\"http://www.w3.org/1999/xhtml\"><table class=\"hl7__eu__lab__report\"><tr><th>Test</th><th>13-Dec-2023</th><th>Reference&#xA0;Range</th><th>Unit</th></tr><tr><td>Specific gravity of Urine by Test strip</td><td>1.0</td><td>1.005 - 1.03</td><td>L</td><td>{nominal}</td></tr></table></div>"
        },
        "status": "final",
        "subject": {
          "reference": "urn:uuid:79baca73-4b82-44bf-a6eb-17ec6946d4c3",
          "display": "Θεμιστοκλής Λιναρδάκη"
        },
        "effectiveDateTime": "2023-12-13T06:16:00Z",
        "specimen": {
          "reference": "urn:uuid:5d1ce6bf-0e2f-4071-9796-b5130965563d"
        }
      }
    },
    {
      "fullUrl": "urn:uuid:68ee4016-0f04-4e54-a9ee-c2e4a016422f",
      "resource": {
        "resourceType": "Observation",
        "id": "68ee4016-0f04-4e54-a9ee-c2e4a016422f",
        "meta": {
          "profile": [
            "http://hl7.eu/fhir/laboratory/StructureDefinition/Observation-resultslab-eu-lab"
          ]
        },
        "performer": [
          {
            "display": "The Central European Lab"
          }
        ],
        "category": [
          {
            "coding": [
              {
                "system": "http://terminology.hl7.org/CodeSystem/observation-category",
                "code": "laboratory"
              }
            ]
          }
        ],
        "code": {
          "coding": [
            {
              "code": "5803-2",
              "system": "http://loinc.org",
              "display": "pH of Urine by Test strip"
            }
          ],
          "text": "pH of Urine by Test strip"
        },
        "valueQuantity": {
          "system": "http://unitsofmeasure.org",
          "value": 6.9,
          "unit": "pH",
          "code": "pH"
        },
        "referenceRange": [
          {
            "low": {
              "value": 4.6,
              "code": "pH",
              "system": "http://unitsofmeasure.org"
            }
          },
          {
            "high": {
              "value": 7,
              "code": "pH",
              "system": "http://unitsofmeasure.org"
            }
          }
        ],
        "text": {
          "status": "generated",
          "div": "<div xmlns=\"http://www.w3.org/1999/xhtml\"><table class=\"hl7__eu__lab__report\"><tr><th>Test</th><th>13-Dec-2023</th><th>Reference&#xA0;Range</th><th>Unit</th></tr><tr><td>pH of Urine by Test strip</td><td>6.9</td><td>4.6 - 7</td><td></td><td>pH</td></tr></table></div>"
        },
        "status": "final",
        "subject": {
          "reference": "urn:uuid:79baca73-4b82-44bf-a6eb-17ec6946d4c3",
          "display": "Θεμιστοκλής Λιναρδάκη"
        },
        "effectiveDateTime": "2023-12-13T06:16:00Z",
        "specimen": {
          "reference": "urn:uuid:5d1ce6bf-0e2f-4071-9796-b5130965563d"
        }
      }
    },
    {
      "fullUrl": "urn:uuid:4e41dcd9-3a29-40f3-a43b-dc634943cf4b",
      "resource": {
        "resourceType": "Observation",
        "id": "4e41dcd9-3a29-40f3-a43b-dc634943cf4b",
        "meta": {
          "profile": [
            "http://hl7.eu/fhir/laboratory/StructureDefinition/Observation-resultslab-eu-lab"
          ]
        },
        "performer": [
          {
            "display": "The Central European Lab"
          }
        ],
        "category": [
          {
            "coding": [
              {
                "system": "http://terminology.hl7.org/CodeSystem/observation-category",
                "code": "laboratory"
              }
            ]
          }
        ],
        "code": {
          "coding": [
            {
              "code": "5804-0",
              "system": "http://loinc.org",
              "display": "Protein [Mass/volume] in Urine by Test strip"
            }
          ],
          "text": "Protein [Mass/volume] in Urine by Test strip"
        },
        "valueQuantity": {
          "system": "http://unitsofmeasure.org",
          "value": 351,
          "unit": "mg/dL",
          "code": "mg/dL"
        },
        "referenceRange": [
          {
            "low": {
              "value": 0,
              "code": "mg/dL",
              "system": "http://unitsofmeasure.org"
            }
          },
          {
            "high": {
              "value": 150,
              "code": "mg/dL",
              "system": "http://unitsofmeasure.org"
            }
          }
        ],
        "interpretation": [
          {
            "coding": [
              {
                "code": "H",
                "system": "http://terminology.hl7.org/CodeSystem/v3-ObservationInterpretation",
                "display": "High"
              }
            ]
          }
        ],
        "text": {
          "status": "generated",
          "div": "<div xmlns=\"http://www.w3.org/1999/xhtml\"><table class=\"hl7__eu__lab__report\"><tr><th>Test</th><th>13-Dec-2023</th><th>Reference&#xA0;Range</th><th>Unit</th></tr><tr><td>Protein [Mass/volume] in Urine by Test strip</td><td>351.0</td><td>0 - 150</td><td>H</td><td>mg/dL</td></tr></table></div>"
        },
        "status": "final",
        "subject": {
          "reference": "urn:uuid:79baca73-4b82-44bf-a6eb-17ec6946d4c3",
          "display": "Θεμιστοκλής Λιναρδάκη"
        },
        "effectiveDateTime": "2023-12-13T06:16:00Z",
        "specimen": {
          "reference": "urn:uuid:5d1ce6bf-0e2f-4071-9796-b5130965563d"
        }
      }
    },
    {
      "fullUrl": "urn:uuid:e6975afd-8b6c-432d-8b7c-e8adae950991",
      "resource": {
        "resourceType": "Observation",
        "id": "e6975afd-8b6c-432d-8b7c-e8adae950991",
        "meta": {
          "profile": [
            "http://hl7.eu/fhir/laboratory/StructureDefinition/Observation-resultslab-eu-lab"
          ]
        },
        "performer": [
          {
            "display": "The Central European Lab"
          }
        ],
        "category": [
          {
            "coding": [
              {
                "system": "http://terminology.hl7.org/CodeSystem/observation-category",
                "code": "laboratory"
              }
            ]
          }
        ],
        "code": {
          "coding": [
            {
              "code": "20454-5",
              "system": "http://loinc.org",
              "display": "Protein [Presence] in Urine by Test strip"
            }
          ],
          "text": "Protein [Presence] in Urine by Test strip"
        },
        "text": {
          "status": "generated",
          "div": "<div xmlns=\"http://www.w3.org/1999/xhtml\"><table class=\"hl7__eu__lab__report\"><tr><th>Test</th><th>13-Dec-2023</th><th>Reference&#xA0;Range</th><th>Unit</th></tr><tr><td>Protein [Presence] in Urine by Test strip</td></tr></table></div>"
        },
        "status": "final",
        "subject": {
          "reference": "urn:uuid:79baca73-4b82-44bf-a6eb-17ec6946d4c3",
          "display": "Θεμιστοκλής Λιναρδάκη"
        },
        "effectiveDateTime": "2023-12-13T06:16:00Z",
        "specimen": {
          "reference": "urn:uuid:5d1ce6bf-0e2f-4071-9796-b5130965563d"
        }
      }
    },
    {
      "fullUrl": "urn:uuid:f77152ec-0193-4791-ba3f-d94a4a07ea61",
      "resource": {
        "resourceType": "Observation",
        "id": "f77152ec-0193-4791-ba3f-d94a4a07ea61",
        "meta": {
          "profile": [
            "http://hl7.eu/fhir/laboratory/StructureDefinition/Observation-resultslab-eu-lab"
          ]
        },
        "performer": [
          {
            "display": "The Central European Lab"
          }
        ],
        "category": [
          {
            "coding": [
              {
                "system": "http://terminology.hl7.org/CodeSystem/observation-category",
                "code": "laboratory"
              }
            ]
          }
        ],
        "code": {
          "coding": [
            {
              "code": "5802-4",
              "system": "http://loinc.org",
              "display": "Nitrite [Presence] in Urine by Test strip"
            }
          ],
          "text": "Nitrite [Presence] in Urine by Test strip"
        },
        "text": {
          "status": "generated",
          "div": "<div xmlns=\"http://www.w3.org/1999/xhtml\"><table class=\"hl7__eu__lab__report\"><tr><th>Test</th><th>13-Dec-2023</th><th>Reference&#xA0;Range</th><th>Unit</th></tr><tr><td>Nitrite [Presence] in Urine by Test strip</td></tr></table></div>"
        },
        "status": "final",
        "subject": {
          "reference": "urn:uuid:79baca73-4b82-44bf-a6eb-17ec6946d4c3",
          "display": "Θεμιστοκλής Λιναρδάκη"
        },
        "effectiveDateTime": "2023-12-13T06:16:00Z",
        "specimen": {
          "reference": "urn:uuid:5d1ce6bf-0e2f-4071-9796-b5130965563d"
        }
      }
    },
    {
      "fullUrl": "urn:uuid:168dcf37-de01-4efa-8833-b34dcb8abbc9",
      "resource": {
        "resourceType": "Observation",
        "id": "168dcf37-de01-4efa-8833-b34dcb8abbc9",
        "meta": {
          "profile": [
            "http://hl7.eu/fhir/laboratory/StructureDefinition/Observation-resultslab-eu-lab"
          ]
        },
        "performer": [
          {
            "display": "The Central European Lab"
          }
        ],
        "category": [
          {
            "coding": [
              {
                "system": "http://terminology.hl7.org/CodeSystem/observation-category",
                "code": "laboratory"
              }
            ]
          }
        ],
        "code": {
          "coding": [
            {
              "code": "5794-3",
              "system": "http://loinc.org",
              "display": "Hemoglobin [Presence] in Urine by Test strip"
            }
          ],
          "text": "Hemoglobin [Presence] in Urine by Test strip"
        },
        "text": {
          "status": "generated",
          "div": "<div xmlns=\"http://www.w3.org/1999/xhtml\"><table class=\"hl7__eu__lab__report\"><tr><th>Test</th><th>13-Dec-2023</th><th>Reference&#xA0;Range</th><th>Unit</th></tr><tr><td>Hemoglobin [Presence] in Urine by Test strip</td></tr></table></div>"
        },
        "status": "final",
        "subject": {
          "reference": "urn:uuid:79baca73-4b82-44bf-a6eb-17ec6946d4c3",
          "display": "Θεμιστοκλής Λιναρδάκη"
        },
        "effectiveDateTime": "2023-12-13T06:16:00Z",
        "specimen": {
          "reference": "urn:uuid:5d1ce6bf-0e2f-4071-9796-b5130965563d"
        }
      }
    },
    {
      "fullUrl": "urn:uuid:90640117-2312-4068-968d-e35f7d8cf35c",
      "resource": {
        "resourceType": "Observation",
        "id": "90640117-2312-4068-968d-e35f7d8cf35c",
        "meta": {
          "profile": [
            "http://hl7.eu/fhir/laboratory/StructureDefinition/Observation-resultslab-eu-lab"
          ]
        },
        "performer": [
          {
            "display": "The Central European Lab"
          }
        ],
        "category": [
          {
            "coding": [
              {
                "system": "http://terminology.hl7.org/CodeSystem/observation-category",
                "code": "laboratory"
              }
            ]
          }
        ],
        "code": {
          "coding": [
            {
              "code": "5799-2",
              "system": "http://loinc.org",
              "display": "Leukocyte esterase [Presence] in Urine by Test strip"
            }
          ],
          "text": "Leukocyte esterase [Presence] in Urine by Test strip"
        },
        "text": {
          "status": "generated",
          "div": "<div xmlns=\"http://www.w3.org/1999/xhtml\"><table class=\"hl7__eu__lab__report\"><tr><th>Test</th><th>13-Dec-2023</th><th>Reference&#xA0;Range</th><th>Unit</th></tr><tr><td>Leukocyte esterase [Presence] in Urine by Test strip</td></tr></table></div>"
        },
        "status": "final",
        "subject": {
          "reference": "urn:uuid:79baca73-4b82-44bf-a6eb-17ec6946d4c3",
          "display": "Θεμιστοκλής Λιναρδάκη"
        },
        "effectiveDateTime": "2023-12-13T06:16:00Z",
        "specimen": {
          "reference": "urn:uuid:5d1ce6bf-0e2f-4071-9796-b5130965563d"
        }
      }
    },
    {
      "fullUrl": "urn:uuid:bc6b3baf-c401-4fd7-88df-22249cb826ba",
      "resource": {
        "resourceType": "Observation",
        "id": "bc6b3baf-c401-4fd7-88df-22249cb826ba",
        "meta": {
          "profile": [
            "http://hl7.eu/fhir/laboratory/StructureDefinition/Observation-resultslab-eu-lab"
          ]
        },
        "performer": [
          {
            "display": "The Central European Lab"
          }
        ],
        "category": [
          {
            "coding": [
              {
                "system": "http://terminology.hl7.org/CodeSystem/observation-category",
                "code": "laboratory"
              }
            ]
          }
        ],
        "code": {
          "coding": [
            {
              "code": "4548-4",
              "system": "http://loinc.org",
              "display": "Hemoglobin A1c/Hemoglobin.total in Blood"
            }
          ],
          "text": "Hemoglobin A1c/Hemoglobin.total in Blood"
        },
        "valueQuantity": {
          "system": "http://unitsofmeasure.org",
          "value": 3.2,
          "unit": "%",
          "code": "%"
        },
        "referenceRange": [
          {
            "low": {
              "value": 4.3,
              "code": "%",
              "system": "http://unitsofmeasure.org"
            }
          },
          {
            "high": {
              "value": 6.4,
              "code": "%",
              "system": "http://unitsofmeasure.org"
            }
          }
        ],
        "interpretation": [
          {
            "coding": [
              {
                "code": "L",
                "system": "http://terminology.hl7.org/CodeSystem/v3-ObservationInterpretation",
                "display": "Low"
              }
            ]
          }
        ],
        "text": {
          "status": "generated",
          "div": "<div xmlns=\"http://www.w3.org/1999/xhtml\"><table class=\"hl7__eu__lab__report\"><tr><th>Test</th><th>13-Dec-2023</th><th>Reference&#xA0;Range</th><th>Unit</th></tr><tr><td>Hemoglobin A1c/Hemoglobin.total in Blood</td><td>3.2</td><td>4.3 - 6.4</td><td>L</td><td>%</td></tr></table></div>"
        },
        "status": "final",
        "subject": {
          "reference": "urn:uuid:79baca73-4b82-44bf-a6eb-17ec6946d4c3",
          "display": "Θεμιστοκλής Λιναρδάκη"
        },
        "effectiveDateTime": "2023-12-13T06:16:00Z",
        "specimen": {
          "reference": "urn:uuid:0198cd86-9e74-46cc-bba8-1713863f250e"
        }
      }
    },
    {
      "fullUrl": "urn:uuid:8fee0b9f-24a7-4704-a6c7-6e2a91885ea7",
      "resource": {
        "resourceType": "Observation",
        "id": "8fee0b9f-24a7-4704-a6c7-6e2a91885ea7",
        "meta": {
          "profile": [
            "http://hl7.eu/fhir/laboratory/StructureDefinition/Observation-resultslab-eu-lab"
          ]
        },
        "performer": [
          {
            "display": "The Central European Lab"
          }
        ],
        "category": [
          {
            "coding": [
              {
                "system": "http://terminology.hl7.org/CodeSystem/observation-category",
                "code": "laboratory"
              }
            ]
          }
        ],
        "code": {
          "coding": [
            {
              "code": "2339-0",
              "system": "http://loinc.org",
              "display": "Glucose [Mass/volume] in Blood"
            }
          ],
          "text": "Glucose [Mass/volume] in Blood"
        },
        "valueQuantity": {
          "system": "http://unitsofmeasure.org",
          "value": 92.6,
          "unit": "mg/dL",
          "code": "mg/dL"
        },
        "referenceRange": [
          {
            "low": {
              "value": 70,
              "code": "mg/dL",
              "system": "http://unitsofmeasure.org"
            }
          },
          {
            "high": {
              "value": 140,
              "code": "mg/dL",
              "system": "http://unitsofmeasure.org"
            }
          }
        ],
        "text": {
          "status": "generated",
          "div": "<div xmlns=\"http://www.w3.org/1999/xhtml\"><table class=\"hl7__eu__lab__report\"><tr><th>Test</th><th>13-Dec-2023</th><th>Reference&#xA0;Range</th><th>Unit</th></tr><tr><td>Glucose [Mass/volume] in Blood</td><td>92.6</td><td>70 - 140</td><td></td><td>mg/dL</td></tr></table></div>"
        },
        "status": "final",
        "subject": {
          "reference": "urn:uuid:79baca73-4b82-44bf-a6eb-17ec6946d4c3",
          "display": "Θεμιστοκλής Λιναρδάκη"
        },
        "effectiveDateTime": "2023-12-13T06:16:00Z",
        "specimen": {
          "reference": "urn:uuid:0198cd86-9e74-46cc-bba8-1713863f250e"
        }
      }
    },
    {
      "fullUrl": "urn:uuid:0107e372-805f-4257-a4e4-b6e4a94694f9",
      "resource": {
        "resourceType": "Observation",
        "id": "0107e372-805f-4257-a4e4-b6e4a94694f9",
        "meta": {
          "profile": [
            "http://hl7.eu/fhir/laboratory/StructureDefinition/Observation-resultslab-eu-lab"
          ]
        },
        "performer": [
          {
            "display": "The Central European Lab"
          }
        ],
        "category": [
          {
            "coding": [
              {
                "system": "http://terminology.hl7.org/CodeSystem/observation-category",
                "code": "laboratory"
              }
            ]
          }
        ],
        "code": {
          "coding": [
            {
              "code": "6299-2",
              "system": "http://loinc.org",
              "display": "Urea nitrogen [Mass/volume] in Blood"
            }
          ],
          "text": "Urea nitrogen [Mass/volume] in Blood"
        },
        "valueQuantity": {
          "system": "http://unitsofmeasure.org",
          "value": 9.8,
          "unit": "mg/dL",
          "code": "mg/dL"
        },
        "referenceRange": [
          {
            "low": {
              "value": 7,
              "code": "mg/dL",
              "system": "http://unitsofmeasure.org"
            }
          },
          {
            "high": {
              "value": 20,
              "code": "mg/dL",
              "system": "http://unitsofmeasure.org"
            }
          }
        ],
        "text": {
          "status": "generated",
          "div": "<div xmlns=\"http://www.w3.org/1999/xhtml\"><table class=\"hl7__eu__lab__report\"><tr><th>Test</th><th>13-Dec-2023</th><th>Reference&#xA0;Range</th><th>Unit</th></tr><tr><td>Urea nitrogen [Mass/volume] in Blood</td><td>9.8</td><td>7 - 20</td><td></td><td>mg/dL</td></tr></table></div>"
        },
        "status": "final",
        "subject": {
          "reference": "urn:uuid:79baca73-4b82-44bf-a6eb-17ec6946d4c3",
          "display": "Θεμιστοκλής Λιναρδάκη"
        },
        "effectiveDateTime": "2023-12-13T06:16:00Z",
        "specimen": {
          "reference": "urn:uuid:0198cd86-9e74-46cc-bba8-1713863f250e"
        }
      }
    },
    {
      "fullUrl": "urn:uuid:06c7d62a-b0d9-44dc-9b74-bfdf5e9434af",
      "resource": {
        "resourceType": "Observation",
        "id": "06c7d62a-b0d9-44dc-9b74-bfdf5e9434af",
        "meta": {
          "profile": [
            "http://hl7.eu/fhir/laboratory/StructureDefinition/Observation-resultslab-eu-lab"
          ]
        },
        "performer": [
          {
            "display": "The Central European Lab"
          }
        ],
        "category": [
          {
            "coding": [
              {
                "system": "http://terminology.hl7.org/CodeSystem/observation-category",
                "code": "laboratory"
              }
            ]
          }
        ],
        "code": {
          "coding": [
            {
              "code": "38483-4",
              "system": "http://loinc.org",
              "display": "Creatinine [Mass/volume] in Blood"
            }
          ],
          "text": "Creatinine [Mass/volume] in Blood"
        },
        "valueQuantity": {
          "system": "http://unitsofmeasure.org",
          "value": 7,
          "unit": "mg/dL",
          "code": "mg/dL"
        },
        "referenceRange": [
          {
            "low": {
              "value": 0.6,
              "code": "mg/dL",
              "system": "http://unitsofmeasure.org"
            }
          },
          {
            "high": {
              "value": 1.3,
              "code": "mg/dL",
              "system": "http://unitsofmeasure.org"
            }
          }
        ],
        "interpretation": [
          {
            "coding": [
              {
                "code": "H",
                "system": "http://terminology.hl7.org/CodeSystem/v3-ObservationInterpretation",
                "display": "High"
              }
            ]
          }
        ],
        "text": {
          "status": "generated",
          "div": "<div xmlns=\"http://www.w3.org/1999/xhtml\"><table class=\"hl7__eu__lab__report\"><tr><th>Test</th><th>13-Dec-2023</th><th>Reference&#xA0;Range</th><th>Unit</th></tr><tr><td>Creatinine [Mass/volume] in Blood</td><td>7.0</td><td>0.6 - 1.3</td><td>H</td><td>mg/dL</td></tr></table></div>"
        },
        "status": "final",
        "subject": {
          "reference": "urn:uuid:79baca73-4b82-44bf-a6eb-17ec6946d4c3",
          "display": "Θεμιστοκλής Λιναρδάκη"
        },
        "effectiveDateTime": "2023-12-13T06:16:00Z",
        "specimen": {
          "reference": "urn:uuid:0198cd86-9e74-46cc-bba8-1713863f250e"
        }
      }
    },
    {
      "fullUrl": "urn:uuid:5aaac47d-a2f6-4459-81fd-074f6ef8a6ed",
      "resource": {
        "resourceType": "Observation",
        "id": "5aaac47d-a2f6-4459-81fd-074f6ef8a6ed",
        "meta": {
          "profile": [
            "http://hl7.eu/fhir/laboratory/StructureDefinition/Observation-resultslab-eu-lab"
          ]
        },
        "performer": [
          {
            "display": "The Central European Lab"
          }
        ],
        "category": [
          {
            "coding": [
              {
                "system": "http://terminology.hl7.org/CodeSystem/observation-category",
                "code": "laboratory"
              }
            ]
          }
        ],
        "code": {
          "coding": [
            {
              "code": "49765-1",
              "system": "http://loinc.org",
              "display": "Calcium [Mass/volume] in Blood"
            }
          ],
          "text": "Calcium [Mass/volume] in Blood"
        },
        "valueQuantity": {
          "system": "http://unitsofmeasure.org",
          "value": 8.8,
          "unit": "mg/dL",
          "code": "mg/dL"
        },
        "referenceRange": [
          {
            "low": {
              "value": 8.5,
              "code": "mg/dL",
              "system": "http://unitsofmeasure.org"
            }
          },
          {
            "high": {
              "value": 10.5,
              "code": "mg/dL",
              "system": "http://unitsofmeasure.org"
            }
          }
        ],
        "text": {
          "status": "generated",
          "div": "<div xmlns=\"http://www.w3.org/1999/xhtml\"><table class=\"hl7__eu__lab__report\"><tr><th>Test</th><th>13-Dec-2023</th><th>Reference&#xA0;Range</th><th>Unit</th></tr><tr><td>Calcium [Mass/volume] in Blood</td><td>8.8</td><td>8.5 - 10.5</td><td></td><td>mg/dL</td></tr></table></div>"
        },
        "status": "final",
        "subject": {
          "reference": "urn:uuid:79baca73-4b82-44bf-a6eb-17ec6946d4c3",
          "display": "Θεμιστοκλής Λιναρδάκη"
        },
        "effectiveDateTime": "2023-12-13T06:16:00Z",
        "specimen": {
          "reference": "urn:uuid:0198cd86-9e74-46cc-bba8-1713863f250e"
        }
      }
    },
    {
      "fullUrl": "urn:uuid:68917425-dffd-43f4-9707-70d028c5c740",
      "resource": {
        "resourceType": "Observation",
        "id": "68917425-dffd-43f4-9707-70d028c5c740",
        "meta": {
          "profile": [
            "http://hl7.eu/fhir/laboratory/StructureDefinition/Observation-resultslab-eu-lab"
          ]
        },
        "performer": [
          {
            "display": "The Central European Lab"
          }
        ],
        "category": [
          {
            "coding": [
              {
                "system": "http://terminology.hl7.org/CodeSystem/observation-category",
                "code": "laboratory"
              }
            ]
          }
        ],
        "code": {
          "coding": [
            {
              "code": "2947-0",
              "system": "http://loinc.org",
              "display": "Sodium [Moles/volume] in Blood"
            }
          ],
          "text": "Sodium [Moles/volume] in Blood"
        },
        "valueQuantity": {
          "system": "http://unitsofmeasure.org",
          "value": 136.4,
          "unit": "mmol/L",
          "code": "mmol/L"
        },
        "referenceRange": [
          {
            "low": {
              "value": 135,
              "code": "mmol/L",
              "system": "http://unitsofmeasure.org"
            }
          },
          {
            "high": {
              "value": 145,
              "code": "mmol/L",
              "system": "http://unitsofmeasure.org"
            }
          }
        ],
        "text": {
          "status": "generated",
          "div": "<div xmlns=\"http://www.w3.org/1999/xhtml\"><table class=\"hl7__eu__lab__report\"><tr><th>Test</th><th>13-Dec-2023</th><th>Reference&#xA0;Range</th><th>Unit</th></tr><tr><td>Sodium [Moles/volume] in Blood</td><td>136.4</td><td>135 - 145</td><td></td><td>mmol/L</td></tr></table></div>"
        },
        "status": "final",
        "subject": {
          "reference": "urn:uuid:79baca73-4b82-44bf-a6eb-17ec6946d4c3",
          "display": "Θεμιστοκλής Λιναρδάκη"
        },
        "effectiveDateTime": "2023-12-13T06:16:00Z",
        "specimen": {
          "reference": "urn:uuid:0198cd86-9e74-46cc-bba8-1713863f250e"
        }
      }
    },
    {
      "fullUrl": "urn:uuid:4bac2e82-dfd9-4d33-b3d3-0bc2901c34cd",
      "resource": {
        "resourceType": "Observation",
        "id": "4bac2e82-dfd9-4d33-b3d3-0bc2901c34cd",
        "meta": {
          "profile": [
            "http://hl7.eu/fhir/laboratory/StructureDefinition/Observation-resultslab-eu-lab"
          ]
        },
        "performer": [
          {
            "display": "The Central European Lab"
          }
        ],
        "category": [
          {
            "coding": [
              {
                "system": "http://terminology.hl7.org/CodeSystem/observation-category",
                "code": "laboratory"
              }
            ]
          }
        ],
        "code": {
          "coding": [
            {
              "code": "6298-4",
              "system": "http://loinc.org",
              "display": "Potassium [Moles/volume] in Blood"
            }
          ],
          "text": "Potassium [Moles/volume] in Blood"
        },
        "valueQuantity": {
          "system": "http://unitsofmeasure.org",
          "value": 4.5,
          "unit": "mmol/L",
          "code": "mmol/L"
        },
        "referenceRange": [
          {
            "low": {
              "value": 3.5,
              "code": "mmol/L",
              "system": "http://unitsofmeasure.org"
            }
          },
          {
            "high": {
              "value": 5.3,
              "code": "mmol/L",
              "system": "http://unitsofmeasure.org"
            }
          }
        ],
        "text": {
          "status": "generated",
          "div": "<div xmlns=\"http://www.w3.org/1999/xhtml\"><table class=\"hl7__eu__lab__report\"><tr><th>Test</th><th>13-Dec-2023</th><th>Reference&#xA0;Range</th><th>Unit</th></tr><tr><td>Potassium [Moles/volume] in Blood</td><td>4.5</td><td>3.5 - 5.3</td><td></td><td>mmol/L</td></tr></table></div>"
        },
        "status": "final",
        "subject": {
          "reference": "urn:uuid:79baca73-4b82-44bf-a6eb-17ec6946d4c3",
          "display": "Θεμιστοκλής Λιναρδάκη"
        },
        "effectiveDateTime": "2023-12-13T06:16:00Z",
        "specimen": {
          "reference": "urn:uuid:0198cd86-9e74-46cc-bba8-1713863f250e"
        }
      }
    },
    {
      "fullUrl": "urn:uuid:27e3691d-fb2a-47af-a14e-899832be478c",
      "resource": {
        "resourceType": "Observation",
        "id": "27e3691d-fb2a-47af-a14e-899832be478c",
        "meta": {
          "profile": [
            "http://hl7.eu/fhir/laboratory/StructureDefinition/Observation-resultslab-eu-lab"
          ]
        },
        "performer": [
          {
            "display": "The Central European Lab"
          }
        ],
        "category": [
          {
            "coding": [
              {
                "system": "http://terminology.hl7.org/CodeSystem/observation-category",
                "code": "laboratory"
              }
            ]
          }
        ],
        "code": {
          "coding": [
            {
              "code": "2069-3",
              "system": "http://loinc.org",
              "display": "Chloride [Moles/volume] in Blood"
            }
          ],
          "text": "Chloride [Moles/volume] in Blood"
        },
        "valueQuantity": {
          "system": "http://unitsofmeasure.org",
          "value": 109.8,
          "unit": "mmol/L",
          "code": "mmol/L"
        },
        "referenceRange": [
          {
            "low": {
              "value": 98,
              "code": "mmol/L",
              "system": "http://unitsofmeasure.org"
            }
          },
          {
            "high": {
              "value": 110,
              "code": "mmol/L",
              "system": "http://unitsofmeasure.org"
            }
          }
        ],
        "text": {
          "status": "generated",
          "div": "<div xmlns=\"http://www.w3.org/1999/xhtml\"><table class=\"hl7__eu__lab__report\"><tr><th>Test</th><th>13-Dec-2023</th><th>Reference&#xA0;Range</th><th>Unit</th></tr><tr><td>Chloride [Moles/volume] in Blood</td><td>109.8</td><td>98 - 110</td><td></td><td>mmol/L</td></tr></table></div>"
        },
        "status": "final",
        "subject": {
          "reference": "urn:uuid:79baca73-4b82-44bf-a6eb-17ec6946d4c3",
          "display": "Θεμιστοκλής Λιναρδάκη"
        },
        "effectiveDateTime": "2023-12-13T06:16:00Z",
        "specimen": {
          "reference": "urn:uuid:0198cd86-9e74-46cc-bba8-1713863f250e"
        }
      }
    },
    {
      "fullUrl": "urn:uuid:c22aa1a5-8c3c-4d62-8df7-b76d86d1d340",
      "resource": {
        "resourceType": "Observation",
        "id": "c22aa1a5-8c3c-4d62-8df7-b76d86d1d340",
        "meta": {
          "profile": [
            "http://hl7.eu/fhir/laboratory/StructureDefinition/Observation-resultslab-eu-lab"
          ]
        },
        "performer": [
          {
            "display": "The Central European Lab"
          }
        ],
        "category": [
          {
            "coding": [
              {
                "system": "http://terminology.hl7.org/CodeSystem/observation-category",
                "code": "laboratory"
              }
            ]
          }
        ],
        "code": {
          "coding": [
            {
              "code": "20565-8",
              "system": "http://loinc.org",
              "display": "Carbon dioxide, total [Moles/volume] in Blood"
            }
          ],
          "text": "Carbon dioxide, total [Moles/volume] in Blood"
        },
        "valueQuantity": {
          "system": "http://unitsofmeasure.org",
          "value": 27.8,
          "unit": "mmol/L",
          "code": "mmol/L"
        },
        "referenceRange": [
          {
            "low": {
              "value": 22,
              "code": "mmol/L",
              "system": "http://unitsofmeasure.org"
            }
          },
          {
            "high": {
              "value": 29,
              "code": "mmol/L",
              "system": "http://unitsofmeasure.org"
            }
          }
        ],
        "text": {
          "status": "generated",
          "div": "<div xmlns=\"http://www.w3.org/1999/xhtml\"><table class=\"hl7__eu__lab__report\"><tr><th>Test</th><th>13-Dec-2023</th><th>Reference&#xA0;Range</th><th>Unit</th></tr><tr><td>Carbon dioxide, total [Moles/volume] in Blood</td><td>27.8</td><td>22 - 29</td><td></td><td>mmol/L</td></tr></table></div>"
        },
        "status": "final",
        "subject": {
          "reference": "urn:uuid:79baca73-4b82-44bf-a6eb-17ec6946d4c3",
          "display": "Θεμιστοκλής Λιναρδάκη"
        },
        "effectiveDateTime": "2023-12-13T06:16:00Z",
        "specimen": {
          "reference": "urn:uuid:0198cd86-9e74-46cc-bba8-1713863f250e"
        }
      }
    },
    {
      "fullUrl": "urn:uuid:778908b5-4675-4dff-a08c-30a8e6c131ab",
      "resource": {
        "resourceType": "Device",
        "id": "778908b5-4675-4dff-a08c-30a8e6c131ab",
        "deviceName": [
          {
            "name": "SYNDERAI Synthetic Generator",
            "type": "manufacturer-name"
          }
        ],
        "version": [
          {
            "value": "5.0"
          }
        ],
        "text": {
          "status": "generated",
          "div": "<div xmlns=\"http://www.w3.org/1999/xhtml\">SYNDERAI Synthetic Generator v5.0</div>"
        },
        "status": "active\"",
        "distinctIdentifier": "synderai-generator-50",
        "manufacturer": "SYNDERAI Project"
      }
    },
    {
      "fullUrl": "urn:uuid:8c57f809-8599-4c49-a221-46c2272a5b99",
      "resource": {
        "resourceType": "Provenance",
        "id": "8c57f809-8599-4c49-a221-46c2272a5b99",
        "target": [
          {
            "reference": "Patient/79baca73-4b82-44bf-a6eb-17ec6946d4c3"
          },
          {
            "reference": "Bundle/fb8ca1ad-2aaf-4dfe-9f6d-f6a49b02a5c8"
          },
          {
            "reference": "Composition/58539611-0795-4e84-aebb-914341405479"
          },
          {
            "reference": "PractitionerRole/a5fbe977-bd2c-4bd5-91e6-b5ba330107d9"
          },
          {
            "reference": "Practitioner/a3b58e06-9792-47d4-a349-7d42da3b5936"
          },
          {
            "reference": "PractitionerRole/6527f04a-919d-474a-8828-4dd278013221"
          },
          {
            "reference": "Organization/250631d9-b47b-4474-a555-7c201e531109"
          }
        ],
        "activity": {
          "text": "Synthetic Example Data Generation"
        },
        "policy": [
          "https://synderai.net/synderai-synthetic-data-policy"
        ],
        "agent": [
          {
            "type": {
              "text": "author"
            },
            "who": {
              "reference": "Device/778908b5-4675-4dff-a08c-30a8e6c131ab"
            }
          }
        ],
        "reason": [
          {
            "text": "Interoperability Testing and Training (non-clinical use)"
          }
        ],
        "text": {
          "status": "generated",
          "div": "<div xmlns=\"http://www.w3.org/1999/xhtml\">Provenance for SYNDERAI Synthetic Example Data Resource</div>"
        },
        "recorded": "2023-12-13T07:16:00Z"
      }
    },
    {
      "fullUrl": "urn:uuid:a5fbe977-bd2c-4bd5-91e6-b5ba330107d9",
      "resource": {
        "resourceType": "PractitionerRole",
        "id": "a5fbe977-bd2c-4bd5-91e6-b5ba330107d9",
        "meta": {
          "profile": [
            "http://hl7.eu/fhir/base/StructureDefinition/practitionerRole-eu"
          ]
        },
        "text": {
          "status": "generated",
          "div": "<div xmlns=\"http://www.w3.org/1999/xhtml\">Laboratory Role Id: a5fbe977-bd2c-4bd5-91e6-b5ba330107d9</div>"
        },
        "practitioner": {
          "reference": "urn:uuid:a3b58e06-9792-47d4-a349-7d42da3b5936"
        }
      }
    },
    {
      "fullUrl": "urn:uuid:a3b58e06-9792-47d4-a349-7d42da3b5936",
      "resource": {
        "resourceType": "Practitioner",
        "id": "a3b58e06-9792-47d4-a349-7d42da3b5936",
        "meta": {
          "profile": [
            "http://hl7.eu/fhir/base/StructureDefinition/practitioner-eu"
          ]
        },
        "identifier": [
          {
            "assigner": {
              "display": "HL7 Europe"
            },
            "system": "urn:oid:2.16.840.1.113883.2.51.999",
            "value": "626f6019-f5ad-45a2-8874-434daacc0cd5"
          }
        ],
        "name": [
          {
            "prefix": [
              "dr"
            ],
            "given": [
              "Ex"
            ],
            "family": "Ample"
          }
        ],
        "address": [
          {
            "line": [
              "Laboratoire Central Européenne",
              "Boulevard du Jardin Botanique 32"
            ],
            "postalCode": "1000",
            "city": "Brussels",
            "country": "Belgium"
          }
        ],
        "text": {
          "status": "generated",
          "div": "<div xmlns=\"http://www.w3.org/1999/xhtml\">Laboratory: Laboratoire Central Européenne, 1000 Brussels, Belgium</div>"
        }
      }
    }
  ],
  "type": "document",
  "timestamp": "2023-12-13T07:16:00Z"
}
