{
  "resourceType": "Bundle",
  "id": "cee304bd-7887-4291-8054-991cbfeff8a9",
  "meta": {
    "profile": [
      "http://hl7.eu/fhir/laboratory/StructureDefinition/Bundle-eu-lab"
    ]
  },
  "identifier": {
    "assigner": {
      "display": "HL7 Europe"
    },
    "system": "urn:oid:2.16.840.1.113883.2.51.999",
    "value": "ad53658c-a9d2-4583-b44a-9d9cfe2927a8"
  },
  "entry": [
    {
      "fullUrl": "urn:uuid:8218e728-1558-421f-8d32-f39a7f33bb9a",
      "resource": {
        "resourceType": "Composition",
        "id": "8218e728-1558-421f-8d32-f39a7f33bb9a",
        "meta": {
          "profile": [
            "http://hl7.eu/fhir/laboratory/StructureDefinition/Composition-eu-lab"
          ]
        },
        "identifier": {
          "assigner": {
            "display": "HL7 Europe"
          },
          "system": "urn:oid:2.16.840.1.113883.2.51.999",
          "value": "d482c34a-a489-45c9-b9e0-6a4bb8bccc80"
        },
        "author": [
          {
            "reference": "urn:uuid:04950925-e143-4698-90bf-aef499a1d505"
          }
        ],
        "category": [
          {
            "coding": [
              {
                "code": "26436-6",
                "system": "http://loinc.org",
                "display": "Laboratory studies (set)"
              }
            ]
          }
        ],
        "type": {
          "coding": [
            {
              "code": "11502-2",
              "system": "http://loinc.org",
              "display": "Laboratory report"
            }
          ],
          "text": "Laboratory Report"
        },
        "section": [
          {
            "code": {
              "coding": [
                {
                  "code": "26436-6",
                  "system": "http://loinc.org",
                  "display": "Laboratory studies (set)"
                }
              ],
              "text": "Laboratory studies"
            },
            "section": [
              {
                "code": {
                  "coding": [
                    {
                      "code": "$18719-5",
                      "system": "http://loinc.org",
                      "display": "Chemistry studies (set)"
                    }
                  ],
                  "text": "Chemistry"
                },
                "entry": [
                  {
                    "reference": "urn:uuid:7b146976-500e-434e-9005-84a25b9c2577"
                  },
                  {
                    "reference": "urn:uuid:bbffefcd-3836-4817-8716-36a94cfb6098"
                  },
                  {
                    "reference": "urn:uuid:a7ff2fd0-9ad8-460f-9f34-4c88ebf60b0a"
                  },
                  {
                    "reference": "urn:uuid:ae9f7afa-1e42-4ed3-9f52-548fd0c02e9e"
                  },
                  {
                    "reference": "urn:uuid:7cc1c0ab-cdf7-46f5-8157-ddcbf1de915f"
                  },
                  {
                    "reference": "urn:uuid:d9bb58bc-a57b-4577-98d2-7b8038afd806"
                  },
                  {
                    "reference": "urn:uuid:83b481d6-5808-4f2c-82bf-66ce343bb671"
                  },
                  {
                    "reference": "urn:uuid:7caa5e0f-5063-45ee-90d1-620654e8f798"
                  },
                  {
                    "reference": "urn:uuid:030d8615-5088-4779-9bcd-ce854d350249"
                  },
                  {
                    "reference": "urn:uuid:97ebda79-f063-4c22-a15d-15a72f593711"
                  },
                  {
                    "reference": "urn:uuid:eb5dc29d-ac3b-482c-80d6-0372c5a26da7"
                  },
                  {
                    "reference": "urn:uuid:001e14e0-971a-4e9d-b114-5a44e74ba6b7"
                  },
                  {
                    "reference": "urn:uuid:030aee83-f548-49f0-9442-8678d09c7451"
                  },
                  {
                    "reference": "urn:uuid:dc94148d-8506-4f27-9101-884e4a9a3dca"
                  },
                  {
                    "reference": "urn:uuid:3df4ad77-b467-4c1c-ba05-8c797c54009a"
                  },
                  {
                    "reference": "urn:uuid:ff7a97ad-f44d-4ecc-ab3c-9405a31bac54"
                  },
                  {
                    "reference": "urn:uuid:f9eb9f90-3eab-48f9-9fa6-a06f03e56be3"
                  },
                  {
                    "reference": "urn:uuid:594bff6a-ed6e-425c-84c2-d136f0a2b957"
                  },
                  {
                    "reference": "urn:uuid:728a974f-382a-49af-9ef5-9a7f083af0f0"
                  }
                ],
                "text": {
                  "status": "generated",
                  "div": "<div xmlns=\"http://www.w3.org/1999/xhtml\"><h3>Chemistry</h3><table class=\"hl7__eu__lab__report\"><thead><tr><th>Test</th><th>29-MAR-2022</th><th>Reference&#xA0;Range</th><th>Unit</th></tr></thead><tbody><tr><td>Glucose [Mass/volume] in Blood</td><td>80.1</td><td>70 - 140</td><td>mg/dL</td></tr><tr><td>Urea nitrogen [Mass/volume] in Blood</td><td>10.5</td><td>7 - 20</td><td>mg/dL</td></tr><tr><td>Creatinine [Mass/volume] in Blood</td><td><strong>3.3 H</strong></td><td>0.5 - 1.3</td><td>mg/dL</td></tr><tr><td>Calcium [Mass/volume] in Blood</td><td>8.6</td><td>8.5 - 10.5</td><td>mg/dL</td></tr><tr><td>Sodium [Moles/volume] in Blood</td><td>136.8</td><td>135 - 145</td><td>mmol/L</td></tr><tr><td>Potassium [Moles/volume] in Blood</td><td>5.1</td><td>3.5 - 5.1</td><td>mmol/L</td></tr><tr><td>Chloride [Moles/volume] in Blood</td><td>106.0</td><td>98 - 108</td><td>mmol/L</td></tr><tr><td>Carbon dioxide, total [Moles/volume] in Blood</td><td><strong>21.7 L</strong></td><td>22 - 29</td><td>mmol/L</td></tr><tr><td>Protein [Mass/volume] in Serum or Plasma</td><td>7.3</td><td>6 - 8.2</td><td>g/dL</td></tr><tr><td>Albumin [Mass/volume] in Serum or Plasma</td><td><strong>5.5 H</strong></td><td>3.5 - 5</td><td>g/dL</td></tr><tr><td>Globulin [Mass/volume] in Serum by calculation</td><td>2.5</td><td>2 - 4</td><td>g/L</td></tr><tr><td>Bilirubin.total [Mass/volume] in Serum or Plasma</td><td><strong>0.1 L</strong></td><td>0.3 - 1.2</td><td>mg/dL</td></tr><tr><td>Alkaline phosphatase [Enzymatic activity/volume] in Serum or Plasma</td><td>63.3</td><td>35 - 141</td><td>U/L</td></tr><tr><td>Alanine aminotransferase [Enzymatic activity/volume] in Serum or Plasma</td><td>43.6</td><td>7 - 60</td><td>U/L</td></tr><tr><td>Aspartate aminotransferase [Enzymatic activity/volume] in Serum or Plasma</td><td>31.9</td><td>10 - 40</td><td>U/L</td></tr><tr><td>Cholesterol [Mass/volume] in Serum or Plasma</td><td><strong>206.7 H</strong></td><td>0 - 200</td><td>mg/dL</td></tr><tr><td>Triglyceride [Mass/volume] in Serum or Plasma</td><td>124.1</td><td>0 - 199</td><td>mg/dL</td></tr><tr><td>Cholesterol in LDL [Mass/volume] in Serum or Plasma by Direct assay</td><td>112.1</td><td>0 - 130</td><td>mg/dL</td></tr><tr><td>Cholesterol in HDL [Mass/volume] in Serum or Plasma</td><td>74.1</td><td>46 - 77</td><td>mg/dL</td></tr></tbody></table></div>"
                },
                "title": "Chemistry"
              }
            ],
            "title": "Laboratory Report"
          },
          {
            "text": {
              "status": "generated",
              "div": "<div xmlns=\"http://www.w3.org/1999/xhtml\"><h3>Annotation</h3><table class=\"hl7__eu__lab__report\"><tr><th>Conclusion and Recommendations based on this report and previous findings known to us</th></tr><tr><td>The patient shows elevated creatinine, suggesting impaired renal function, and mildly low total CO₂, which may indicate mild metabolic acidosis. Albumin and cholesterol are slightly elevated but not critical. Other parameters, including electrolytes, liver enzymes, and lipid profile, are within or near normal limits. Renal function should be further evaluated and monitored.</td></tr></table></div>"
            },
            "code": {
              "coding": [
                {
                  "system": "http://loinc.org",
                  "code": "48767-8",
                  "display": "Annotation comment"
                }
              ]
            },
            "title": "Annotation comment"
          }
        ],
        "status": "final",
        "subject": {
          "reference": "urn:uuid:07eb1cbf-e83a-47cb-9f4c-d37564e9dfee",
          "display": "Marlene Gerlach"
        },
        "date": "2022-03-29T21:24:33Z",
        "title": "Laboratory Report",
        "confidentiality": "N"
      }
    },
    {
      "fullUrl": "urn:uuid:1534a542-13ba-4336-a905-7fe35e9b9c9a",
      "resource": {
        "resourceType": "DiagnosticReport",
        "id": "1534a542-13ba-4336-a905-7fe35e9b9c9a",
        "meta": {
          "profile": [
            "http://hl7.eu/fhir/laboratory/StructureDefinition/DiagnosticReport-eu-lab"
          ]
        },
        "identifier": [
          {
            "assigner": {
              "display": "HL7 Europe"
            },
            "system": "urn:oid:2.16.840.1.113883.2.51.999",
            "value": "ad742467-fb69-4840-ac78-5a397d3a26cb"
          }
        ],
        "extension": [
          {
            "url": "http://hl7.org/fhir/5.0/StructureDefinition/extension-DiagnosticReport.composition",
            "valueReference": {
              "reference": "urn:uuid:d482c34a-a489-45c9-b9e0-6a4bb8bccc80"
            }
          }
        ],
        "category": [
          {
            "coding": [
              {
                "code": "26436-6",
                "system": "http://loinc.org",
                "display": "Laboratory studies (set)"
              }
            ]
          }
        ],
        "specimen": [
          {
            "reference": "urn:uuid:3c39b432-4733-49ab-9bf9-bd7046c0d907"
          },
          {
            "reference": "urn:uuid:ad60b150-cf18-4fca-a3da-23723f53d974"
          },
          {
            "reference": "urn:uuid:2ad4252a-66b5-439f-b61b-91686c6c5efd"
          }
        ],
        "result": [
          {
            "reference": "urn:uuid:7b146976-500e-434e-9005-84a25b9c2577"
          },
          {
            "reference": "urn:uuid:bbffefcd-3836-4817-8716-36a94cfb6098"
          },
          {
            "reference": "urn:uuid:a7ff2fd0-9ad8-460f-9f34-4c88ebf60b0a"
          },
          {
            "reference": "urn:uuid:ae9f7afa-1e42-4ed3-9f52-548fd0c02e9e"
          },
          {
            "reference": "urn:uuid:7cc1c0ab-cdf7-46f5-8157-ddcbf1de915f"
          },
          {
            "reference": "urn:uuid:d9bb58bc-a57b-4577-98d2-7b8038afd806"
          },
          {
            "reference": "urn:uuid:83b481d6-5808-4f2c-82bf-66ce343bb671"
          },
          {
            "reference": "urn:uuid:7caa5e0f-5063-45ee-90d1-620654e8f798"
          },
          {
            "reference": "urn:uuid:030d8615-5088-4779-9bcd-ce854d350249"
          },
          {
            "reference": "urn:uuid:97ebda79-f063-4c22-a15d-15a72f593711"
          },
          {
            "reference": "urn:uuid:eb5dc29d-ac3b-482c-80d6-0372c5a26da7"
          },
          {
            "reference": "urn:uuid:001e14e0-971a-4e9d-b114-5a44e74ba6b7"
          },
          {
            "reference": "urn:uuid:030aee83-f548-49f0-9442-8678d09c7451"
          },
          {
            "reference": "urn:uuid:dc94148d-8506-4f27-9101-884e4a9a3dca"
          },
          {
            "reference": "urn:uuid:3df4ad77-b467-4c1c-ba05-8c797c54009a"
          },
          {
            "reference": "urn:uuid:ff7a97ad-f44d-4ecc-ab3c-9405a31bac54"
          },
          {
            "reference": "urn:uuid:f9eb9f90-3eab-48f9-9fa6-a06f03e56be3"
          },
          {
            "reference": "urn:uuid:594bff6a-ed6e-425c-84c2-d136f0a2b957"
          },
          {
            "reference": "urn:uuid:728a974f-382a-49af-9ef5-9a7f083af0f0"
          }
        ],
        "status": "registered",
        "code": {
          "coding": [
            {
              "code": "11502-2",
              "system": "http://loinc.org",
              "display": "Laboratory report"
            }
          ]
        },
        "subject": {
          "reference": "urn:uuid:07eb1cbf-e83a-47cb-9f4c-d37564e9dfee",
          "display": "Marlene Gerlach"
        }
      }
    },
    {
      "fullUrl": "urn:uuid:07eb1cbf-e83a-47cb-9f4c-d37564e9dfee",
      "resource": {
        "resourceType": "Patient",
        "id": "07eb1cbf-e83a-47cb-9f4c-d37564e9dfee",
        "meta": {
          "security": [
            {
              "system": "http://terminology.hl7.org/CodeSystem/v3-ActReason",
              "code": "HTEST"
            },
            {
              "system": "http://terminology.hl7.org/CodeSystem/v3-ActReason",
              "code": "TRAIN"
            }
          ],
          "tag": [
            {
              "system": "https://synderai.net/fhir/CodeSystem/tags",
              "code": "synthetic",
              "display": "SYNDERAI Synthetic data"
            }
          ],
          "profile": [
            "http://hl7.eu/fhir/base/StructureDefinition/patient-eu-core"
          ]
        },
        "identifier": [
          {
            "type": {
              "coding": [
                {
                  "code": "PT",
                  "system": "http://terminology.hl7.org/CodeSystem/v2-0203"
                }
              ]
            },
            "system": "http://ec.europa.eu/identifier/eci",
            "value": "4536-398571-9"
          },
          {
            "type": {
              "coding": [
                {
                  "code": "MR",
                  "system": "http://terminology.hl7.org/CodeSystem/v2-0203"
                }
              ]
            },
            "system": "http://local.setting.eu/identifier",
            "value": "ff7a4ff6-4bac-f07f-03c9-b91b1e1cfb23"
          }
        ],
        "name": [
          {
            "family": "Gerlach"
          },
          {
            "given": [
              "Marlene"
            ]
          },
          {
            "text": "Marlene Gerlach"
          }
        ],
        "address": [
          {
            "line": [
              "Etzlerplatz 57-53"
            ],
            "use": "home",
            "type": "physical",
            "postalCode": "71522",
            "city": "Backnang",
            "country": "Germany"
          }
        ],
        "telecom": [
          {
            "system": "phone",
            "value": "+49(0)2700 61724"
          }
        ],
        "extension": [
          {
            "url": "http://hl7.org/fhir/StructureDefinition/patient-nationality",
            "valueCodeableConcept": {
              "coding": [
                {
                  "code": "DE",
                  "system": "http://hl7.org/fhir/ValueSet/country"
                }
              ]
            }
          }
        ],
        "text": {
          "status": "generated",
          "div": "<div xmlns=\"http://www.w3.org/1999/xhtml\"><table class=\"hl7__ips\"><tr><td>Marlene Gerlach</td><td>female</td><td>28-Aug-1939</td></tr></table></div>"
        },
        "gender": "female",
        "birthDate": "1939-08-28"
      }
    },
    {
      "fullUrl": "urn:uuid:b94d9968-0d69-45c9-a8db-3e6dde469762",
      "resource": {
        "resourceType": "ServiceRequest",
        "id": "b94d9968-0d69-45c9-a8db-3e6dde469762",
        "meta": {
          "profile": [
            "http://hl7.eu/fhir/laboratory/StructureDefinition/ServiceRequest-eu-lab"
          ]
        },
        "identifier": [
          {
            "system": "http://example.org",
            "value": "c2968b3e-d30c-4d96-8a3a-744c8a23965e"
          }
        ],
        "specimen": [
          {
            "reference": "urn:uuid:3c39b432-4733-49ab-9bf9-bd7046c0d907"
          },
          {
            "reference": "urn:uuid:ad60b150-cf18-4fca-a3da-23723f53d974"
          },
          {
            "reference": "urn:uuid:2ad4252a-66b5-439f-b61b-91686c6c5efd"
          }
        ],
        "reasonCode": [
          {
            "coding": [
              {
                "code": "55822004",
                "system": "http://snomed.info/sct",
                "display": "Hyperlipidemia"
              }
            ]
          },
          {
            "coding": [
              {
                "code": "414545008",
                "system": "http://snomed.info/sct",
                "display": "Ischemic heart disease"
              }
            ]
          },
          {
            "coding": [
              {
                "code": "157141000119108",
                "system": "http://snomed.info/sct",
                "display": "Proteinuria due to type 2 diabetes mellitus"
              }
            ]
          },
          {
            "coding": [
              {
                "code": "90781000119102",
                "system": "http://snomed.info/sct",
                "display": "Microalbuminuria due to type 2 diabetes mellitus"
              }
            ]
          },
          {
            "coding": [
              {
                "code": "127013003",
                "system": "http://snomed.info/sct",
                "display": "Disorder of kidney due to diabetes mellitus"
              }
            ]
          },
          {
            "coding": [
              {
                "code": "271737000",
                "system": "http://snomed.info/sct",
                "display": "Anemia"
              }
            ]
          },
          {
            "coding": [
              {
                "code": "15777000",
                "system": "http://snomed.info/sct",
                "display": "Prediabetes"
              }
            ]
          },
          {
            "coding": [
              {
                "code": "59621000",
                "system": "http://snomed.info/sct",
                "display": "Essential hypertension"
              }
            ]
          }
        ],
        "status": "active",
        "intent": "order",
        "code": {
          "coding": [
            {
              "code": "108252007",
              "system": "http://snomed.info/sct",
              "display": "Laboratory procedure"
            }
          ]
        },
        "subject": {
          "reference": "urn:uuid:07eb1cbf-e83a-47cb-9f4c-d37564e9dfee",
          "display": "Marlene Gerlach"
        },
        "requester": {
          "reference": "urn:uuid:dee63afb-2587-4258-8adc-66515e4d3c67"
        }
      }
    },
    {
      "fullUrl": "urn:uuid:dee63afb-2587-4258-8adc-66515e4d3c67",
      "resource": {
        "resourceType": "PractitionerRole",
        "id": "dee63afb-2587-4258-8adc-66515e4d3c67",
        "meta": {
          "profile": [
            "http://hl7.eu/fhir/base/StructureDefinition/practitionerRole-eu"
          ]
        },
        "text": {
          "status": "generated",
          "div": "<div xmlns=\"http://www.w3.org/1999/xhtml\">Provider Role Id: dee63afb-2587-4258-8adc-66515e4d3c67</div>"
        },
        "organization": {
          "reference": "urn:uuid:1722298e-91d4-4ae5-b287-99b0de3411ec"
        }
      }
    },
    {
      "fullUrl": "urn:uuid:1722298e-91d4-4ae5-b287-99b0de3411ec",
      "resource": {
        "resourceType": "Organization",
        "id": "1722298e-91d4-4ae5-b287-99b0de3411ec",
        "meta": {
          "profile": [
            "http://hl7.eu/fhir/base/StructureDefinition/organization-eu"
          ]
        },
        "identifier": [
          {
            "assigner": {
              "display": "HL7 Europe"
            },
            "system": "urn:oid:2.16.840.1.113883.2.51.999",
            "value": "c11a278d-eb83-420b-8107-b06469c2813d"
          }
        ],
        "address": [
          {
            "line": [
              "Karl-Krische-Straße 4"
            ],
            "city": "Backnang",
            "postalCode": "71522",
            "country": "Germany"
          }
        ],
        "text": {
          "status": "generated",
          "div": "<div xmlns=\"http://www.w3.org/1999/xhtml\">Provider Organization: Gesundheitszentrum</div>"
        },
        "name": "Gesundheitszentrum"
      }
    },
    {
      "fullUrl": "urn:uuid:3c39b432-4733-49ab-9bf9-bd7046c0d907",
      "resource": {
        "resourceType": "Specimen",
        "id": "3c39b432-4733-49ab-9bf9-bd7046c0d907",
        "meta": {
          "profile": [
            "http://hl7.eu/fhir/laboratory/StructureDefinition/Specimen-eu-lab"
          ]
        },
        "collection": {
          "collectedDateTime": "2022-03-29"
        },
        "text": {
          "status": "generated",
          "div": "<div xmlns=\"http://www.w3.org/1999/xhtml\"><table class=\"hl7__eu__lab__report\"><tr><th>Specimen</th><th>Collection Date</th></tr><tr><td>Whole blood specimen (specimen)</td><td><span class=\"nb\">29-Mar-2022</span></td></tr></table></div>"
        },
        "type": {
          "coding": [
            {
              "code": "258580003",
              "system": "http://snomed.info/sct",
              "display": "Whole blood specimen (specimen)"
            }
          ]
        }
      }
    },
    {
      "fullUrl": "urn:uuid:ad60b150-cf18-4fca-a3da-23723f53d974",
      "resource": {
        "resourceType": "Specimen",
        "id": "ad60b150-cf18-4fca-a3da-23723f53d974",
        "meta": {
          "profile": [
            "http://hl7.eu/fhir/laboratory/StructureDefinition/Specimen-eu-lab"
          ]
        },
        "collection": {
          "collectedDateTime": "2022-03-29"
        },
        "text": {
          "status": "generated",
          "div": "<div xmlns=\"http://www.w3.org/1999/xhtml\"><table class=\"hl7__eu__lab__report\"><tr><th>Specimen</th><th>Collection Date</th></tr><tr><td>Acellular blood (serum or plasma) specimen</td><td><span class=\"nb\">29-Mar-2022</span></td></tr></table></div>"
        },
        "type": {
          "coding": [
            {
              "code": "122592007",
              "system": "http://snomed.info/sct",
              "display": "Acellular blood (serum or plasma) specimen"
            }
          ]
        }
      }
    },
    {
      "fullUrl": "urn:uuid:2ad4252a-66b5-439f-b61b-91686c6c5efd",
      "resource": {
        "resourceType": "Specimen",
        "id": "2ad4252a-66b5-439f-b61b-91686c6c5efd",
        "meta": {
          "profile": [
            "http://hl7.eu/fhir/laboratory/StructureDefinition/Specimen-eu-lab"
          ]
        },
        "collection": {
          "collectedDateTime": "2022-03-29"
        },
        "text": {
          "status": "generated",
          "div": "<div xmlns=\"http://www.w3.org/1999/xhtml\"><table class=\"hl7__eu__lab__report\"><tr><th>Specimen</th><th>Collection Date</th></tr><tr><td>Serum specimen</td><td><span class=\"nb\">29-Mar-2022</span></td></tr></table></div>"
        },
        "type": {
          "coding": [
            {
              "code": "119364003",
              "system": "http://snomed.info/sct",
              "display": "Serum specimen"
            }
          ]
        }
      }
    },
    {
      "fullUrl": "urn:uuid:7b146976-500e-434e-9005-84a25b9c2577",
      "resource": {
        "resourceType": "Observation",
        "id": "7b146976-500e-434e-9005-84a25b9c2577",
        "meta": {
          "profile": [
            "http://hl7.eu/fhir/laboratory/StructureDefinition/Observation-resultslab-eu-lab"
          ]
        },
        "performer": [
          {
            "display": "The Central European Lab"
          }
        ],
        "category": [
          {
            "coding": [
              {
                "system": "http://terminology.hl7.org/CodeSystem/observation-category",
                "code": "laboratory"
              }
            ]
          }
        ],
        "code": {
          "coding": [
            {
              "code": "2339-0",
              "system": "http://loinc.org",
              "display": "Glucose [Mass/volume] in Blood"
            }
          ],
          "text": "Glucose [Mass/volume] in Blood"
        },
        "valueQuantity": {
          "system": "http://unitsofmeasure.org",
          "value": 80.1,
          "unit": "mg/dL",
          "code": "mg/dL"
        },
        "referenceRange": [
          {
            "low": {
              "value": 70,
              "code": "mg/dL",
              "system": "http://unitsofmeasure.org"
            }
          },
          {
            "high": {
              "value": 140,
              "code": "mg/dL",
              "system": "http://unitsofmeasure.org"
            }
          }
        ],
        "text": {
          "status": "generated",
          "div": "<div xmlns=\"http://www.w3.org/1999/xhtml\"><table class=\"hl7__eu__lab__report\"><tr><th>Test</th><th>29-Mar-2022</th><th>Reference&#xA0;Range</th><th>Unit</th></tr><tr><td>Glucose [Mass/volume] in Blood</td><td>80.1</td><td>70 - 140</td><td></td><td>mg/dL</td></tr></table></div>"
        },
        "status": "final",
        "subject": {
          "reference": "urn:uuid:07eb1cbf-e83a-47cb-9f4c-d37564e9dfee",
          "display": "Marlene Gerlach"
        },
        "effectiveDateTime": "2022-03-29T19:24:33Z",
        "specimen": {
          "reference": "urn:uuid:3c39b432-4733-49ab-9bf9-bd7046c0d907"
        }
      }
    },
    {
      "fullUrl": "urn:uuid:bbffefcd-3836-4817-8716-36a94cfb6098",
      "resource": {
        "resourceType": "Observation",
        "id": "bbffefcd-3836-4817-8716-36a94cfb6098",
        "meta": {
          "profile": [
            "http://hl7.eu/fhir/laboratory/StructureDefinition/Observation-resultslab-eu-lab"
          ]
        },
        "performer": [
          {
            "display": "The Central European Lab"
          }
        ],
        "category": [
          {
            "coding": [
              {
                "system": "http://terminology.hl7.org/CodeSystem/observation-category",
                "code": "laboratory"
              }
            ]
          }
        ],
        "code": {
          "coding": [
            {
              "code": "6299-2",
              "system": "http://loinc.org",
              "display": "Urea nitrogen [Mass/volume] in Blood"
            }
          ],
          "text": "Urea nitrogen [Mass/volume] in Blood"
        },
        "valueQuantity": {
          "system": "http://unitsofmeasure.org",
          "value": 10.5,
          "unit": "mg/dL",
          "code": "mg/dL"
        },
        "referenceRange": [
          {
            "low": {
              "value": 7,
              "code": "mg/dL",
              "system": "http://unitsofmeasure.org"
            }
          },
          {
            "high": {
              "value": 20,
              "code": "mg/dL",
              "system": "http://unitsofmeasure.org"
            }
          }
        ],
        "text": {
          "status": "generated",
          "div": "<div xmlns=\"http://www.w3.org/1999/xhtml\"><table class=\"hl7__eu__lab__report\"><tr><th>Test</th><th>29-Mar-2022</th><th>Reference&#xA0;Range</th><th>Unit</th></tr><tr><td>Urea nitrogen [Mass/volume] in Blood</td><td>10.5</td><td>7 - 20</td><td></td><td>mg/dL</td></tr></table></div>"
        },
        "status": "final",
        "subject": {
          "reference": "urn:uuid:07eb1cbf-e83a-47cb-9f4c-d37564e9dfee",
          "display": "Marlene Gerlach"
        },
        "effectiveDateTime": "2022-03-29T19:24:33Z",
        "specimen": {
          "reference": "urn:uuid:3c39b432-4733-49ab-9bf9-bd7046c0d907"
        }
      }
    },
    {
      "fullUrl": "urn:uuid:a7ff2fd0-9ad8-460f-9f34-4c88ebf60b0a",
      "resource": {
        "resourceType": "Observation",
        "id": "a7ff2fd0-9ad8-460f-9f34-4c88ebf60b0a",
        "meta": {
          "profile": [
            "http://hl7.eu/fhir/laboratory/StructureDefinition/Observation-resultslab-eu-lab"
          ]
        },
        "performer": [
          {
            "display": "The Central European Lab"
          }
        ],
        "category": [
          {
            "coding": [
              {
                "system": "http://terminology.hl7.org/CodeSystem/observation-category",
                "code": "laboratory"
              }
            ]
          }
        ],
        "code": {
          "coding": [
            {
              "code": "38483-4",
              "system": "http://loinc.org",
              "display": "Creatinine [Mass/volume] in Blood"
            }
          ],
          "text": "Creatinine [Mass/volume] in Blood"
        },
        "valueQuantity": {
          "system": "http://unitsofmeasure.org",
          "value": 3.3,
          "unit": "mg/dL",
          "code": "mg/dL"
        },
        "referenceRange": [
          {
            "low": {
              "value": 0.5,
              "code": "mg/dL",
              "system": "http://unitsofmeasure.org"
            }
          },
          {
            "high": {
              "value": 1.3,
              "code": "mg/dL",
              "system": "http://unitsofmeasure.org"
            }
          }
        ],
        "interpretation": [
          {
            "coding": [
              {
                "code": "H",
                "system": "http://terminology.hl7.org/CodeSystem/v3-ObservationInterpretation",
                "display": "High"
              }
            ]
          }
        ],
        "text": {
          "status": "generated",
          "div": "<div xmlns=\"http://www.w3.org/1999/xhtml\"><table class=\"hl7__eu__lab__report\"><tr><th>Test</th><th>29-Mar-2022</th><th>Reference&#xA0;Range</th><th>Unit</th></tr><tr><td>Creatinine [Mass/volume] in Blood</td><td>3.3</td><td>0.5 - 1.3</td><td>H</td><td>mg/dL</td></tr></table></div>"
        },
        "status": "final",
        "subject": {
          "reference": "urn:uuid:07eb1cbf-e83a-47cb-9f4c-d37564e9dfee",
          "display": "Marlene Gerlach"
        },
        "effectiveDateTime": "2022-03-29T19:24:33Z",
        "specimen": {
          "reference": "urn:uuid:3c39b432-4733-49ab-9bf9-bd7046c0d907"
        }
      }
    },
    {
      "fullUrl": "urn:uuid:ae9f7afa-1e42-4ed3-9f52-548fd0c02e9e",
      "resource": {
        "resourceType": "Observation",
        "id": "ae9f7afa-1e42-4ed3-9f52-548fd0c02e9e",
        "meta": {
          "profile": [
            "http://hl7.eu/fhir/laboratory/StructureDefinition/Observation-resultslab-eu-lab"
          ]
        },
        "performer": [
          {
            "display": "The Central European Lab"
          }
        ],
        "category": [
          {
            "coding": [
              {
                "system": "http://terminology.hl7.org/CodeSystem/observation-category",
                "code": "laboratory"
              }
            ]
          }
        ],
        "code": {
          "coding": [
            {
              "code": "49765-1",
              "system": "http://loinc.org",
              "display": "Calcium [Mass/volume] in Blood"
            }
          ],
          "text": "Calcium [Mass/volume] in Blood"
        },
        "valueQuantity": {
          "system": "http://unitsofmeasure.org",
          "value": 8.6,
          "unit": "mg/dL",
          "code": "mg/dL"
        },
        "referenceRange": [
          {
            "low": {
              "value": 8.5,
              "code": "mg/dL",
              "system": "http://unitsofmeasure.org"
            }
          },
          {
            "high": {
              "value": 10.5,
              "code": "mg/dL",
              "system": "http://unitsofmeasure.org"
            }
          }
        ],
        "text": {
          "status": "generated",
          "div": "<div xmlns=\"http://www.w3.org/1999/xhtml\"><table class=\"hl7__eu__lab__report\"><tr><th>Test</th><th>29-Mar-2022</th><th>Reference&#xA0;Range</th><th>Unit</th></tr><tr><td>Calcium [Mass/volume] in Blood</td><td>8.6</td><td>8.5 - 10.5</td><td></td><td>mg/dL</td></tr></table></div>"
        },
        "status": "final",
        "subject": {
          "reference": "urn:uuid:07eb1cbf-e83a-47cb-9f4c-d37564e9dfee",
          "display": "Marlene Gerlach"
        },
        "effectiveDateTime": "2022-03-29T19:24:33Z",
        "specimen": {
          "reference": "urn:uuid:3c39b432-4733-49ab-9bf9-bd7046c0d907"
        }
      }
    },
    {
      "fullUrl": "urn:uuid:7cc1c0ab-cdf7-46f5-8157-ddcbf1de915f",
      "resource": {
        "resourceType": "Observation",
        "id": "7cc1c0ab-cdf7-46f5-8157-ddcbf1de915f",
        "meta": {
          "profile": [
            "http://hl7.eu/fhir/laboratory/StructureDefinition/Observation-resultslab-eu-lab"
          ]
        },
        "performer": [
          {
            "display": "The Central European Lab"
          }
        ],
        "category": [
          {
            "coding": [
              {
                "system": "http://terminology.hl7.org/CodeSystem/observation-category",
                "code": "laboratory"
              }
            ]
          }
        ],
        "code": {
          "coding": [
            {
              "code": "2947-0",
              "system": "http://loinc.org",
              "display": "Sodium [Moles/volume] in Blood"
            }
          ],
          "text": "Sodium [Moles/volume] in Blood"
        },
        "valueQuantity": {
          "system": "http://unitsofmeasure.org",
          "value": 136.8,
          "unit": "mmol/L",
          "code": "mmol/L"
        },
        "referenceRange": [
          {
            "low": {
              "value": 135,
              "code": "mmol/L",
              "system": "http://unitsofmeasure.org"
            }
          },
          {
            "high": {
              "value": 145,
              "code": "mmol/L",
              "system": "http://unitsofmeasure.org"
            }
          }
        ],
        "text": {
          "status": "generated",
          "div": "<div xmlns=\"http://www.w3.org/1999/xhtml\"><table class=\"hl7__eu__lab__report\"><tr><th>Test</th><th>29-Mar-2022</th><th>Reference&#xA0;Range</th><th>Unit</th></tr><tr><td>Sodium [Moles/volume] in Blood</td><td>136.8</td><td>135 - 145</td><td></td><td>mmol/L</td></tr></table></div>"
        },
        "status": "final",
        "subject": {
          "reference": "urn:uuid:07eb1cbf-e83a-47cb-9f4c-d37564e9dfee",
          "display": "Marlene Gerlach"
        },
        "effectiveDateTime": "2022-03-29T19:24:33Z",
        "specimen": {
          "reference": "urn:uuid:3c39b432-4733-49ab-9bf9-bd7046c0d907"
        }
      }
    },
    {
      "fullUrl": "urn:uuid:d9bb58bc-a57b-4577-98d2-7b8038afd806",
      "resource": {
        "resourceType": "Observation",
        "id": "d9bb58bc-a57b-4577-98d2-7b8038afd806",
        "meta": {
          "profile": [
            "http://hl7.eu/fhir/laboratory/StructureDefinition/Observation-resultslab-eu-lab"
          ]
        },
        "performer": [
          {
            "display": "The Central European Lab"
          }
        ],
        "category": [
          {
            "coding": [
              {
                "system": "http://terminology.hl7.org/CodeSystem/observation-category",
                "code": "laboratory"
              }
            ]
          }
        ],
        "code": {
          "coding": [
            {
              "code": "6298-4",
              "system": "http://loinc.org",
              "display": "Potassium [Moles/volume] in Blood"
            }
          ],
          "text": "Potassium [Moles/volume] in Blood"
        },
        "valueQuantity": {
          "system": "http://unitsofmeasure.org",
          "value": 5.1,
          "unit": "mmol/L",
          "code": "mmol/L"
        },
        "referenceRange": [
          {
            "low": {
              "value": 3.5,
              "code": "mmol/L",
              "system": "http://unitsofmeasure.org"
            }
          },
          {
            "high": {
              "value": 5.1,
              "code": "mmol/L",
              "system": "http://unitsofmeasure.org"
            }
          }
        ],
        "text": {
          "status": "generated",
          "div": "<div xmlns=\"http://www.w3.org/1999/xhtml\"><table class=\"hl7__eu__lab__report\"><tr><th>Test</th><th>29-Mar-2022</th><th>Reference&#xA0;Range</th><th>Unit</th></tr><tr><td>Potassium [Moles/volume] in Blood</td><td>5.1</td><td>3.5 - 5.1</td><td></td><td>mmol/L</td></tr></table></div>"
        },
        "status": "final",
        "subject": {
          "reference": "urn:uuid:07eb1cbf-e83a-47cb-9f4c-d37564e9dfee",
          "display": "Marlene Gerlach"
        },
        "effectiveDateTime": "2022-03-29T19:24:33Z",
        "specimen": {
          "reference": "urn:uuid:3c39b432-4733-49ab-9bf9-bd7046c0d907"
        }
      }
    },
    {
      "fullUrl": "urn:uuid:83b481d6-5808-4f2c-82bf-66ce343bb671",
      "resource": {
        "resourceType": "Observation",
        "id": "83b481d6-5808-4f2c-82bf-66ce343bb671",
        "meta": {
          "profile": [
            "http://hl7.eu/fhir/laboratory/StructureDefinition/Observation-resultslab-eu-lab"
          ]
        },
        "performer": [
          {
            "display": "The Central European Lab"
          }
        ],
        "category": [
          {
            "coding": [
              {
                "system": "http://terminology.hl7.org/CodeSystem/observation-category",
                "code": "laboratory"
              }
            ]
          }
        ],
        "code": {
          "coding": [
            {
              "code": "2069-3",
              "system": "http://loinc.org",
              "display": "Chloride [Moles/volume] in Blood"
            }
          ],
          "text": "Chloride [Moles/volume] in Blood"
        },
        "valueQuantity": {
          "system": "http://unitsofmeasure.org",
          "value": 106,
          "unit": "mmol/L",
          "code": "mmol/L"
        },
        "referenceRange": [
          {
            "low": {
              "value": 98,
              "code": "mmol/L",
              "system": "http://unitsofmeasure.org"
            }
          },
          {
            "high": {
              "value": 108,
              "code": "mmol/L",
              "system": "http://unitsofmeasure.org"
            }
          }
        ],
        "text": {
          "status": "generated",
          "div": "<div xmlns=\"http://www.w3.org/1999/xhtml\"><table class=\"hl7__eu__lab__report\"><tr><th>Test</th><th>29-Mar-2022</th><th>Reference&#xA0;Range</th><th>Unit</th></tr><tr><td>Chloride [Moles/volume] in Blood</td><td>106.0</td><td>98 - 108</td><td></td><td>mmol/L</td></tr></table></div>"
        },
        "status": "final",
        "subject": {
          "reference": "urn:uuid:07eb1cbf-e83a-47cb-9f4c-d37564e9dfee",
          "display": "Marlene Gerlach"
        },
        "effectiveDateTime": "2022-03-29T19:24:33Z",
        "specimen": {
          "reference": "urn:uuid:3c39b432-4733-49ab-9bf9-bd7046c0d907"
        }
      }
    },
    {
      "fullUrl": "urn:uuid:7caa5e0f-5063-45ee-90d1-620654e8f798",
      "resource": {
        "resourceType": "Observation",
        "id": "7caa5e0f-5063-45ee-90d1-620654e8f798",
        "meta": {
          "profile": [
            "http://hl7.eu/fhir/laboratory/StructureDefinition/Observation-resultslab-eu-lab"
          ]
        },
        "performer": [
          {
            "display": "The Central European Lab"
          }
        ],
        "category": [
          {
            "coding": [
              {
                "system": "http://terminology.hl7.org/CodeSystem/observation-category",
                "code": "laboratory"
              }
            ]
          }
        ],
        "code": {
          "coding": [
            {
              "code": "20565-8",
              "system": "http://loinc.org",
              "display": "Carbon dioxide, total [Moles/volume] in Blood"
            }
          ],
          "text": "Carbon dioxide, total [Moles/volume] in Blood"
        },
        "valueQuantity": {
          "system": "http://unitsofmeasure.org",
          "value": 21.7,
          "unit": "mmol/L",
          "code": "mmol/L"
        },
        "referenceRange": [
          {
            "low": {
              "value": 22,
              "code": "mmol/L",
              "system": "http://unitsofmeasure.org"
            }
          },
          {
            "high": {
              "value": 29,
              "code": "mmol/L",
              "system": "http://unitsofmeasure.org"
            }
          }
        ],
        "interpretation": [
          {
            "coding": [
              {
                "code": "L",
                "system": "http://terminology.hl7.org/CodeSystem/v3-ObservationInterpretation",
                "display": "Low"
              }
            ]
          }
        ],
        "text": {
          "status": "generated",
          "div": "<div xmlns=\"http://www.w3.org/1999/xhtml\"><table class=\"hl7__eu__lab__report\"><tr><th>Test</th><th>29-Mar-2022</th><th>Reference&#xA0;Range</th><th>Unit</th></tr><tr><td>Carbon dioxide, total [Moles/volume] in Blood</td><td>21.7</td><td>22 - 29</td><td>L</td><td>mmol/L</td></tr></table></div>"
        },
        "status": "final",
        "subject": {
          "reference": "urn:uuid:07eb1cbf-e83a-47cb-9f4c-d37564e9dfee",
          "display": "Marlene Gerlach"
        },
        "effectiveDateTime": "2022-03-29T19:24:33Z",
        "specimen": {
          "reference": "urn:uuid:3c39b432-4733-49ab-9bf9-bd7046c0d907"
        }
      }
    },
    {
      "fullUrl": "urn:uuid:030d8615-5088-4779-9bcd-ce854d350249",
      "resource": {
        "resourceType": "Observation",
        "id": "030d8615-5088-4779-9bcd-ce854d350249",
        "meta": {
          "profile": [
            "http://hl7.eu/fhir/laboratory/StructureDefinition/Observation-resultslab-eu-lab"
          ]
        },
        "performer": [
          {
            "display": "The Central European Lab"
          }
        ],
        "category": [
          {
            "coding": [
              {
                "system": "http://terminology.hl7.org/CodeSystem/observation-category",
                "code": "laboratory"
              }
            ]
          }
        ],
        "code": {
          "coding": [
            {
              "code": "2885-2",
              "system": "http://loinc.org",
              "display": "Protein [Mass/volume] in Serum or Plasma"
            }
          ],
          "text": "Protein [Mass/volume] in Serum or Plasma"
        },
        "valueQuantity": {
          "system": "http://unitsofmeasure.org",
          "value": 7.3,
          "unit": "g/dL",
          "code": "g/dL"
        },
        "referenceRange": [
          {
            "low": {
              "value": 6,
              "code": "g/dL",
              "system": "http://unitsofmeasure.org"
            }
          },
          {
            "high": {
              "value": 8.2,
              "code": "g/dL",
              "system": "http://unitsofmeasure.org"
            }
          }
        ],
        "text": {
          "status": "generated",
          "div": "<div xmlns=\"http://www.w3.org/1999/xhtml\"><table class=\"hl7__eu__lab__report\"><tr><th>Test</th><th>29-Mar-2022</th><th>Reference&#xA0;Range</th><th>Unit</th></tr><tr><td>Protein [Mass/volume] in Serum or Plasma</td><td>7.3</td><td>6 - 8.2</td><td></td><td>g/dL</td></tr></table></div>"
        },
        "status": "final",
        "subject": {
          "reference": "urn:uuid:07eb1cbf-e83a-47cb-9f4c-d37564e9dfee",
          "display": "Marlene Gerlach"
        },
        "effectiveDateTime": "2022-03-29T19:24:33Z",
        "specimen": {
          "reference": "urn:uuid:ad60b150-cf18-4fca-a3da-23723f53d974"
        }
      }
    },
    {
      "fullUrl": "urn:uuid:97ebda79-f063-4c22-a15d-15a72f593711",
      "resource": {
        "resourceType": "Observation",
        "id": "97ebda79-f063-4c22-a15d-15a72f593711",
        "meta": {
          "profile": [
            "http://hl7.eu/fhir/laboratory/StructureDefinition/Observation-resultslab-eu-lab"
          ]
        },
        "performer": [
          {
            "display": "The Central European Lab"
          }
        ],
        "category": [
          {
            "coding": [
              {
                "system": "http://terminology.hl7.org/CodeSystem/observation-category",
                "code": "laboratory"
              }
            ]
          }
        ],
        "code": {
          "coding": [
            {
              "code": "1751-7",
              "system": "http://loinc.org",
              "display": "Albumin [Mass/volume] in Serum or Plasma"
            }
          ],
          "text": "Albumin [Mass/volume] in Serum or Plasma"
        },
        "valueQuantity": {
          "system": "http://unitsofmeasure.org",
          "value": 5.5,
          "unit": "g/dL",
          "code": "g/dL"
        },
        "referenceRange": [
          {
            "low": {
              "value": 3.5,
              "code": "g/dL",
              "system": "http://unitsofmeasure.org"
            }
          },
          {
            "high": {
              "value": 5,
              "code": "g/dL",
              "system": "http://unitsofmeasure.org"
            }
          }
        ],
        "interpretation": [
          {
            "coding": [
              {
                "code": "H",
                "system": "http://terminology.hl7.org/CodeSystem/v3-ObservationInterpretation",
                "display": "High"
              }
            ]
          }
        ],
        "text": {
          "status": "generated",
          "div": "<div xmlns=\"http://www.w3.org/1999/xhtml\"><table class=\"hl7__eu__lab__report\"><tr><th>Test</th><th>29-Mar-2022</th><th>Reference&#xA0;Range</th><th>Unit</th></tr><tr><td>Albumin [Mass/volume] in Serum or Plasma</td><td>5.5</td><td>3.5 - 5</td><td>H</td><td>g/dL</td></tr></table></div>"
        },
        "status": "final",
        "subject": {
          "reference": "urn:uuid:07eb1cbf-e83a-47cb-9f4c-d37564e9dfee",
          "display": "Marlene Gerlach"
        },
        "effectiveDateTime": "2022-03-29T19:24:33Z",
        "specimen": {
          "reference": "urn:uuid:ad60b150-cf18-4fca-a3da-23723f53d974"
        }
      }
    },
    {
      "fullUrl": "urn:uuid:eb5dc29d-ac3b-482c-80d6-0372c5a26da7",
      "resource": {
        "resourceType": "Observation",
        "id": "eb5dc29d-ac3b-482c-80d6-0372c5a26da7",
        "meta": {
          "profile": [
            "http://hl7.eu/fhir/laboratory/StructureDefinition/Observation-resultslab-eu-lab"
          ]
        },
        "performer": [
          {
            "display": "The Central European Lab"
          }
        ],
        "category": [
          {
            "coding": [
              {
                "system": "http://terminology.hl7.org/CodeSystem/observation-category",
                "code": "laboratory"
              }
            ]
          }
        ],
        "code": {
          "coding": [
            {
              "code": "10834-0",
              "system": "http://loinc.org",
              "display": "Globulin [Mass/volume] in Serum by calculation"
            }
          ],
          "text": "Globulin [Mass/volume] in Serum by calculation"
        },
        "valueQuantity": {
          "system": "http://unitsofmeasure.org",
          "value": 2.5,
          "unit": "g/L",
          "code": "g/L"
        },
        "referenceRange": [
          {
            "low": {
              "value": 2,
              "code": "g/L",
              "system": "http://unitsofmeasure.org"
            }
          },
          {
            "high": {
              "value": 4,
              "code": "g/L",
              "system": "http://unitsofmeasure.org"
            }
          }
        ],
        "text": {
          "status": "generated",
          "div": "<div xmlns=\"http://www.w3.org/1999/xhtml\"><table class=\"hl7__eu__lab__report\"><tr><th>Test</th><th>29-Mar-2022</th><th>Reference&#xA0;Range</th><th>Unit</th></tr><tr><td>Globulin [Mass/volume] in Serum by calculation</td><td>2.5</td><td>2 - 4</td><td></td><td>g/L</td></tr></table></div>"
        },
        "status": "final",
        "subject": {
          "reference": "urn:uuid:07eb1cbf-e83a-47cb-9f4c-d37564e9dfee",
          "display": "Marlene Gerlach"
        },
        "effectiveDateTime": "2022-03-29T19:24:33Z",
        "specimen": {
          "reference": "urn:uuid:2ad4252a-66b5-439f-b61b-91686c6c5efd"
        }
      }
    },
    {
      "fullUrl": "urn:uuid:001e14e0-971a-4e9d-b114-5a44e74ba6b7",
      "resource": {
        "resourceType": "Observation",
        "id": "001e14e0-971a-4e9d-b114-5a44e74ba6b7",
        "meta": {
          "profile": [
            "http://hl7.eu/fhir/laboratory/StructureDefinition/Observation-resultslab-eu-lab"
          ]
        },
        "performer": [
          {
            "display": "The Central European Lab"
          }
        ],
        "category": [
          {
            "coding": [
              {
                "system": "http://terminology.hl7.org/CodeSystem/observation-category",
                "code": "laboratory"
              }
            ]
          }
        ],
        "code": {
          "coding": [
            {
              "code": "1975-2",
              "system": "http://loinc.org",
              "display": "Bilirubin.total [Mass/volume] in Serum or Plasma"
            }
          ],
          "text": "Bilirubin.total [Mass/volume] in Serum or Plasma"
        },
        "valueQuantity": {
          "system": "http://unitsofmeasure.org",
          "value": 0.1,
          "unit": "mg/dL",
          "code": "mg/dL"
        },
        "referenceRange": [
          {
            "low": {
              "value": 0.3,
              "code": "mg/dL",
              "system": "http://unitsofmeasure.org"
            }
          },
          {
            "high": {
              "value": 1.2,
              "code": "mg/dL",
              "system": "http://unitsofmeasure.org"
            }
          }
        ],
        "interpretation": [
          {
            "coding": [
              {
                "code": "L",
                "system": "http://terminology.hl7.org/CodeSystem/v3-ObservationInterpretation",
                "display": "Low"
              }
            ]
          }
        ],
        "text": {
          "status": "generated",
          "div": "<div xmlns=\"http://www.w3.org/1999/xhtml\"><table class=\"hl7__eu__lab__report\"><tr><th>Test</th><th>29-Mar-2022</th><th>Reference&#xA0;Range</th><th>Unit</th></tr><tr><td>Bilirubin.total [Mass/volume] in Serum or Plasma</td><td>0.1</td><td>0.3 - 1.2</td><td>L</td><td>mg/dL</td></tr></table></div>"
        },
        "status": "final",
        "subject": {
          "reference": "urn:uuid:07eb1cbf-e83a-47cb-9f4c-d37564e9dfee",
          "display": "Marlene Gerlach"
        },
        "effectiveDateTime": "2022-03-29T19:24:33Z",
        "specimen": {
          "reference": "urn:uuid:ad60b150-cf18-4fca-a3da-23723f53d974"
        }
      }
    },
    {
      "fullUrl": "urn:uuid:030aee83-f548-49f0-9442-8678d09c7451",
      "resource": {
        "resourceType": "Observation",
        "id": "030aee83-f548-49f0-9442-8678d09c7451",
        "meta": {
          "profile": [
            "http://hl7.eu/fhir/laboratory/StructureDefinition/Observation-resultslab-eu-lab"
          ]
        },
        "performer": [
          {
            "display": "The Central European Lab"
          }
        ],
        "category": [
          {
            "coding": [
              {
                "system": "http://terminology.hl7.org/CodeSystem/observation-category",
                "code": "laboratory"
              }
            ]
          }
        ],
        "code": {
          "coding": [
            {
              "code": "6768-6",
              "system": "http://loinc.org",
              "display": "Alkaline phosphatase [Enzymatic activity/volume] in Serum or Plasma"
            }
          ],
          "text": "Alkaline phosphatase [Enzymatic activity/volume] in Serum or Plasma"
        },
        "valueQuantity": {
          "system": "http://unitsofmeasure.org",
          "value": 63.3,
          "unit": "U/L",
          "code": "U/L"
        },
        "referenceRange": [
          {
            "low": {
              "value": 35,
              "code": "U/L",
              "system": "http://unitsofmeasure.org"
            }
          },
          {
            "high": {
              "value": 141,
              "code": "U/L",
              "system": "http://unitsofmeasure.org"
            }
          }
        ],
        "text": {
          "status": "generated",
          "div": "<div xmlns=\"http://www.w3.org/1999/xhtml\"><table class=\"hl7__eu__lab__report\"><tr><th>Test</th><th>29-Mar-2022</th><th>Reference&#xA0;Range</th><th>Unit</th></tr><tr><td>Alkaline phosphatase [Enzymatic activity/volume] in Serum or Plasma</td><td>63.3</td><td>35 - 141</td><td></td><td>U/L</td></tr></table></div>"
        },
        "status": "final",
        "subject": {
          "reference": "urn:uuid:07eb1cbf-e83a-47cb-9f4c-d37564e9dfee",
          "display": "Marlene Gerlach"
        },
        "effectiveDateTime": "2022-03-29T19:24:33Z",
        "specimen": {
          "reference": "urn:uuid:ad60b150-cf18-4fca-a3da-23723f53d974"
        }
      }
    },
    {
      "fullUrl": "urn:uuid:dc94148d-8506-4f27-9101-884e4a9a3dca",
      "resource": {
        "resourceType": "Observation",
        "id": "dc94148d-8506-4f27-9101-884e4a9a3dca",
        "meta": {
          "profile": [
            "http://hl7.eu/fhir/laboratory/StructureDefinition/Observation-resultslab-eu-lab"
          ]
        },
        "performer": [
          {
            "display": "The Central European Lab"
          }
        ],
        "category": [
          {
            "coding": [
              {
                "system": "http://terminology.hl7.org/CodeSystem/observation-category",
                "code": "laboratory"
              }
            ]
          }
        ],
        "code": {
          "coding": [
            {
              "code": "1742-6",
              "system": "http://loinc.org",
              "display": "Alanine aminotransferase [Enzymatic activity/volume] in Serum or Plasma"
            }
          ],
          "text": "Alanine aminotransferase [Enzymatic activity/volume] in Serum or Plasma"
        },
        "valueQuantity": {
          "system": "http://unitsofmeasure.org",
          "value": 43.6,
          "unit": "U/L",
          "code": "U/L"
        },
        "referenceRange": [
          {
            "low": {
              "value": 7,
              "code": "U/L",
              "system": "http://unitsofmeasure.org"
            }
          },
          {
            "high": {
              "value": 60,
              "code": "U/L",
              "system": "http://unitsofmeasure.org"
            }
          }
        ],
        "text": {
          "status": "generated",
          "div": "<div xmlns=\"http://www.w3.org/1999/xhtml\"><table class=\"hl7__eu__lab__report\"><tr><th>Test</th><th>29-Mar-2022</th><th>Reference&#xA0;Range</th><th>Unit</th></tr><tr><td>Alanine aminotransferase [Enzymatic activity/volume] in Serum or Plasma</td><td>43.6</td><td>7 - 60</td><td></td><td>U/L</td></tr></table></div>"
        },
        "status": "final",
        "subject": {
          "reference": "urn:uuid:07eb1cbf-e83a-47cb-9f4c-d37564e9dfee",
          "display": "Marlene Gerlach"
        },
        "effectiveDateTime": "2022-03-29T19:24:33Z",
        "specimen": {
          "reference": "urn:uuid:ad60b150-cf18-4fca-a3da-23723f53d974"
        }
      }
    },
    {
      "fullUrl": "urn:uuid:3df4ad77-b467-4c1c-ba05-8c797c54009a",
      "resource": {
        "resourceType": "Observation",
        "id": "3df4ad77-b467-4c1c-ba05-8c797c54009a",
        "meta": {
          "profile": [
            "http://hl7.eu/fhir/laboratory/StructureDefinition/Observation-resultslab-eu-lab"
          ]
        },
        "performer": [
          {
            "display": "The Central European Lab"
          }
        ],
        "category": [
          {
            "coding": [
              {
                "system": "http://terminology.hl7.org/CodeSystem/observation-category",
                "code": "laboratory"
              }
            ]
          }
        ],
        "code": {
          "coding": [
            {
              "code": "1920-8",
              "system": "http://loinc.org",
              "display": "Aspartate aminotransferase [Enzymatic activity/volume] in Serum or Plasma"
            }
          ],
          "text": "Aspartate aminotransferase [Enzymatic activity/volume] in Serum or Plasma"
        },
        "valueQuantity": {
          "system": "http://unitsofmeasure.org",
          "value": 31.9,
          "unit": "U/L",
          "code": "U/L"
        },
        "referenceRange": [
          {
            "low": {
              "value": 10,
              "code": "U/L",
              "system": "http://unitsofmeasure.org"
            }
          },
          {
            "high": {
              "value": 40,
              "code": "U/L",
              "system": "http://unitsofmeasure.org"
            }
          }
        ],
        "text": {
          "status": "generated",
          "div": "<div xmlns=\"http://www.w3.org/1999/xhtml\"><table class=\"hl7__eu__lab__report\"><tr><th>Test</th><th>29-Mar-2022</th><th>Reference&#xA0;Range</th><th>Unit</th></tr><tr><td>Aspartate aminotransferase [Enzymatic activity/volume] in Serum or Plasma</td><td>31.9</td><td>10 - 40</td><td></td><td>U/L</td></tr></table></div>"
        },
        "status": "final",
        "subject": {
          "reference": "urn:uuid:07eb1cbf-e83a-47cb-9f4c-d37564e9dfee",
          "display": "Marlene Gerlach"
        },
        "effectiveDateTime": "2022-03-29T19:24:33Z",
        "specimen": {
          "reference": "urn:uuid:ad60b150-cf18-4fca-a3da-23723f53d974"
        }
      }
    },
    {
      "fullUrl": "urn:uuid:ff7a97ad-f44d-4ecc-ab3c-9405a31bac54",
      "resource": {
        "resourceType": "Observation",
        "id": "ff7a97ad-f44d-4ecc-ab3c-9405a31bac54",
        "meta": {
          "profile": [
            "http://hl7.eu/fhir/laboratory/StructureDefinition/Observation-resultslab-eu-lab"
          ]
        },
        "performer": [
          {
            "display": "The Central European Lab"
          }
        ],
        "category": [
          {
            "coding": [
              {
                "system": "http://terminology.hl7.org/CodeSystem/observation-category",
                "code": "laboratory"
              }
            ]
          }
        ],
        "code": {
          "coding": [
            {
              "code": "2093-3",
              "system": "http://loinc.org",
              "display": "Cholesterol [Mass/volume] in Serum or Plasma"
            }
          ],
          "text": "Cholesterol [Mass/volume] in Serum or Plasma"
        },
        "valueQuantity": {
          "system": "http://unitsofmeasure.org",
          "value": 206.7,
          "unit": "mg/dL",
          "code": "mg/dL"
        },
        "referenceRange": [
          {
            "low": {
              "value": 0,
              "code": "mg/dL",
              "system": "http://unitsofmeasure.org"
            }
          },
          {
            "high": {
              "value": 200,
              "code": "mg/dL",
              "system": "http://unitsofmeasure.org"
            }
          }
        ],
        "interpretation": [
          {
            "coding": [
              {
                "code": "H",
                "system": "http://terminology.hl7.org/CodeSystem/v3-ObservationInterpretation",
                "display": "High"
              }
            ]
          }
        ],
        "text": {
          "status": "generated",
          "div": "<div xmlns=\"http://www.w3.org/1999/xhtml\"><table class=\"hl7__eu__lab__report\"><tr><th>Test</th><th>29-Mar-2022</th><th>Reference&#xA0;Range</th><th>Unit</th></tr><tr><td>Cholesterol [Mass/volume] in Serum or Plasma</td><td>206.7</td><td>0 - 200</td><td>H</td><td>mg/dL</td></tr></table></div>"
        },
        "status": "final",
        "subject": {
          "reference": "urn:uuid:07eb1cbf-e83a-47cb-9f4c-d37564e9dfee",
          "display": "Marlene Gerlach"
        },
        "effectiveDateTime": "2022-03-29T19:24:33Z",
        "specimen": {
          "reference": "urn:uuid:ad60b150-cf18-4fca-a3da-23723f53d974"
        }
      }
    },
    {
      "fullUrl": "urn:uuid:f9eb9f90-3eab-48f9-9fa6-a06f03e56be3",
      "resource": {
        "resourceType": "Observation",
        "id": "f9eb9f90-3eab-48f9-9fa6-a06f03e56be3",
        "meta": {
          "profile": [
            "http://hl7.eu/fhir/laboratory/StructureDefinition/Observation-resultslab-eu-lab"
          ]
        },
        "performer": [
          {
            "display": "The Central European Lab"
          }
        ],
        "category": [
          {
            "coding": [
              {
                "system": "http://terminology.hl7.org/CodeSystem/observation-category",
                "code": "laboratory"
              }
            ]
          }
        ],
        "code": {
          "coding": [
            {
              "code": "2571-8",
              "system": "http://loinc.org",
              "display": "Triglyceride [Mass/volume] in Serum or Plasma"
            }
          ],
          "text": "Triglyceride [Mass/volume] in Serum or Plasma"
        },
        "valueQuantity": {
          "system": "http://unitsofmeasure.org",
          "value": 124.1,
          "unit": "mg/dL",
          "code": "mg/dL"
        },
        "referenceRange": [
          {
            "low": {
              "value": 0,
              "code": "mg/dL",
              "system": "http://unitsofmeasure.org"
            }
          },
          {
            "high": {
              "value": 199,
              "code": "mg/dL",
              "system": "http://unitsofmeasure.org"
            }
          }
        ],
        "text": {
          "status": "generated",
          "div": "<div xmlns=\"http://www.w3.org/1999/xhtml\"><table class=\"hl7__eu__lab__report\"><tr><th>Test</th><th>29-Mar-2022</th><th>Reference&#xA0;Range</th><th>Unit</th></tr><tr><td>Triglyceride [Mass/volume] in Serum or Plasma</td><td>124.1</td><td>0 - 199</td><td></td><td>mg/dL</td></tr></table></div>"
        },
        "status": "final",
        "subject": {
          "reference": "urn:uuid:07eb1cbf-e83a-47cb-9f4c-d37564e9dfee",
          "display": "Marlene Gerlach"
        },
        "effectiveDateTime": "2022-03-29T19:24:33Z",
        "specimen": {
          "reference": "urn:uuid:ad60b150-cf18-4fca-a3da-23723f53d974"
        }
      }
    },
    {
      "fullUrl": "urn:uuid:594bff6a-ed6e-425c-84c2-d136f0a2b957",
      "resource": {
        "resourceType": "Observation",
        "id": "594bff6a-ed6e-425c-84c2-d136f0a2b957",
        "meta": {
          "profile": [
            "http://hl7.eu/fhir/laboratory/StructureDefinition/Observation-resultslab-eu-lab"
          ]
        },
        "performer": [
          {
            "display": "The Central European Lab"
          }
        ],
        "category": [
          {
            "coding": [
              {
                "system": "http://terminology.hl7.org/CodeSystem/observation-category",
                "code": "laboratory"
              }
            ]
          }
        ],
        "code": {
          "coding": [
            {
              "code": "18262-6",
              "system": "http://loinc.org",
              "display": "Cholesterol in LDL [Mass/volume] in Serum or Plasma by Direct assay"
            }
          ],
          "text": "Cholesterol in LDL [Mass/volume] in Serum or Plasma by Direct assay"
        },
        "valueQuantity": {
          "system": "http://unitsofmeasure.org",
          "value": 112.1,
          "unit": "mg/dL",
          "code": "mg/dL"
        },
        "referenceRange": [
          {
            "low": {
              "value": 0,
              "code": "mg/dL",
              "system": "http://unitsofmeasure.org"
            }
          },
          {
            "high": {
              "value": 130,
              "code": "mg/dL",
              "system": "http://unitsofmeasure.org"
            }
          }
        ],
        "text": {
          "status": "generated",
          "div": "<div xmlns=\"http://www.w3.org/1999/xhtml\"><table class=\"hl7__eu__lab__report\"><tr><th>Test</th><th>29-Mar-2022</th><th>Reference&#xA0;Range</th><th>Unit</th></tr><tr><td>Cholesterol in LDL [Mass/volume] in Serum or Plasma by Direct assay</td><td>112.1</td><td>0 - 130</td><td></td><td>mg/dL</td></tr></table></div>"
        },
        "status": "final",
        "subject": {
          "reference": "urn:uuid:07eb1cbf-e83a-47cb-9f4c-d37564e9dfee",
          "display": "Marlene Gerlach"
        },
        "effectiveDateTime": "2022-03-29T19:24:33Z",
        "specimen": {
          "reference": "urn:uuid:ad60b150-cf18-4fca-a3da-23723f53d974"
        }
      }
    },
    {
      "fullUrl": "urn:uuid:728a974f-382a-49af-9ef5-9a7f083af0f0",
      "resource": {
        "resourceType": "Observation",
        "id": "728a974f-382a-49af-9ef5-9a7f083af0f0",
        "meta": {
          "profile": [
            "http://hl7.eu/fhir/laboratory/StructureDefinition/Observation-resultslab-eu-lab"
          ]
        },
        "performer": [
          {
            "display": "The Central European Lab"
          }
        ],
        "category": [
          {
            "coding": [
              {
                "system": "http://terminology.hl7.org/CodeSystem/observation-category",
                "code": "laboratory"
              }
            ]
          }
        ],
        "code": {
          "coding": [
            {
              "code": "2085-9",
              "system": "http://loinc.org",
              "display": "Cholesterol in HDL [Mass/volume] in Serum or Plasma"
            }
          ],
          "text": "Cholesterol in HDL [Mass/volume] in Serum or Plasma"
        },
        "valueQuantity": {
          "system": "http://unitsofmeasure.org",
          "value": 74.1,
          "unit": "mg/dL",
          "code": "mg/dL"
        },
        "referenceRange": [
          {
            "low": {
              "value": 46,
              "code": "mg/dL",
              "system": "http://unitsofmeasure.org"
            }
          },
          {
            "high": {
              "value": 77,
              "code": "mg/dL",
              "system": "http://unitsofmeasure.org"
            }
          }
        ],
        "text": {
          "status": "generated",
          "div": "<div xmlns=\"http://www.w3.org/1999/xhtml\"><table class=\"hl7__eu__lab__report\"><tr><th>Test</th><th>29-Mar-2022</th><th>Reference&#xA0;Range</th><th>Unit</th></tr><tr><td>Cholesterol in HDL [Mass/volume] in Serum or Plasma</td><td>74.1</td><td>46 - 77</td><td></td><td>mg/dL</td></tr></table></div>"
        },
        "status": "final",
        "subject": {
          "reference": "urn:uuid:07eb1cbf-e83a-47cb-9f4c-d37564e9dfee",
          "display": "Marlene Gerlach"
        },
        "effectiveDateTime": "2022-03-29T19:24:33Z",
        "specimen": {
          "reference": "urn:uuid:ad60b150-cf18-4fca-a3da-23723f53d974"
        }
      }
    },
    {
      "fullUrl": "urn:uuid:aceb93e9-0322-44eb-b23c-547bd1c4ac9b",
      "resource": {
        "resourceType": "Device",
        "id": "aceb93e9-0322-44eb-b23c-547bd1c4ac9b",
        "deviceName": [
          {
            "name": "SYNDERAI Synthetic Generator",
            "type": "manufacturer-name"
          }
        ],
        "version": [
          {
            "value": "5.0"
          }
        ],
        "text": {
          "status": "generated",
          "div": "<div xmlns=\"http://www.w3.org/1999/xhtml\">SYNDERAI Synthetic Generator v5.0</div>"
        },
        "status": "active\"",
        "distinctIdentifier": "synderai-generator-50",
        "manufacturer": "SYNDERAI Project"
      }
    },
    {
      "fullUrl": "urn:uuid:187a376e-55e7-436c-b696-70d0eb25d67c",
      "resource": {
        "resourceType": "Provenance",
        "id": "187a376e-55e7-436c-b696-70d0eb25d67c",
        "target": [
          {
            "reference": "Patient/07eb1cbf-e83a-47cb-9f4c-d37564e9dfee"
          },
          {
            "reference": "Bundle/cee304bd-7887-4291-8054-991cbfeff8a9"
          },
          {
            "reference": "Composition/8218e728-1558-421f-8d32-f39a7f33bb9a"
          },
          {
            "reference": "PractitionerRole/04950925-e143-4698-90bf-aef499a1d505"
          },
          {
            "reference": "Practitioner/08dbeb55-e93f-4ede-b002-e54a3b013b9a"
          },
          {
            "reference": "PractitionerRole/dee63afb-2587-4258-8adc-66515e4d3c67"
          },
          {
            "reference": "Organization/1722298e-91d4-4ae5-b287-99b0de3411ec"
          }
        ],
        "activity": {
          "text": "Synthetic Example Data Generation"
        },
        "policy": [
          "https://synderai.net/synderai-synthetic-data-policy"
        ],
        "agent": [
          {
            "type": {
              "text": "author"
            },
            "who": {
              "reference": "Device/aceb93e9-0322-44eb-b23c-547bd1c4ac9b"
            }
          }
        ],
        "reason": [
          {
            "text": "Interoperability Testing and Training (non-clinical use)"
          }
        ],
        "text": {
          "status": "generated",
          "div": "<div xmlns=\"http://www.w3.org/1999/xhtml\">Provenance for SYNDERAI Synthetic Example Data Resource</div>"
        },
        "recorded": "2022-03-29T21:24:33Z"
      }
    },
    {
      "fullUrl": "urn:uuid:04950925-e143-4698-90bf-aef499a1d505",
      "resource": {
        "resourceType": "PractitionerRole",
        "id": "04950925-e143-4698-90bf-aef499a1d505",
        "meta": {
          "profile": [
            "http://hl7.eu/fhir/base/StructureDefinition/practitionerRole-eu"
          ]
        },
        "text": {
          "status": "generated",
          "div": "<div xmlns=\"http://www.w3.org/1999/xhtml\">Laboratory Role Id: 04950925-e143-4698-90bf-aef499a1d505</div>"
        },
        "practitioner": {
          "reference": "urn:uuid:08dbeb55-e93f-4ede-b002-e54a3b013b9a"
        }
      }
    },
    {
      "fullUrl": "urn:uuid:08dbeb55-e93f-4ede-b002-e54a3b013b9a",
      "resource": {
        "resourceType": "Practitioner",
        "id": "08dbeb55-e93f-4ede-b002-e54a3b013b9a",
        "meta": {
          "profile": [
            "http://hl7.eu/fhir/base/StructureDefinition/practitioner-eu"
          ]
        },
        "identifier": [
          {
            "assigner": {
              "display": "HL7 Europe"
            },
            "system": "urn:oid:2.16.840.1.113883.2.51.999",
            "value": "e1c070df-26c4-4154-ad05-b5f608ae9eca"
          }
        ],
        "name": [
          {
            "prefix": [
              "dr"
            ],
            "given": [
              "Ex"
            ],
            "family": "Ample"
          }
        ],
        "address": [
          {
            "line": [
              "Laboratoire Central Européenne",
              "Boulevard du Jardin Botanique 32"
            ],
            "postalCode": "1000",
            "city": "Brussels",
            "country": "Belgium"
          }
        ],
        "text": {
          "status": "generated",
          "div": "<div xmlns=\"http://www.w3.org/1999/xhtml\">Laboratory: Laboratoire Central Européenne, 1000 Brussels, Belgium</div>"
        }
      }
    }
  ],
  "type": "document",
  "timestamp": "2022-03-29T21:24:33Z"
}
