{
  "resourceType": "Bundle",
  "id": "99466f4f-6386-4f38-a9c0-58e17f6fb26d",
  "meta": {
    "profile": [
      "http://hl7.eu/fhir/laboratory/StructureDefinition/Bundle-eu-lab"
    ]
  },
  "identifier": {
    "assigner": {
      "display": "HL7 Europe"
    },
    "system": "urn:oid:2.16.840.1.113883.2.51.999",
    "value": "517777ef-79bc-460f-b47c-72c17aa8ebee"
  },
  "entry": [
    {
      "fullUrl": "urn:uuid:c38b26c0-7bd2-40f7-a98a-a1f439eac3fe",
      "resource": {
        "resourceType": "Composition",
        "id": "c38b26c0-7bd2-40f7-a98a-a1f439eac3fe",
        "meta": {
          "profile": [
            "http://hl7.eu/fhir/laboratory/StructureDefinition/Composition-eu-lab"
          ]
        },
        "identifier": {
          "assigner": {
            "display": "HL7 Europe"
          },
          "system": "urn:oid:2.16.840.1.113883.2.51.999",
          "value": "61d0cef9-b07c-4159-9c70-0e0b48fc53e0"
        },
        "author": [
          {
            "reference": "urn:uuid:96c43d89-6eef-4299-8fe5-26774f2b9c9b"
          }
        ],
        "category": [
          {
            "coding": [
              {
                "code": "26436-6",
                "system": "http://loinc.org",
                "display": "Laboratory studies (set)"
              }
            ]
          }
        ],
        "type": {
          "coding": [
            {
              "code": "11502-2",
              "system": "http://loinc.org",
              "display": "Laboratory report"
            }
          ],
          "text": "Laboratory Report"
        },
        "section": [
          {
            "code": {
              "coding": [
                {
                  "code": "26436-6",
                  "system": "http://loinc.org",
                  "display": "Laboratory studies (set)"
                }
              ],
              "text": "Laboratory studies"
            },
            "section": [
              {
                "code": {
                  "coding": [
                    {
                      "code": "$18719-5",
                      "system": "http://loinc.org",
                      "display": "Chemistry studies (set)"
                    }
                  ],
                  "text": "Chemistry"
                },
                "entry": [
                  {
                    "reference": "urn:uuid:a2b33871-0723-474d-aa6f-8a863af59004"
                  },
                  {
                    "reference": "urn:uuid:a0d4ed5b-f8d8-4472-9254-75901e91caae"
                  },
                  {
                    "reference": "urn:uuid:1b159947-6ccc-48e9-bfc5-81f24476fa03"
                  },
                  {
                    "reference": "urn:uuid:b0801cf2-4b2b-4422-b243-56b037dedc24"
                  },
                  {
                    "reference": "urn:uuid:516e8bb6-2e6e-4bd4-ad75-59033bf6bbb9"
                  },
                  {
                    "reference": "urn:uuid:be1be967-9b5e-4bd1-8323-9bf5e7884f5d"
                  },
                  {
                    "reference": "urn:uuid:3c665bb8-00f0-4006-9de0-1335e22e1408"
                  },
                  {
                    "reference": "urn:uuid:b4da5571-4358-49e1-b960-dcbb41dac1f7"
                  },
                  {
                    "reference": "urn:uuid:72beee12-0cfb-42cb-8f24-18c8c9b6a129"
                  },
                  {
                    "reference": "urn:uuid:2df50892-04cd-4c45-8153-f03e34bb69ac"
                  },
                  {
                    "reference": "urn:uuid:2be3a016-b88c-4158-95a5-666bba75683f"
                  },
                  {
                    "reference": "urn:uuid:3aa23f14-e94d-46b2-ae2d-1332569a7cb3"
                  },
                  {
                    "reference": "urn:uuid:31faebba-f8ec-4c55-b454-99f7b7cbc085"
                  },
                  {
                    "reference": "urn:uuid:d8876b9c-3203-47c3-8cc7-cb96cfd7bd04"
                  },
                  {
                    "reference": "urn:uuid:1403b161-c6d7-4e3c-b134-c1ae30186baa"
                  },
                  {
                    "reference": "urn:uuid:c63bc40a-5c2a-4a68-9301-5a6087b31994"
                  },
                  {
                    "reference": "urn:uuid:3b3e6d97-73b9-4268-88df-811395ed341d"
                  },
                  {
                    "reference": "urn:uuid:9c83c905-b9fe-4c6a-8394-f6f1b568e478"
                  }
                ],
                "text": {
                  "status": "generated",
                  "div": "<div xmlns=\"http://www.w3.org/1999/xhtml\"><h3>Chemistry</h3><table class=\"hl7__eu__lab__report\"><thead><tr><th>Test</th><th>16-FEB-2024</th><th>Reference&#xA0;Range</th><th>Unit</th></tr></thead><tbody><tr><td>Glucose [Mass/volume] in Serum or Plasma</td><td>72.4</td><td>70 - 140</td><td>mg/dL</td></tr><tr><td>Urea nitrogen [Mass/volume] in Serum or Plasma</td><td>8.5</td><td>7 - 20</td><td>mg/dL</td></tr><tr><td>Creatinine [Mass/volume] in Serum or Plasma</td><td><strong>2.1 H</strong></td><td>0.9 - 1.3</td><td>mg/dL</td></tr><tr><td>Calcium [Mass/volume] in Serum or Plasma</td><td>9.2</td><td>8.5 - 10.5</td><td>mg/dL</td></tr><tr><td>Sodium [Moles/volume] in Serum or Plasma</td><td>142.7</td><td>135 - 145</td><td>mmol/L</td></tr><tr><td>Potassium [Moles/volume] in Serum or Plasma</td><td>3.8</td><td>3.5 - 5.3</td><td>mmol/L</td></tr><tr><td>Chloride [Moles/volume] in Serum or Plasma</td><td>103.0</td><td>98 - 107</td><td>mmol/L</td></tr><tr><td>Carbon dioxide, total [Moles/volume] in Serum or Plasma</td><td>25.5</td><td>22 - 33</td><td>mmol/L</td></tr><tr><td>Ketones [Presence] in Urine by Test strip</td><td>Urine ketone test = ++</td><td></td><td></td></tr><tr><td>Hemoglobin A1c/Hemoglobin.total in Blood</td><td><strong>3.4 L</strong></td><td>4.3 - 6</td><td>%</td></tr><tr><td>Glucose [Mass/volume] in Blood</td><td>72.4</td><td>70 - 140</td><td>mg/dL</td></tr><tr><td>Urea nitrogen [Mass/volume] in Blood</td><td>8.5</td><td>7 - 20</td><td>mg/dL</td></tr><tr><td>Creatinine [Mass/volume] in Blood</td><td><strong>3.1 H</strong></td><td>0.9 - 1.3</td><td>mg/dL</td></tr><tr><td>Calcium [Mass/volume] in Blood</td><td>9.2</td><td>8.5 - 10.5</td><td>mg/dL</td></tr><tr><td>Sodium [Moles/volume] in Blood</td><td>142.7</td><td>135 - 145</td><td>mmol/L</td></tr><tr><td>Potassium [Moles/volume] in Blood</td><td>3.8</td><td>3.5 - 5.1</td><td>mmol/L</td></tr><tr><td>Chloride [Moles/volume] in Blood</td><td>103.0</td><td>98 - 108</td><td>mmol/L</td></tr><tr><td>Carbon dioxide, total [Moles/volume] in Blood</td><td>25.5</td><td>22 - 29</td><td>mmol/L</td></tr></tbody></table></div>"
                },
                "title": "Chemistry"
              },
              {
                "code": {
                  "coding": [
                    {
                      "code": "$18729-4",
                      "system": "http://loinc.org",
                      "display": "Urinalysis studies (set)"
                    }
                  ],
                  "text": "Urinalysis"
                },
                "entry": [
                  {
                    "reference": "urn:uuid:b7690069-e644-4348-926a-090954b655c6"
                  },
                  {
                    "reference": "urn:uuid:4bbf6be6-d716-489c-8cda-7067d7f5c095"
                  },
                  {
                    "reference": "urn:uuid:26fc65f0-8b2e-487c-a005-f2fc997eb9ba"
                  },
                  {
                    "reference": "urn:uuid:1a95929b-0191-459f-ad81-a4fcb25d8b74"
                  },
                  {
                    "reference": "urn:uuid:1495791f-d5d1-44a6-a60a-82488a98092c"
                  },
                  {
                    "reference": "urn:uuid:fdb54c07-cde6-4915-af7e-85ff86c3c2ad"
                  },
                  {
                    "reference": "urn:uuid:8580017d-c8c3-4e1e-bec1-2c862a57c4e2"
                  },
                  {
                    "reference": "urn:uuid:d35a5f8f-0084-4d01-87af-b527dde413ab"
                  },
                  {
                    "reference": "urn:uuid:2aa8fff4-b9ed-4f66-a242-abfcac1f6338"
                  },
                  {
                    "reference": "urn:uuid:efb1c3f1-cc2b-4679-b5c1-20022696f2e3"
                  },
                  {
                    "reference": "urn:uuid:1d798397-1029-4991-80cf-91ace7557acc"
                  },
                  {
                    "reference": "urn:uuid:21241a7f-f971-4873-953d-a56c33804a97"
                  }
                ],
                "text": {
                  "status": "generated",
                  "div": "<div xmlns=\"http://www.w3.org/1999/xhtml\"><h3>Urinalysis</h3><table class=\"hl7__eu__lab__report\"><thead><tr><th>Test</th><th>16-FEB-2024</th><th>Reference&#xA0;Range</th><th>Unit</th></tr></thead><tbody><tr><td>Glucose [Mass/volume] in Urine by Test strip</td><td><strong>1.2 H</strong></td><td>0 - 0.8</td><td>mg/dL</td></tr><tr><td>Glucose [Presence] in Urine by Test strip</td><td>++</td><td></td><td></td></tr><tr><td>Bilirubin.total [Mass/volume] in Urine by Test strip</td><td>1.1</td><td>0 - 1.9</td><td>mg/dL</td></tr><tr><td>Bilirubin.total [Presence] in Urine by Test strip</td><td>Finding of bilirubin in urine</td><td></td><td></td></tr><tr><td>Ketones [Mass/volume] in Urine by Test strip</td><td>0.6</td><td>0 - 3</td><td>mg/dL</td></tr><tr><td>Specific gravity of Urine by Test strip</td><td><strong>1.0 L</strong></td><td>1.01 - 1.03</td><td>{nominal}</td></tr><tr><td>pH of Urine by Test strip</td><td>6.5</td><td>4.5 - 7.5</td><td>pH</td></tr><tr><td>Protein [Mass/volume] in Urine by Test strip</td><td><strong>216.9 H</strong></td><td>0 - 149</td><td>mg/dL</td></tr><tr><td>Protein [Presence] in Urine by Test strip</td><td>Urine protein test = ++</td><td></td><td></td></tr><tr><td>Nitrite [Presence] in Urine by Test strip</td><td>Urine nitrite negative</td><td></td><td></td></tr><tr><td>Hemoglobin [Presence] in Urine by Test strip</td><td>Urine blood test = negative</td><td></td><td></td></tr><tr><td>Leukocyte esterase [Presence] in Urine by Test strip</td><td>Urine leukocyte test negative</td><td></td><td></td></tr></tbody></table></div>"
                },
                "title": "Urinalysis"
              },
              {
                "code": {
                  "coding": [
                    {
                      "code": "$LP7846-1",
                      "system": "http://loinc.org",
                      "display": "Specimen information"
                    }
                  ],
                  "text": "Specimen information"
                },
                "entry": [
                  {
                    "reference": "urn:uuid:5b9a9d2e-88fa-4295-9f53-f8db3708c9af"
                  },
                  {
                    "reference": "urn:uuid:7f5c3c20-d218-409a-bccd-8802c9149990"
                  },
                  {
                    "reference": "urn:uuid:cc5ae81e-03ae-46de-a10e-e804ac8376ab"
                  },
                  {
                    "reference": "urn:uuid:4651befe-6a9c-4062-bafe-d4e6c7654750"
                  }
                ],
                "text": {
                  "status": "generated",
                  "div": "<div xmlns=\"http://www.w3.org/1999/xhtml\"><h3>Specimen information</h3><table class=\"hl7__eu__lab__report\"><thead><tr><th>Test</th><th>16-FEB-2024</th><th>Specimen</th><th></th></tr></thead><tbody><tr><td>Appearance of Urine</td><td>Cloudy urine</td><td>Urine</td><td></td></tr><tr><td>Odor of Urine</td><td>Urine smell ammoniacal</td><td>Urine</td><td></td></tr><tr><td>Clarity of Urine</td><td>Translucent</td><td>Urine</td><td></td></tr><tr><td>Color of Urine</td><td>Brown color</td><td>Urine</td><td></td></tr></tbody></table></div>"
                },
                "title": "Specimen information"
              }
            ],
            "title": "Laboratory Report"
          },
          {
            "text": {
              "status": "generated",
              "div": "<div xmlns=\"http://www.w3.org/1999/xhtml\"><h3>Annotation</h3><table class=\"hl7__eu__lab__report\"><tr><th>Conclusion and Recommendations based on this report and previous findings known to us</th></tr><tr><td>The patient shows elevated creatinine, suggesting impaired renal function. Urinalysis reveals proteinuria, glucosuria, ketonuria, low specific gravity, and abnormal urine appearance (cloudy, brown, ammoniacal), indicating possible renal dysfunction and/or urinary tract pathology. HbA1c is low, which may reflect recent hypoglycemia or anemia. No evidence of infection (negative nitrite/leukocytes). Recommend further evaluation of renal function and possible underlying metabolic or urinary tract disorders.</td></tr></table></div>"
            },
            "code": {
              "coding": [
                {
                  "system": "http://loinc.org",
                  "code": "48767-8",
                  "display": "Annotation comment"
                }
              ]
            },
            "title": "Annotation comment"
          }
        ],
        "status": "final",
        "subject": {
          "reference": "urn:uuid:90b1eabe-c3f7-484e-b2fc-5219d59c8df6",
          "display": "Victor Lagarde"
        },
        "date": "2024-02-16T05:48:18Z",
        "title": "Laboratory Report",
        "confidentiality": "N"
      }
    },
    {
      "fullUrl": "urn:uuid:a4cc7128-ad12-4d62-a02a-1ea034fca961",
      "resource": {
        "resourceType": "DiagnosticReport",
        "id": "a4cc7128-ad12-4d62-a02a-1ea034fca961",
        "meta": {
          "profile": [
            "http://hl7.eu/fhir/laboratory/StructureDefinition/DiagnosticReport-eu-lab"
          ]
        },
        "identifier": [
          {
            "assigner": {
              "display": "HL7 Europe"
            },
            "system": "urn:oid:2.16.840.1.113883.2.51.999",
            "value": "37214c41-f5ed-471e-ae53-17bdbb862f71"
          }
        ],
        "extension": [
          {
            "url": "http://hl7.org/fhir/5.0/StructureDefinition/extension-DiagnosticReport.composition",
            "valueReference": {
              "reference": "urn:uuid:61d0cef9-b07c-4159-9c70-0e0b48fc53e0"
            }
          }
        ],
        "category": [
          {
            "coding": [
              {
                "code": "26436-6",
                "system": "http://loinc.org",
                "display": "Laboratory studies (set)"
              }
            ]
          }
        ],
        "specimen": [
          {
            "reference": "urn:uuid:b357cfa8-e7c7-4c7c-a3b9-1839f8eec906"
          },
          {
            "reference": "urn:uuid:a2ff0492-9885-4761-8761-0b69f99860c4"
          },
          {
            "reference": "urn:uuid:e41a9ec3-1345-41a8-8694-36a32ea37247"
          }
        ],
        "result": [
          {
            "reference": "urn:uuid:a2b33871-0723-474d-aa6f-8a863af59004"
          },
          {
            "reference": "urn:uuid:a0d4ed5b-f8d8-4472-9254-75901e91caae"
          },
          {
            "reference": "urn:uuid:1b159947-6ccc-48e9-bfc5-81f24476fa03"
          },
          {
            "reference": "urn:uuid:b0801cf2-4b2b-4422-b243-56b037dedc24"
          },
          {
            "reference": "urn:uuid:516e8bb6-2e6e-4bd4-ad75-59033bf6bbb9"
          },
          {
            "reference": "urn:uuid:be1be967-9b5e-4bd1-8323-9bf5e7884f5d"
          },
          {
            "reference": "urn:uuid:3c665bb8-00f0-4006-9de0-1335e22e1408"
          },
          {
            "reference": "urn:uuid:b4da5571-4358-49e1-b960-dcbb41dac1f7"
          },
          {
            "reference": "urn:uuid:5b9a9d2e-88fa-4295-9f53-f8db3708c9af"
          },
          {
            "reference": "urn:uuid:7f5c3c20-d218-409a-bccd-8802c9149990"
          },
          {
            "reference": "urn:uuid:cc5ae81e-03ae-46de-a10e-e804ac8376ab"
          },
          {
            "reference": "urn:uuid:4651befe-6a9c-4062-bafe-d4e6c7654750"
          },
          {
            "reference": "urn:uuid:b7690069-e644-4348-926a-090954b655c6"
          },
          {
            "reference": "urn:uuid:4bbf6be6-d716-489c-8cda-7067d7f5c095"
          },
          {
            "reference": "urn:uuid:26fc65f0-8b2e-487c-a005-f2fc997eb9ba"
          },
          {
            "reference": "urn:uuid:1a95929b-0191-459f-ad81-a4fcb25d8b74"
          },
          {
            "reference": "urn:uuid:1495791f-d5d1-44a6-a60a-82488a98092c"
          },
          {
            "reference": "urn:uuid:72beee12-0cfb-42cb-8f24-18c8c9b6a129"
          },
          {
            "reference": "urn:uuid:fdb54c07-cde6-4915-af7e-85ff86c3c2ad"
          },
          {
            "reference": "urn:uuid:8580017d-c8c3-4e1e-bec1-2c862a57c4e2"
          },
          {
            "reference": "urn:uuid:d35a5f8f-0084-4d01-87af-b527dde413ab"
          },
          {
            "reference": "urn:uuid:2aa8fff4-b9ed-4f66-a242-abfcac1f6338"
          },
          {
            "reference": "urn:uuid:efb1c3f1-cc2b-4679-b5c1-20022696f2e3"
          },
          {
            "reference": "urn:uuid:1d798397-1029-4991-80cf-91ace7557acc"
          },
          {
            "reference": "urn:uuid:21241a7f-f971-4873-953d-a56c33804a97"
          },
          {
            "reference": "urn:uuid:2df50892-04cd-4c45-8153-f03e34bb69ac"
          },
          {
            "reference": "urn:uuid:2be3a016-b88c-4158-95a5-666bba75683f"
          },
          {
            "reference": "urn:uuid:3aa23f14-e94d-46b2-ae2d-1332569a7cb3"
          },
          {
            "reference": "urn:uuid:31faebba-f8ec-4c55-b454-99f7b7cbc085"
          },
          {
            "reference": "urn:uuid:d8876b9c-3203-47c3-8cc7-cb96cfd7bd04"
          },
          {
            "reference": "urn:uuid:1403b161-c6d7-4e3c-b134-c1ae30186baa"
          },
          {
            "reference": "urn:uuid:c63bc40a-5c2a-4a68-9301-5a6087b31994"
          },
          {
            "reference": "urn:uuid:3b3e6d97-73b9-4268-88df-811395ed341d"
          },
          {
            "reference": "urn:uuid:9c83c905-b9fe-4c6a-8394-f6f1b568e478"
          }
        ],
        "status": "registered",
        "code": {
          "coding": [
            {
              "code": "11502-2",
              "system": "http://loinc.org",
              "display": "Laboratory report"
            }
          ]
        },
        "subject": {
          "reference": "urn:uuid:90b1eabe-c3f7-484e-b2fc-5219d59c8df6",
          "display": "Victor Lagarde"
        }
      }
    },
    {
      "fullUrl": "urn:uuid:90b1eabe-c3f7-484e-b2fc-5219d59c8df6",
      "resource": {
        "resourceType": "Patient",
        "id": "90b1eabe-c3f7-484e-b2fc-5219d59c8df6",
        "meta": {
          "security": [
            {
              "system": "http://terminology.hl7.org/CodeSystem/v3-ActReason",
              "code": "HTEST"
            },
            {
              "system": "http://terminology.hl7.org/CodeSystem/v3-ActReason",
              "code": "TRAIN"
            }
          ],
          "tag": [
            {
              "system": "https://synderai.net/fhir/CodeSystem/tags",
              "code": "synthetic",
              "display": "SYNDERAI Synthetic data"
            }
          ],
          "profile": [
            "http://hl7.eu/fhir/base/StructureDefinition/patient-eu-core"
          ]
        },
        "identifier": [
          {
            "type": {
              "coding": [
                {
                  "code": "PT",
                  "system": "http://terminology.hl7.org/CodeSystem/v2-0203"
                }
              ]
            },
            "system": "http://ec.europa.eu/identifier/eci",
            "value": "9925-001801-9"
          },
          {
            "type": {
              "coding": [
                {
                  "code": "MR",
                  "system": "http://terminology.hl7.org/CodeSystem/v2-0203"
                }
              ]
            },
            "system": "http://local.setting.eu/identifier",
            "value": "22c2dfd0-ac57-8833-2532-848f180896a4"
          }
        ],
        "name": [
          {
            "family": "Lagarde"
          },
          {
            "given": [
              "Victor"
            ]
          },
          {
            "text": "Victor Lagarde"
          }
        ],
        "address": [
          {
            "line": [
              "avenue Robert"
            ],
            "use": "home",
            "type": "physical",
            "postalCode": "80300",
            "city": "Albert",
            "country": "France"
          }
        ],
        "telecom": [
          {
            "system": "phone",
            "value": "0177941801"
          }
        ],
        "extension": [
          {
            "url": "http://hl7.org/fhir/StructureDefinition/patient-nationality",
            "valueCodeableConcept": {
              "coding": [
                {
                  "code": "FR",
                  "system": "http://hl7.org/fhir/ValueSet/country"
                }
              ]
            }
          }
        ],
        "text": {
          "status": "generated",
          "div": "<div xmlns=\"http://www.w3.org/1999/xhtml\"><table class=\"hl7__ips\"><tr><td>Victor Lagarde</td><td>male</td><td>31-Aug-1939</td></tr></table></div>"
        },
        "gender": "male",
        "birthDate": "1939-08-31"
      }
    },
    {
      "fullUrl": "urn:uuid:b05532ab-f39e-4fe9-8eeb-d0433ea12c71",
      "resource": {
        "resourceType": "ServiceRequest",
        "id": "b05532ab-f39e-4fe9-8eeb-d0433ea12c71",
        "meta": {
          "profile": [
            "http://hl7.eu/fhir/laboratory/StructureDefinition/ServiceRequest-eu-lab"
          ]
        },
        "identifier": [
          {
            "system": "http://example.org",
            "value": "dcf14645-8739-422e-8455-5302137cdad4"
          }
        ],
        "specimen": [
          {
            "reference": "urn:uuid:b357cfa8-e7c7-4c7c-a3b9-1839f8eec906"
          },
          {
            "reference": "urn:uuid:a2ff0492-9885-4761-8761-0b69f99860c4"
          },
          {
            "reference": "urn:uuid:e41a9ec3-1345-41a8-8694-36a32ea37247"
          }
        ],
        "reasonCode": [
          {
            "coding": [
              {
                "code": "433144002",
                "system": "http://snomed.info/sct",
                "display": "Chronic kidney disease stage 3"
              }
            ]
          },
          {
            "coding": [
              {
                "code": "157141000119108",
                "system": "http://snomed.info/sct",
                "display": "Proteinuria due to type 2 diabetes mellitus"
              }
            ]
          },
          {
            "coding": [
              {
                "code": "431856006",
                "system": "http://snomed.info/sct",
                "display": "Chronic kidney disease stage 2"
              }
            ]
          },
          {
            "coding": [
              {
                "code": "90781000119102",
                "system": "http://snomed.info/sct",
                "display": "Microalbuminuria due to type 2 diabetes mellitus"
              }
            ]
          },
          {
            "coding": [
              {
                "code": "127013003",
                "system": "http://snomed.info/sct",
                "display": "Disorder of kidney due to diabetes mellitus"
              }
            ]
          },
          {
            "coding": [
              {
                "code": "431855005",
                "system": "http://snomed.info/sct",
                "display": "Chronic kidney disease stage 1"
              }
            ]
          },
          {
            "coding": [
              {
                "code": "55822004",
                "system": "http://snomed.info/sct",
                "display": "Hyperlipidemia"
              }
            ]
          },
          {
            "coding": [
              {
                "code": "59621000",
                "system": "http://snomed.info/sct",
                "display": "Essential hypertension"
              }
            ]
          },
          {
            "coding": [
              {
                "code": "237602007",
                "system": "http://snomed.info/sct",
                "display": "Metabolic syndrome X"
              }
            ]
          },
          {
            "coding": [
              {
                "code": "414545008",
                "system": "http://snomed.info/sct",
                "display": "Ischemic heart disease"
              }
            ]
          },
          {
            "coding": [
              {
                "code": "40055000",
                "system": "http://snomed.info/sct",
                "display": "Chronic sinusitis"
              }
            ]
          },
          {
            "coding": [
              {
                "code": "15777000",
                "system": "http://snomed.info/sct",
                "display": "Prediabetes"
              }
            ]
          },
          {
            "coding": [
              {
                "code": "271737000",
                "system": "http://snomed.info/sct",
                "display": "Anemia"
              }
            ]
          }
        ],
        "status": "active",
        "intent": "order",
        "code": {
          "coding": [
            {
              "code": "108252007",
              "system": "http://snomed.info/sct",
              "display": "Laboratory procedure"
            }
          ]
        },
        "subject": {
          "reference": "urn:uuid:90b1eabe-c3f7-484e-b2fc-5219d59c8df6",
          "display": "Victor Lagarde"
        },
        "requester": {
          "reference": "urn:uuid:e541de0d-046d-41c0-97e6-446a6a2c6cf0"
        }
      }
    },
    {
      "fullUrl": "urn:uuid:e541de0d-046d-41c0-97e6-446a6a2c6cf0",
      "resource": {
        "resourceType": "PractitionerRole",
        "id": "e541de0d-046d-41c0-97e6-446a6a2c6cf0",
        "meta": {
          "profile": [
            "http://hl7.eu/fhir/base/StructureDefinition/practitionerRole-eu"
          ]
        },
        "text": {
          "status": "generated",
          "div": "<div xmlns=\"http://www.w3.org/1999/xhtml\">Provider Role Id: e541de0d-046d-41c0-97e6-446a6a2c6cf0</div>"
        },
        "organization": {
          "reference": "urn:uuid:8d23b47d-a18c-4ca2-bbf4-2dbca56934b7"
        }
      }
    },
    {
      "fullUrl": "urn:uuid:8d23b47d-a18c-4ca2-bbf4-2dbca56934b7",
      "resource": {
        "resourceType": "Organization",
        "id": "8d23b47d-a18c-4ca2-bbf4-2dbca56934b7",
        "meta": {
          "profile": [
            "http://hl7.eu/fhir/base/StructureDefinition/organization-eu"
          ]
        },
        "identifier": [
          {
            "assigner": {
              "display": "HL7 Europe"
            },
            "system": "urn:oid:2.16.840.1.113883.2.51.999",
            "value": "28f101d4-1a67-43f8-8834-2b9221f56439"
          }
        ],
        "address": [
          {
            "city": "Auxerre",
            "postalCode": "89000",
            "country": "France"
          }
        ],
        "text": {
          "status": "generated",
          "div": "<div xmlns=\"http://www.w3.org/1999/xhtml\">Provider Organization: Thiriot Didier (Cardiologie)</div>"
        },
        "name": "Thiriot Didier (Cardiologie)"
      }
    },
    {
      "fullUrl": "urn:uuid:b357cfa8-e7c7-4c7c-a3b9-1839f8eec906",
      "resource": {
        "resourceType": "Specimen",
        "id": "b357cfa8-e7c7-4c7c-a3b9-1839f8eec906",
        "meta": {
          "profile": [
            "http://hl7.eu/fhir/laboratory/StructureDefinition/Specimen-eu-lab"
          ]
        },
        "collection": {
          "collectedDateTime": "2024-02-16"
        },
        "text": {
          "status": "generated",
          "div": "<div xmlns=\"http://www.w3.org/1999/xhtml\"><table class=\"hl7__eu__lab__report\"><tr><th>Specimen</th><th>Collection Date</th></tr><tr><td>Acellular blood (serum or plasma) specimen</td><td><span class=\"nb\">16-Feb-2024</span></td></tr></table></div>"
        },
        "type": {
          "coding": [
            {
              "code": "122592007",
              "system": "http://snomed.info/sct",
              "display": "Acellular blood (serum or plasma) specimen"
            }
          ]
        }
      }
    },
    {
      "fullUrl": "urn:uuid:a2ff0492-9885-4761-8761-0b69f99860c4",
      "resource": {
        "resourceType": "Specimen",
        "id": "a2ff0492-9885-4761-8761-0b69f99860c4",
        "meta": {
          "profile": [
            "http://hl7.eu/fhir/laboratory/StructureDefinition/Specimen-eu-lab"
          ]
        },
        "collection": {
          "collectedDateTime": "2024-02-16"
        },
        "text": {
          "status": "generated",
          "div": "<div xmlns=\"http://www.w3.org/1999/xhtml\"><table class=\"hl7__eu__lab__report\"><tr><th>Specimen</th><th>Collection Date</th></tr><tr><td>Urine specimen</td><td><span class=\"nb\">16-Feb-2024</span></td></tr></table></div>"
        },
        "type": {
          "coding": [
            {
              "code": "122575003",
              "system": "http://snomed.info/sct",
              "display": "Urine specimen"
            }
          ]
        }
      }
    },
    {
      "fullUrl": "urn:uuid:e41a9ec3-1345-41a8-8694-36a32ea37247",
      "resource": {
        "resourceType": "Specimen",
        "id": "e41a9ec3-1345-41a8-8694-36a32ea37247",
        "meta": {
          "profile": [
            "http://hl7.eu/fhir/laboratory/StructureDefinition/Specimen-eu-lab"
          ]
        },
        "collection": {
          "collectedDateTime": "2024-02-16"
        },
        "text": {
          "status": "generated",
          "div": "<div xmlns=\"http://www.w3.org/1999/xhtml\"><table class=\"hl7__eu__lab__report\"><tr><th>Specimen</th><th>Collection Date</th></tr><tr><td>Whole blood specimen (specimen)</td><td><span class=\"nb\">16-Feb-2024</span></td></tr></table></div>"
        },
        "type": {
          "coding": [
            {
              "code": "258580003",
              "system": "http://snomed.info/sct",
              "display": "Whole blood specimen (specimen)"
            }
          ]
        }
      }
    },
    {
      "fullUrl": "urn:uuid:a2b33871-0723-474d-aa6f-8a863af59004",
      "resource": {
        "resourceType": "Observation",
        "id": "a2b33871-0723-474d-aa6f-8a863af59004",
        "meta": {
          "profile": [
            "http://hl7.eu/fhir/laboratory/StructureDefinition/Observation-resultslab-eu-lab"
          ]
        },
        "performer": [
          {
            "display": "The Central European Lab"
          }
        ],
        "category": [
          {
            "coding": [
              {
                "system": "http://terminology.hl7.org/CodeSystem/observation-category",
                "code": "laboratory"
              }
            ]
          }
        ],
        "code": {
          "coding": [
            {
              "code": "2345-7",
              "system": "http://loinc.org",
              "display": "Glucose [Mass/volume] in Serum or Plasma"
            }
          ],
          "text": "Glucose [Mass/volume] in Serum or Plasma"
        },
        "valueQuantity": {
          "system": "http://unitsofmeasure.org",
          "value": 72.4,
          "unit": "mg/dL",
          "code": "mg/dL"
        },
        "referenceRange": [
          {
            "low": {
              "value": 70,
              "code": "mg/dL",
              "system": "http://unitsofmeasure.org"
            }
          },
          {
            "high": {
              "value": 140,
              "code": "mg/dL",
              "system": "http://unitsofmeasure.org"
            }
          }
        ],
        "text": {
          "status": "generated",
          "div": "<div xmlns=\"http://www.w3.org/1999/xhtml\"><table class=\"hl7__eu__lab__report\"><tr><th>Test</th><th>16-Feb-2024</th><th>Reference&#xA0;Range</th><th>Unit</th></tr><tr><td>Glucose [Mass/volume] in Serum or Plasma</td><td>72.4</td><td>70 - 140</td><td></td><td>mg/dL</td></tr></table></div>"
        },
        "status": "final",
        "subject": {
          "reference": "urn:uuid:90b1eabe-c3f7-484e-b2fc-5219d59c8df6",
          "display": "Victor Lagarde"
        },
        "effectiveDateTime": "2024-02-16T04:48:18Z",
        "specimen": {
          "reference": "urn:uuid:b357cfa8-e7c7-4c7c-a3b9-1839f8eec906"
        }
      }
    },
    {
      "fullUrl": "urn:uuid:a0d4ed5b-f8d8-4472-9254-75901e91caae",
      "resource": {
        "resourceType": "Observation",
        "id": "a0d4ed5b-f8d8-4472-9254-75901e91caae",
        "meta": {
          "profile": [
            "http://hl7.eu/fhir/laboratory/StructureDefinition/Observation-resultslab-eu-lab"
          ]
        },
        "performer": [
          {
            "display": "The Central European Lab"
          }
        ],
        "category": [
          {
            "coding": [
              {
                "system": "http://terminology.hl7.org/CodeSystem/observation-category",
                "code": "laboratory"
              }
            ]
          }
        ],
        "code": {
          "coding": [
            {
              "code": "3094-0",
              "system": "http://loinc.org",
              "display": "Urea nitrogen [Mass/volume] in Serum or Plasma"
            }
          ],
          "text": "Urea nitrogen [Mass/volume] in Serum or Plasma"
        },
        "valueQuantity": {
          "system": "http://unitsofmeasure.org",
          "value": 8.5,
          "unit": "mg/dL",
          "code": "mg/dL"
        },
        "referenceRange": [
          {
            "low": {
              "value": 7,
              "code": "mg/dL",
              "system": "http://unitsofmeasure.org"
            }
          },
          {
            "high": {
              "value": 20,
              "code": "mg/dL",
              "system": "http://unitsofmeasure.org"
            }
          }
        ],
        "text": {
          "status": "generated",
          "div": "<div xmlns=\"http://www.w3.org/1999/xhtml\"><table class=\"hl7__eu__lab__report\"><tr><th>Test</th><th>16-Feb-2024</th><th>Reference&#xA0;Range</th><th>Unit</th></tr><tr><td>Urea nitrogen [Mass/volume] in Serum or Plasma</td><td>8.5</td><td>7 - 20</td><td></td><td>mg/dL</td></tr></table></div>"
        },
        "status": "final",
        "subject": {
          "reference": "urn:uuid:90b1eabe-c3f7-484e-b2fc-5219d59c8df6",
          "display": "Victor Lagarde"
        },
        "effectiveDateTime": "2024-02-16T04:48:18Z",
        "specimen": {
          "reference": "urn:uuid:b357cfa8-e7c7-4c7c-a3b9-1839f8eec906"
        }
      }
    },
    {
      "fullUrl": "urn:uuid:1b159947-6ccc-48e9-bfc5-81f24476fa03",
      "resource": {
        "resourceType": "Observation",
        "id": "1b159947-6ccc-48e9-bfc5-81f24476fa03",
        "meta": {
          "profile": [
            "http://hl7.eu/fhir/laboratory/StructureDefinition/Observation-resultslab-eu-lab"
          ]
        },
        "performer": [
          {
            "display": "The Central European Lab"
          }
        ],
        "category": [
          {
            "coding": [
              {
                "system": "http://terminology.hl7.org/CodeSystem/observation-category",
                "code": "laboratory"
              }
            ]
          }
        ],
        "code": {
          "coding": [
            {
              "code": "2160-0",
              "system": "http://loinc.org",
              "display": "Creatinine [Mass/volume] in Serum or Plasma"
            }
          ],
          "text": "Creatinine [Mass/volume] in Serum or Plasma"
        },
        "valueQuantity": {
          "system": "http://unitsofmeasure.org",
          "value": 2.1,
          "unit": "mg/dL",
          "code": "mg/dL"
        },
        "referenceRange": [
          {
            "low": {
              "value": 0.9,
              "code": "mg/dL",
              "system": "http://unitsofmeasure.org"
            }
          },
          {
            "high": {
              "value": 1.3,
              "code": "mg/dL",
              "system": "http://unitsofmeasure.org"
            }
          }
        ],
        "interpretation": [
          {
            "coding": [
              {
                "code": "H",
                "system": "http://terminology.hl7.org/CodeSystem/v3-ObservationInterpretation",
                "display": "High"
              }
            ]
          }
        ],
        "text": {
          "status": "generated",
          "div": "<div xmlns=\"http://www.w3.org/1999/xhtml\"><table class=\"hl7__eu__lab__report\"><tr><th>Test</th><th>16-Feb-2024</th><th>Reference&#xA0;Range</th><th>Unit</th></tr><tr><td>Creatinine [Mass/volume] in Serum or Plasma</td><td>2.1</td><td>0.9 - 1.3</td><td>H</td><td>mg/dL</td></tr></table></div>"
        },
        "status": "final",
        "subject": {
          "reference": "urn:uuid:90b1eabe-c3f7-484e-b2fc-5219d59c8df6",
          "display": "Victor Lagarde"
        },
        "effectiveDateTime": "2024-02-16T04:48:18Z",
        "specimen": {
          "reference": "urn:uuid:b357cfa8-e7c7-4c7c-a3b9-1839f8eec906"
        }
      }
    },
    {
      "fullUrl": "urn:uuid:b0801cf2-4b2b-4422-b243-56b037dedc24",
      "resource": {
        "resourceType": "Observation",
        "id": "b0801cf2-4b2b-4422-b243-56b037dedc24",
        "meta": {
          "profile": [
            "http://hl7.eu/fhir/laboratory/StructureDefinition/Observation-resultslab-eu-lab"
          ]
        },
        "performer": [
          {
            "display": "The Central European Lab"
          }
        ],
        "category": [
          {
            "coding": [
              {
                "system": "http://terminology.hl7.org/CodeSystem/observation-category",
                "code": "laboratory"
              }
            ]
          }
        ],
        "code": {
          "coding": [
            {
              "code": "17861-6",
              "system": "http://loinc.org",
              "display": "Calcium [Mass/volume] in Serum or Plasma"
            }
          ],
          "text": "Calcium [Mass/volume] in Serum or Plasma"
        },
        "valueQuantity": {
          "system": "http://unitsofmeasure.org",
          "value": 9.2,
          "unit": "mg/dL",
          "code": "mg/dL"
        },
        "referenceRange": [
          {
            "low": {
              "value": 8.5,
              "code": "mg/dL",
              "system": "http://unitsofmeasure.org"
            }
          },
          {
            "high": {
              "value": 10.5,
              "code": "mg/dL",
              "system": "http://unitsofmeasure.org"
            }
          }
        ],
        "text": {
          "status": "generated",
          "div": "<div xmlns=\"http://www.w3.org/1999/xhtml\"><table class=\"hl7__eu__lab__report\"><tr><th>Test</th><th>16-Feb-2024</th><th>Reference&#xA0;Range</th><th>Unit</th></tr><tr><td>Calcium [Mass/volume] in Serum or Plasma</td><td>9.2</td><td>8.5 - 10.5</td><td></td><td>mg/dL</td></tr></table></div>"
        },
        "status": "final",
        "subject": {
          "reference": "urn:uuid:90b1eabe-c3f7-484e-b2fc-5219d59c8df6",
          "display": "Victor Lagarde"
        },
        "effectiveDateTime": "2024-02-16T04:48:18Z",
        "specimen": {
          "reference": "urn:uuid:b357cfa8-e7c7-4c7c-a3b9-1839f8eec906"
        }
      }
    },
    {
      "fullUrl": "urn:uuid:516e8bb6-2e6e-4bd4-ad75-59033bf6bbb9",
      "resource": {
        "resourceType": "Observation",
        "id": "516e8bb6-2e6e-4bd4-ad75-59033bf6bbb9",
        "meta": {
          "profile": [
            "http://hl7.eu/fhir/laboratory/StructureDefinition/Observation-resultslab-eu-lab"
          ]
        },
        "performer": [
          {
            "display": "The Central European Lab"
          }
        ],
        "category": [
          {
            "coding": [
              {
                "system": "http://terminology.hl7.org/CodeSystem/observation-category",
                "code": "laboratory"
              }
            ]
          }
        ],
        "code": {
          "coding": [
            {
              "code": "2951-2",
              "system": "http://loinc.org",
              "display": "Sodium [Moles/volume] in Serum or Plasma"
            }
          ],
          "text": "Sodium [Moles/volume] in Serum or Plasma"
        },
        "valueQuantity": {
          "system": "http://unitsofmeasure.org",
          "value": 142.7,
          "unit": "mmol/L",
          "code": "mmol/L"
        },
        "referenceRange": [
          {
            "low": {
              "value": 135,
              "code": "mmol/L",
              "system": "http://unitsofmeasure.org"
            }
          },
          {
            "high": {
              "value": 145,
              "code": "mmol/L",
              "system": "http://unitsofmeasure.org"
            }
          }
        ],
        "text": {
          "status": "generated",
          "div": "<div xmlns=\"http://www.w3.org/1999/xhtml\"><table class=\"hl7__eu__lab__report\"><tr><th>Test</th><th>16-Feb-2024</th><th>Reference&#xA0;Range</th><th>Unit</th></tr><tr><td>Sodium [Moles/volume] in Serum or Plasma</td><td>142.7</td><td>135 - 145</td><td></td><td>mmol/L</td></tr></table></div>"
        },
        "status": "final",
        "subject": {
          "reference": "urn:uuid:90b1eabe-c3f7-484e-b2fc-5219d59c8df6",
          "display": "Victor Lagarde"
        },
        "effectiveDateTime": "2024-02-16T04:48:18Z",
        "specimen": {
          "reference": "urn:uuid:b357cfa8-e7c7-4c7c-a3b9-1839f8eec906"
        }
      }
    },
    {
      "fullUrl": "urn:uuid:be1be967-9b5e-4bd1-8323-9bf5e7884f5d",
      "resource": {
        "resourceType": "Observation",
        "id": "be1be967-9b5e-4bd1-8323-9bf5e7884f5d",
        "meta": {
          "profile": [
            "http://hl7.eu/fhir/laboratory/StructureDefinition/Observation-resultslab-eu-lab"
          ]
        },
        "performer": [
          {
            "display": "The Central European Lab"
          }
        ],
        "category": [
          {
            "coding": [
              {
                "system": "http://terminology.hl7.org/CodeSystem/observation-category",
                "code": "laboratory"
              }
            ]
          }
        ],
        "code": {
          "coding": [
            {
              "code": "2823-3",
              "system": "http://loinc.org",
              "display": "Potassium [Moles/volume] in Serum or Plasma"
            }
          ],
          "text": "Potassium [Moles/volume] in Serum or Plasma"
        },
        "valueQuantity": {
          "system": "http://unitsofmeasure.org",
          "value": 3.8,
          "unit": "mmol/L",
          "code": "mmol/L"
        },
        "referenceRange": [
          {
            "low": {
              "value": 3.5,
              "code": "mmol/L",
              "system": "http://unitsofmeasure.org"
            }
          },
          {
            "high": {
              "value": 5.3,
              "code": "mmol/L",
              "system": "http://unitsofmeasure.org"
            }
          }
        ],
        "text": {
          "status": "generated",
          "div": "<div xmlns=\"http://www.w3.org/1999/xhtml\"><table class=\"hl7__eu__lab__report\"><tr><th>Test</th><th>16-Feb-2024</th><th>Reference&#xA0;Range</th><th>Unit</th></tr><tr><td>Potassium [Moles/volume] in Serum or Plasma</td><td>3.8</td><td>3.5 - 5.3</td><td></td><td>mmol/L</td></tr></table></div>"
        },
        "status": "final",
        "subject": {
          "reference": "urn:uuid:90b1eabe-c3f7-484e-b2fc-5219d59c8df6",
          "display": "Victor Lagarde"
        },
        "effectiveDateTime": "2024-02-16T04:48:18Z",
        "specimen": {
          "reference": "urn:uuid:b357cfa8-e7c7-4c7c-a3b9-1839f8eec906"
        }
      }
    },
    {
      "fullUrl": "urn:uuid:3c665bb8-00f0-4006-9de0-1335e22e1408",
      "resource": {
        "resourceType": "Observation",
        "id": "3c665bb8-00f0-4006-9de0-1335e22e1408",
        "meta": {
          "profile": [
            "http://hl7.eu/fhir/laboratory/StructureDefinition/Observation-resultslab-eu-lab"
          ]
        },
        "performer": [
          {
            "display": "The Central European Lab"
          }
        ],
        "category": [
          {
            "coding": [
              {
                "system": "http://terminology.hl7.org/CodeSystem/observation-category",
                "code": "laboratory"
              }
            ]
          }
        ],
        "code": {
          "coding": [
            {
              "code": "2075-0",
              "system": "http://loinc.org",
              "display": "Chloride [Moles/volume] in Serum or Plasma"
            }
          ],
          "text": "Chloride [Moles/volume] in Serum or Plasma"
        },
        "valueQuantity": {
          "system": "http://unitsofmeasure.org",
          "value": 103,
          "unit": "mmol/L",
          "code": "mmol/L"
        },
        "referenceRange": [
          {
            "low": {
              "value": 98,
              "code": "mmol/L",
              "system": "http://unitsofmeasure.org"
            }
          },
          {
            "high": {
              "value": 107,
              "code": "mmol/L",
              "system": "http://unitsofmeasure.org"
            }
          }
        ],
        "text": {
          "status": "generated",
          "div": "<div xmlns=\"http://www.w3.org/1999/xhtml\"><table class=\"hl7__eu__lab__report\"><tr><th>Test</th><th>16-Feb-2024</th><th>Reference&#xA0;Range</th><th>Unit</th></tr><tr><td>Chloride [Moles/volume] in Serum or Plasma</td><td>103.0</td><td>98 - 107</td><td></td><td>mmol/L</td></tr></table></div>"
        },
        "status": "final",
        "subject": {
          "reference": "urn:uuid:90b1eabe-c3f7-484e-b2fc-5219d59c8df6",
          "display": "Victor Lagarde"
        },
        "effectiveDateTime": "2024-02-16T04:48:18Z",
        "specimen": {
          "reference": "urn:uuid:b357cfa8-e7c7-4c7c-a3b9-1839f8eec906"
        }
      }
    },
    {
      "fullUrl": "urn:uuid:b4da5571-4358-49e1-b960-dcbb41dac1f7",
      "resource": {
        "resourceType": "Observation",
        "id": "b4da5571-4358-49e1-b960-dcbb41dac1f7",
        "meta": {
          "profile": [
            "http://hl7.eu/fhir/laboratory/StructureDefinition/Observation-resultslab-eu-lab"
          ]
        },
        "performer": [
          {
            "display": "The Central European Lab"
          }
        ],
        "category": [
          {
            "coding": [
              {
                "system": "http://terminology.hl7.org/CodeSystem/observation-category",
                "code": "laboratory"
              }
            ]
          }
        ],
        "code": {
          "coding": [
            {
              "code": "2028-9",
              "system": "http://loinc.org",
              "display": "Carbon dioxide, total [Moles/volume] in Serum or Plasma"
            }
          ],
          "text": "Carbon dioxide, total [Moles/volume] in Serum or Plasma"
        },
        "valueQuantity": {
          "system": "http://unitsofmeasure.org",
          "value": 25.5,
          "unit": "mmol/L",
          "code": "mmol/L"
        },
        "referenceRange": [
          {
            "low": {
              "value": 22,
              "code": "mmol/L",
              "system": "http://unitsofmeasure.org"
            }
          },
          {
            "high": {
              "value": 33,
              "code": "mmol/L",
              "system": "http://unitsofmeasure.org"
            }
          }
        ],
        "text": {
          "status": "generated",
          "div": "<div xmlns=\"http://www.w3.org/1999/xhtml\"><table class=\"hl7__eu__lab__report\"><tr><th>Test</th><th>16-Feb-2024</th><th>Reference&#xA0;Range</th><th>Unit</th></tr><tr><td>Carbon dioxide, total [Moles/volume] in Serum or Plasma</td><td>25.5</td><td>22 - 33</td><td></td><td>mmol/L</td></tr></table></div>"
        },
        "status": "final",
        "subject": {
          "reference": "urn:uuid:90b1eabe-c3f7-484e-b2fc-5219d59c8df6",
          "display": "Victor Lagarde"
        },
        "effectiveDateTime": "2024-02-16T04:48:18Z",
        "specimen": {
          "reference": "urn:uuid:b357cfa8-e7c7-4c7c-a3b9-1839f8eec906"
        }
      }
    },
    {
      "fullUrl": "urn:uuid:5b9a9d2e-88fa-4295-9f53-f8db3708c9af",
      "resource": {
        "resourceType": "Observation",
        "id": "5b9a9d2e-88fa-4295-9f53-f8db3708c9af",
        "meta": {
          "profile": [
            "http://hl7.eu/fhir/laboratory/StructureDefinition/Observation-resultslab-eu-lab"
          ]
        },
        "performer": [
          {
            "display": "The Central European Lab"
          }
        ],
        "category": [
          {
            "coding": [
              {
                "system": "http://terminology.hl7.org/CodeSystem/observation-category",
                "code": "laboratory"
              }
            ]
          }
        ],
        "code": {
          "coding": [
            {
              "code": "5767-9",
              "system": "http://loinc.org",
              "display": "Appearance of Urine"
            }
          ],
          "text": "Appearance of Urine"
        },
        "text": {
          "status": "generated",
          "div": "<div xmlns=\"http://www.w3.org/1999/xhtml\"><table class=\"hl7__eu__lab__report\"><tr><th>Test</th><th>16-Feb-2024</th><th>Reference&#xA0;Range</th><th>Unit</th></tr><tr><td>Appearance of Urine</td></tr></table></div>"
        },
        "status": "final",
        "subject": {
          "reference": "urn:uuid:90b1eabe-c3f7-484e-b2fc-5219d59c8df6",
          "display": "Victor Lagarde"
        },
        "effectiveDateTime": "2024-02-16T04:48:18Z",
        "specimen": {
          "reference": "urn:uuid:a2ff0492-9885-4761-8761-0b69f99860c4"
        }
      }
    },
    {
      "fullUrl": "urn:uuid:7f5c3c20-d218-409a-bccd-8802c9149990",
      "resource": {
        "resourceType": "Observation",
        "id": "7f5c3c20-d218-409a-bccd-8802c9149990",
        "meta": {
          "profile": [
            "http://hl7.eu/fhir/laboratory/StructureDefinition/Observation-resultslab-eu-lab"
          ]
        },
        "performer": [
          {
            "display": "The Central European Lab"
          }
        ],
        "category": [
          {
            "coding": [
              {
                "system": "http://terminology.hl7.org/CodeSystem/observation-category",
                "code": "laboratory"
              }
            ]
          }
        ],
        "code": {
          "coding": [
            {
              "code": "34533-0",
              "system": "http://loinc.org",
              "display": "Odor of Urine"
            }
          ],
          "text": "Odor of Urine"
        },
        "text": {
          "status": "generated",
          "div": "<div xmlns=\"http://www.w3.org/1999/xhtml\"><table class=\"hl7__eu__lab__report\"><tr><th>Test</th><th>16-Feb-2024</th><th>Reference&#xA0;Range</th><th>Unit</th></tr><tr><td>Odor of Urine</td></tr></table></div>"
        },
        "status": "final",
        "subject": {
          "reference": "urn:uuid:90b1eabe-c3f7-484e-b2fc-5219d59c8df6",
          "display": "Victor Lagarde"
        },
        "effectiveDateTime": "2024-02-16T04:48:18Z",
        "specimen": {
          "reference": "urn:uuid:a2ff0492-9885-4761-8761-0b69f99860c4"
        }
      }
    },
    {
      "fullUrl": "urn:uuid:cc5ae81e-03ae-46de-a10e-e804ac8376ab",
      "resource": {
        "resourceType": "Observation",
        "id": "cc5ae81e-03ae-46de-a10e-e804ac8376ab",
        "meta": {
          "profile": [
            "http://hl7.eu/fhir/laboratory/StructureDefinition/Observation-resultslab-eu-lab"
          ]
        },
        "performer": [
          {
            "display": "The Central European Lab"
          }
        ],
        "category": [
          {
            "coding": [
              {
                "system": "http://terminology.hl7.org/CodeSystem/observation-category",
                "code": "laboratory"
              }
            ]
          }
        ],
        "code": {
          "coding": [
            {
              "code": "32167-9",
              "system": "http://loinc.org",
              "display": "Clarity of Urine"
            }
          ],
          "text": "Clarity of Urine"
        },
        "text": {
          "status": "generated",
          "div": "<div xmlns=\"http://www.w3.org/1999/xhtml\"><table class=\"hl7__eu__lab__report\"><tr><th>Test</th><th>16-Feb-2024</th><th>Reference&#xA0;Range</th><th>Unit</th></tr><tr><td>Clarity of Urine</td></tr></table></div>"
        },
        "status": "final",
        "subject": {
          "reference": "urn:uuid:90b1eabe-c3f7-484e-b2fc-5219d59c8df6",
          "display": "Victor Lagarde"
        },
        "effectiveDateTime": "2024-02-16T04:48:18Z",
        "specimen": {
          "reference": "urn:uuid:a2ff0492-9885-4761-8761-0b69f99860c4"
        }
      }
    },
    {
      "fullUrl": "urn:uuid:4651befe-6a9c-4062-bafe-d4e6c7654750",
      "resource": {
        "resourceType": "Observation",
        "id": "4651befe-6a9c-4062-bafe-d4e6c7654750",
        "meta": {
          "profile": [
            "http://hl7.eu/fhir/laboratory/StructureDefinition/Observation-resultslab-eu-lab"
          ]
        },
        "performer": [
          {
            "display": "The Central European Lab"
          }
        ],
        "category": [
          {
            "coding": [
              {
                "system": "http://terminology.hl7.org/CodeSystem/observation-category",
                "code": "laboratory"
              }
            ]
          }
        ],
        "code": {
          "coding": [
            {
              "code": "5778-6",
              "system": "http://loinc.org",
              "display": "Color of Urine"
            }
          ],
          "text": "Color of Urine"
        },
        "text": {
          "status": "generated",
          "div": "<div xmlns=\"http://www.w3.org/1999/xhtml\"><table class=\"hl7__eu__lab__report\"><tr><th>Test</th><th>16-Feb-2024</th><th>Reference&#xA0;Range</th><th>Unit</th></tr><tr><td>Color of Urine</td></tr></table></div>"
        },
        "status": "final",
        "subject": {
          "reference": "urn:uuid:90b1eabe-c3f7-484e-b2fc-5219d59c8df6",
          "display": "Victor Lagarde"
        },
        "effectiveDateTime": "2024-02-16T04:48:18Z",
        "specimen": {
          "reference": "urn:uuid:a2ff0492-9885-4761-8761-0b69f99860c4"
        }
      }
    },
    {
      "fullUrl": "urn:uuid:b7690069-e644-4348-926a-090954b655c6",
      "resource": {
        "resourceType": "Observation",
        "id": "b7690069-e644-4348-926a-090954b655c6",
        "meta": {
          "profile": [
            "http://hl7.eu/fhir/laboratory/StructureDefinition/Observation-resultslab-eu-lab"
          ]
        },
        "performer": [
          {
            "display": "The Central European Lab"
          }
        ],
        "category": [
          {
            "coding": [
              {
                "system": "http://terminology.hl7.org/CodeSystem/observation-category",
                "code": "laboratory"
              }
            ]
          }
        ],
        "code": {
          "coding": [
            {
              "code": "5792-7",
              "system": "http://loinc.org",
              "display": "Glucose [Mass/volume] in Urine by Test strip"
            }
          ],
          "text": "Glucose [Mass/volume] in Urine by Test strip"
        },
        "valueQuantity": {
          "system": "http://unitsofmeasure.org",
          "value": 1.2,
          "unit": "mg/dL",
          "code": "mg/dL"
        },
        "referenceRange": [
          {
            "low": {
              "value": 0,
              "code": "mg/dL",
              "system": "http://unitsofmeasure.org"
            }
          },
          {
            "high": {
              "value": 0.8,
              "code": "mg/dL",
              "system": "http://unitsofmeasure.org"
            }
          }
        ],
        "interpretation": [
          {
            "coding": [
              {
                "code": "H",
                "system": "http://terminology.hl7.org/CodeSystem/v3-ObservationInterpretation",
                "display": "High"
              }
            ]
          }
        ],
        "text": {
          "status": "generated",
          "div": "<div xmlns=\"http://www.w3.org/1999/xhtml\"><table class=\"hl7__eu__lab__report\"><tr><th>Test</th><th>16-Feb-2024</th><th>Reference&#xA0;Range</th><th>Unit</th></tr><tr><td>Glucose [Mass/volume] in Urine by Test strip</td><td>1.2</td><td>0 - 0.8</td><td>H</td><td>mg/dL</td></tr></table></div>"
        },
        "status": "final",
        "subject": {
          "reference": "urn:uuid:90b1eabe-c3f7-484e-b2fc-5219d59c8df6",
          "display": "Victor Lagarde"
        },
        "effectiveDateTime": "2024-02-16T04:48:18Z",
        "specimen": {
          "reference": "urn:uuid:a2ff0492-9885-4761-8761-0b69f99860c4"
        }
      }
    },
    {
      "fullUrl": "urn:uuid:4bbf6be6-d716-489c-8cda-7067d7f5c095",
      "resource": {
        "resourceType": "Observation",
        "id": "4bbf6be6-d716-489c-8cda-7067d7f5c095",
        "meta": {
          "profile": [
            "http://hl7.eu/fhir/laboratory/StructureDefinition/Observation-resultslab-eu-lab"
          ]
        },
        "performer": [
          {
            "display": "The Central European Lab"
          }
        ],
        "category": [
          {
            "coding": [
              {
                "system": "http://terminology.hl7.org/CodeSystem/observation-category",
                "code": "laboratory"
              }
            ]
          }
        ],
        "code": {
          "coding": [
            {
              "code": "25428-4",
              "system": "http://loinc.org",
              "display": "Glucose [Presence] in Urine by Test strip"
            }
          ],
          "text": "Glucose [Presence] in Urine by Test strip"
        },
        "text": {
          "status": "generated",
          "div": "<div xmlns=\"http://www.w3.org/1999/xhtml\"><table class=\"hl7__eu__lab__report\"><tr><th>Test</th><th>16-Feb-2024</th><th>Reference&#xA0;Range</th><th>Unit</th></tr><tr><td>Glucose [Presence] in Urine by Test strip</td></tr></table></div>"
        },
        "status": "final",
        "subject": {
          "reference": "urn:uuid:90b1eabe-c3f7-484e-b2fc-5219d59c8df6",
          "display": "Victor Lagarde"
        },
        "effectiveDateTime": "2024-02-16T04:48:18Z",
        "specimen": {
          "reference": "urn:uuid:a2ff0492-9885-4761-8761-0b69f99860c4"
        }
      }
    },
    {
      "fullUrl": "urn:uuid:26fc65f0-8b2e-487c-a005-f2fc997eb9ba",
      "resource": {
        "resourceType": "Observation",
        "id": "26fc65f0-8b2e-487c-a005-f2fc997eb9ba",
        "meta": {
          "profile": [
            "http://hl7.eu/fhir/laboratory/StructureDefinition/Observation-resultslab-eu-lab"
          ]
        },
        "performer": [
          {
            "display": "The Central European Lab"
          }
        ],
        "category": [
          {
            "coding": [
              {
                "system": "http://terminology.hl7.org/CodeSystem/observation-category",
                "code": "laboratory"
              }
            ]
          }
        ],
        "code": {
          "coding": [
            {
              "code": "20505-4",
              "system": "http://loinc.org",
              "display": "Bilirubin.total [Mass/volume] in Urine by Test strip"
            }
          ],
          "text": "Bilirubin.total [Mass/volume] in Urine by Test strip"
        },
        "valueQuantity": {
          "system": "http://unitsofmeasure.org",
          "value": 1.1,
          "unit": "mg/dL",
          "code": "mg/dL"
        },
        "referenceRange": [
          {
            "low": {
              "value": 0,
              "code": "mg/dL",
              "system": "http://unitsofmeasure.org"
            }
          },
          {
            "high": {
              "value": 1.9,
              "code": "mg/dL",
              "system": "http://unitsofmeasure.org"
            }
          }
        ],
        "text": {
          "status": "generated",
          "div": "<div xmlns=\"http://www.w3.org/1999/xhtml\"><table class=\"hl7__eu__lab__report\"><tr><th>Test</th><th>16-Feb-2024</th><th>Reference&#xA0;Range</th><th>Unit</th></tr><tr><td>Bilirubin.total [Mass/volume] in Urine by Test strip</td><td>1.1</td><td>0 - 1.9</td><td></td><td>mg/dL</td></tr></table></div>"
        },
        "status": "final",
        "subject": {
          "reference": "urn:uuid:90b1eabe-c3f7-484e-b2fc-5219d59c8df6",
          "display": "Victor Lagarde"
        },
        "effectiveDateTime": "2024-02-16T04:48:18Z",
        "specimen": {
          "reference": "urn:uuid:a2ff0492-9885-4761-8761-0b69f99860c4"
        }
      }
    },
    {
      "fullUrl": "urn:uuid:1a95929b-0191-459f-ad81-a4fcb25d8b74",
      "resource": {
        "resourceType": "Observation",
        "id": "1a95929b-0191-459f-ad81-a4fcb25d8b74",
        "meta": {
          "profile": [
            "http://hl7.eu/fhir/laboratory/StructureDefinition/Observation-resultslab-eu-lab"
          ]
        },
        "performer": [
          {
            "display": "The Central European Lab"
          }
        ],
        "category": [
          {
            "coding": [
              {
                "system": "http://terminology.hl7.org/CodeSystem/observation-category",
                "code": "laboratory"
              }
            ]
          }
        ],
        "code": {
          "coding": [
            {
              "code": "5770-3",
              "system": "http://loinc.org",
              "display": "Bilirubin.total [Presence] in Urine by Test strip"
            }
          ],
          "text": "Bilirubin.total [Presence] in Urine by Test strip"
        },
        "text": {
          "status": "generated",
          "div": "<div xmlns=\"http://www.w3.org/1999/xhtml\"><table class=\"hl7__eu__lab__report\"><tr><th>Test</th><th>16-Feb-2024</th><th>Reference&#xA0;Range</th><th>Unit</th></tr><tr><td>Bilirubin.total [Presence] in Urine by Test strip</td></tr></table></div>"
        },
        "status": "final",
        "subject": {
          "reference": "urn:uuid:90b1eabe-c3f7-484e-b2fc-5219d59c8df6",
          "display": "Victor Lagarde"
        },
        "effectiveDateTime": "2024-02-16T04:48:18Z",
        "specimen": {
          "reference": "urn:uuid:a2ff0492-9885-4761-8761-0b69f99860c4"
        }
      }
    },
    {
      "fullUrl": "urn:uuid:1495791f-d5d1-44a6-a60a-82488a98092c",
      "resource": {
        "resourceType": "Observation",
        "id": "1495791f-d5d1-44a6-a60a-82488a98092c",
        "meta": {
          "profile": [
            "http://hl7.eu/fhir/laboratory/StructureDefinition/Observation-resultslab-eu-lab"
          ]
        },
        "performer": [
          {
            "display": "The Central European Lab"
          }
        ],
        "category": [
          {
            "coding": [
              {
                "system": "http://terminology.hl7.org/CodeSystem/observation-category",
                "code": "laboratory"
              }
            ]
          }
        ],
        "code": {
          "coding": [
            {
              "code": "5797-6",
              "system": "http://loinc.org",
              "display": "Ketones [Mass/volume] in Urine by Test strip"
            }
          ],
          "text": "Ketones [Mass/volume] in Urine by Test strip"
        },
        "valueQuantity": {
          "system": "http://unitsofmeasure.org",
          "value": 0.6,
          "unit": "mg/dL",
          "code": "mg/dL"
        },
        "referenceRange": [
          {
            "low": {
              "value": 0,
              "code": "mg/dL",
              "system": "http://unitsofmeasure.org"
            }
          },
          {
            "high": {
              "value": 3,
              "code": "mg/dL",
              "system": "http://unitsofmeasure.org"
            }
          }
        ],
        "text": {
          "status": "generated",
          "div": "<div xmlns=\"http://www.w3.org/1999/xhtml\"><table class=\"hl7__eu__lab__report\"><tr><th>Test</th><th>16-Feb-2024</th><th>Reference&#xA0;Range</th><th>Unit</th></tr><tr><td>Ketones [Mass/volume] in Urine by Test strip</td><td>0.6</td><td>0 - 3</td><td></td><td>mg/dL</td></tr></table></div>"
        },
        "status": "final",
        "subject": {
          "reference": "urn:uuid:90b1eabe-c3f7-484e-b2fc-5219d59c8df6",
          "display": "Victor Lagarde"
        },
        "effectiveDateTime": "2024-02-16T04:48:18Z",
        "specimen": {
          "reference": "urn:uuid:a2ff0492-9885-4761-8761-0b69f99860c4"
        }
      }
    },
    {
      "fullUrl": "urn:uuid:72beee12-0cfb-42cb-8f24-18c8c9b6a129",
      "resource": {
        "resourceType": "Observation",
        "id": "72beee12-0cfb-42cb-8f24-18c8c9b6a129",
        "meta": {
          "profile": [
            "http://hl7.eu/fhir/laboratory/StructureDefinition/Observation-resultslab-eu-lab"
          ]
        },
        "performer": [
          {
            "display": "The Central European Lab"
          }
        ],
        "category": [
          {
            "coding": [
              {
                "system": "http://terminology.hl7.org/CodeSystem/observation-category",
                "code": "laboratory"
              }
            ]
          }
        ],
        "code": {
          "coding": [
            {
              "code": "2514-8",
              "system": "http://loinc.org",
              "display": "Ketones [Presence] in Urine by Test strip"
            }
          ],
          "text": "Ketones [Presence] in Urine by Test strip"
        },
        "text": {
          "status": "generated",
          "div": "<div xmlns=\"http://www.w3.org/1999/xhtml\"><table class=\"hl7__eu__lab__report\"><tr><th>Test</th><th>16-Feb-2024</th><th>Reference&#xA0;Range</th><th>Unit</th></tr><tr><td>Ketones [Presence] in Urine by Test strip</td></tr></table></div>"
        },
        "status": "final",
        "subject": {
          "reference": "urn:uuid:90b1eabe-c3f7-484e-b2fc-5219d59c8df6",
          "display": "Victor Lagarde"
        },
        "effectiveDateTime": "2024-02-16T04:48:18Z",
        "specimen": {
          "reference": "urn:uuid:a2ff0492-9885-4761-8761-0b69f99860c4"
        }
      }
    },
    {
      "fullUrl": "urn:uuid:fdb54c07-cde6-4915-af7e-85ff86c3c2ad",
      "resource": {
        "resourceType": "Observation",
        "id": "fdb54c07-cde6-4915-af7e-85ff86c3c2ad",
        "meta": {
          "profile": [
            "http://hl7.eu/fhir/laboratory/StructureDefinition/Observation-resultslab-eu-lab"
          ]
        },
        "performer": [
          {
            "display": "The Central European Lab"
          }
        ],
        "category": [
          {
            "coding": [
              {
                "system": "http://terminology.hl7.org/CodeSystem/observation-category",
                "code": "laboratory"
              }
            ]
          }
        ],
        "code": {
          "coding": [
            {
              "code": "5811-5",
              "system": "http://loinc.org",
              "display": "Specific gravity of Urine by Test strip"
            }
          ],
          "text": "Specific gravity of Urine by Test strip"
        },
        "valueQuantity": {
          "system": "http://unitsofmeasure.org",
          "value": 1,
          "unit": "{nominal}",
          "code": "{nominal}"
        },
        "referenceRange": [
          {
            "low": {
              "value": 1.01,
              "code": "g/mL",
              "system": "http://unitsofmeasure.org"
            }
          },
          {
            "high": {
              "value": 1.03,
              "code": "g/mL",
              "system": "http://unitsofmeasure.org"
            }
          }
        ],
        "interpretation": [
          {
            "coding": [
              {
                "code": "L",
                "system": "http://terminology.hl7.org/CodeSystem/v3-ObservationInterpretation",
                "display": "Low"
              }
            ]
          }
        ],
        "text": {
          "status": "generated",
          "div": "<div xmlns=\"http://www.w3.org/1999/xhtml\"><table class=\"hl7__eu__lab__report\"><tr><th>Test</th><th>16-Feb-2024</th><th>Reference&#xA0;Range</th><th>Unit</th></tr><tr><td>Specific gravity of Urine by Test strip</td><td>1.0</td><td>1.01 - 1.03</td><td>L</td><td>{nominal}</td></tr></table></div>"
        },
        "status": "final",
        "subject": {
          "reference": "urn:uuid:90b1eabe-c3f7-484e-b2fc-5219d59c8df6",
          "display": "Victor Lagarde"
        },
        "effectiveDateTime": "2024-02-16T04:48:18Z",
        "specimen": {
          "reference": "urn:uuid:a2ff0492-9885-4761-8761-0b69f99860c4"
        }
      }
    },
    {
      "fullUrl": "urn:uuid:8580017d-c8c3-4e1e-bec1-2c862a57c4e2",
      "resource": {
        "resourceType": "Observation",
        "id": "8580017d-c8c3-4e1e-bec1-2c862a57c4e2",
        "meta": {
          "profile": [
            "http://hl7.eu/fhir/laboratory/StructureDefinition/Observation-resultslab-eu-lab"
          ]
        },
        "performer": [
          {
            "display": "The Central European Lab"
          }
        ],
        "category": [
          {
            "coding": [
              {
                "system": "http://terminology.hl7.org/CodeSystem/observation-category",
                "code": "laboratory"
              }
            ]
          }
        ],
        "code": {
          "coding": [
            {
              "code": "5803-2",
              "system": "http://loinc.org",
              "display": "pH of Urine by Test strip"
            }
          ],
          "text": "pH of Urine by Test strip"
        },
        "valueQuantity": {
          "system": "http://unitsofmeasure.org",
          "value": 6.5,
          "unit": "pH",
          "code": "pH"
        },
        "referenceRange": [
          {
            "low": {
              "value": 4.5,
              "code": "pH",
              "system": "http://unitsofmeasure.org"
            }
          },
          {
            "high": {
              "value": 7.5,
              "code": "pH",
              "system": "http://unitsofmeasure.org"
            }
          }
        ],
        "text": {
          "status": "generated",
          "div": "<div xmlns=\"http://www.w3.org/1999/xhtml\"><table class=\"hl7__eu__lab__report\"><tr><th>Test</th><th>16-Feb-2024</th><th>Reference&#xA0;Range</th><th>Unit</th></tr><tr><td>pH of Urine by Test strip</td><td>6.5</td><td>4.5 - 7.5</td><td></td><td>pH</td></tr></table></div>"
        },
        "status": "final",
        "subject": {
          "reference": "urn:uuid:90b1eabe-c3f7-484e-b2fc-5219d59c8df6",
          "display": "Victor Lagarde"
        },
        "effectiveDateTime": "2024-02-16T04:48:18Z",
        "specimen": {
          "reference": "urn:uuid:a2ff0492-9885-4761-8761-0b69f99860c4"
        }
      }
    },
    {
      "fullUrl": "urn:uuid:d35a5f8f-0084-4d01-87af-b527dde413ab",
      "resource": {
        "resourceType": "Observation",
        "id": "d35a5f8f-0084-4d01-87af-b527dde413ab",
        "meta": {
          "profile": [
            "http://hl7.eu/fhir/laboratory/StructureDefinition/Observation-resultslab-eu-lab"
          ]
        },
        "performer": [
          {
            "display": "The Central European Lab"
          }
        ],
        "category": [
          {
            "coding": [
              {
                "system": "http://terminology.hl7.org/CodeSystem/observation-category",
                "code": "laboratory"
              }
            ]
          }
        ],
        "code": {
          "coding": [
            {
              "code": "5804-0",
              "system": "http://loinc.org",
              "display": "Protein [Mass/volume] in Urine by Test strip"
            }
          ],
          "text": "Protein [Mass/volume] in Urine by Test strip"
        },
        "valueQuantity": {
          "system": "http://unitsofmeasure.org",
          "value": 216.9,
          "unit": "mg/dL",
          "code": "mg/dL"
        },
        "referenceRange": [
          {
            "low": {
              "value": 0,
              "code": "mg/dL",
              "system": "http://unitsofmeasure.org"
            }
          },
          {
            "high": {
              "value": 149,
              "code": "mg/dL",
              "system": "http://unitsofmeasure.org"
            }
          }
        ],
        "interpretation": [
          {
            "coding": [
              {
                "code": "H",
                "system": "http://terminology.hl7.org/CodeSystem/v3-ObservationInterpretation",
                "display": "High"
              }
            ]
          }
        ],
        "text": {
          "status": "generated",
          "div": "<div xmlns=\"http://www.w3.org/1999/xhtml\"><table class=\"hl7__eu__lab__report\"><tr><th>Test</th><th>16-Feb-2024</th><th>Reference&#xA0;Range</th><th>Unit</th></tr><tr><td>Protein [Mass/volume] in Urine by Test strip</td><td>216.9</td><td>0 - 149</td><td>H</td><td>mg/dL</td></tr></table></div>"
        },
        "status": "final",
        "subject": {
          "reference": "urn:uuid:90b1eabe-c3f7-484e-b2fc-5219d59c8df6",
          "display": "Victor Lagarde"
        },
        "effectiveDateTime": "2024-02-16T04:48:18Z",
        "specimen": {
          "reference": "urn:uuid:a2ff0492-9885-4761-8761-0b69f99860c4"
        }
      }
    },
    {
      "fullUrl": "urn:uuid:2aa8fff4-b9ed-4f66-a242-abfcac1f6338",
      "resource": {
        "resourceType": "Observation",
        "id": "2aa8fff4-b9ed-4f66-a242-abfcac1f6338",
        "meta": {
          "profile": [
            "http://hl7.eu/fhir/laboratory/StructureDefinition/Observation-resultslab-eu-lab"
          ]
        },
        "performer": [
          {
            "display": "The Central European Lab"
          }
        ],
        "category": [
          {
            "coding": [
              {
                "system": "http://terminology.hl7.org/CodeSystem/observation-category",
                "code": "laboratory"
              }
            ]
          }
        ],
        "code": {
          "coding": [
            {
              "code": "20454-5",
              "system": "http://loinc.org",
              "display": "Protein [Presence] in Urine by Test strip"
            }
          ],
          "text": "Protein [Presence] in Urine by Test strip"
        },
        "text": {
          "status": "generated",
          "div": "<div xmlns=\"http://www.w3.org/1999/xhtml\"><table class=\"hl7__eu__lab__report\"><tr><th>Test</th><th>16-Feb-2024</th><th>Reference&#xA0;Range</th><th>Unit</th></tr><tr><td>Protein [Presence] in Urine by Test strip</td></tr></table></div>"
        },
        "status": "final",
        "subject": {
          "reference": "urn:uuid:90b1eabe-c3f7-484e-b2fc-5219d59c8df6",
          "display": "Victor Lagarde"
        },
        "effectiveDateTime": "2024-02-16T04:48:18Z",
        "specimen": {
          "reference": "urn:uuid:a2ff0492-9885-4761-8761-0b69f99860c4"
        }
      }
    },
    {
      "fullUrl": "urn:uuid:efb1c3f1-cc2b-4679-b5c1-20022696f2e3",
      "resource": {
        "resourceType": "Observation",
        "id": "efb1c3f1-cc2b-4679-b5c1-20022696f2e3",
        "meta": {
          "profile": [
            "http://hl7.eu/fhir/laboratory/StructureDefinition/Observation-resultslab-eu-lab"
          ]
        },
        "performer": [
          {
            "display": "The Central European Lab"
          }
        ],
        "category": [
          {
            "coding": [
              {
                "system": "http://terminology.hl7.org/CodeSystem/observation-category",
                "code": "laboratory"
              }
            ]
          }
        ],
        "code": {
          "coding": [
            {
              "code": "5802-4",
              "system": "http://loinc.org",
              "display": "Nitrite [Presence] in Urine by Test strip"
            }
          ],
          "text": "Nitrite [Presence] in Urine by Test strip"
        },
        "text": {
          "status": "generated",
          "div": "<div xmlns=\"http://www.w3.org/1999/xhtml\"><table class=\"hl7__eu__lab__report\"><tr><th>Test</th><th>16-Feb-2024</th><th>Reference&#xA0;Range</th><th>Unit</th></tr><tr><td>Nitrite [Presence] in Urine by Test strip</td></tr></table></div>"
        },
        "status": "final",
        "subject": {
          "reference": "urn:uuid:90b1eabe-c3f7-484e-b2fc-5219d59c8df6",
          "display": "Victor Lagarde"
        },
        "effectiveDateTime": "2024-02-16T04:48:18Z",
        "specimen": {
          "reference": "urn:uuid:a2ff0492-9885-4761-8761-0b69f99860c4"
        }
      }
    },
    {
      "fullUrl": "urn:uuid:1d798397-1029-4991-80cf-91ace7557acc",
      "resource": {
        "resourceType": "Observation",
        "id": "1d798397-1029-4991-80cf-91ace7557acc",
        "meta": {
          "profile": [
            "http://hl7.eu/fhir/laboratory/StructureDefinition/Observation-resultslab-eu-lab"
          ]
        },
        "performer": [
          {
            "display": "The Central European Lab"
          }
        ],
        "category": [
          {
            "coding": [
              {
                "system": "http://terminology.hl7.org/CodeSystem/observation-category",
                "code": "laboratory"
              }
            ]
          }
        ],
        "code": {
          "coding": [
            {
              "code": "5794-3",
              "system": "http://loinc.org",
              "display": "Hemoglobin [Presence] in Urine by Test strip"
            }
          ],
          "text": "Hemoglobin [Presence] in Urine by Test strip"
        },
        "text": {
          "status": "generated",
          "div": "<div xmlns=\"http://www.w3.org/1999/xhtml\"><table class=\"hl7__eu__lab__report\"><tr><th>Test</th><th>16-Feb-2024</th><th>Reference&#xA0;Range</th><th>Unit</th></tr><tr><td>Hemoglobin [Presence] in Urine by Test strip</td></tr></table></div>"
        },
        "status": "final",
        "subject": {
          "reference": "urn:uuid:90b1eabe-c3f7-484e-b2fc-5219d59c8df6",
          "display": "Victor Lagarde"
        },
        "effectiveDateTime": "2024-02-16T04:48:18Z",
        "specimen": {
          "reference": "urn:uuid:a2ff0492-9885-4761-8761-0b69f99860c4"
        }
      }
    },
    {
      "fullUrl": "urn:uuid:21241a7f-f971-4873-953d-a56c33804a97",
      "resource": {
        "resourceType": "Observation",
        "id": "21241a7f-f971-4873-953d-a56c33804a97",
        "meta": {
          "profile": [
            "http://hl7.eu/fhir/laboratory/StructureDefinition/Observation-resultslab-eu-lab"
          ]
        },
        "performer": [
          {
            "display": "The Central European Lab"
          }
        ],
        "category": [
          {
            "coding": [
              {
                "system": "http://terminology.hl7.org/CodeSystem/observation-category",
                "code": "laboratory"
              }
            ]
          }
        ],
        "code": {
          "coding": [
            {
              "code": "5799-2",
              "system": "http://loinc.org",
              "display": "Leukocyte esterase [Presence] in Urine by Test strip"
            }
          ],
          "text": "Leukocyte esterase [Presence] in Urine by Test strip"
        },
        "text": {
          "status": "generated",
          "div": "<div xmlns=\"http://www.w3.org/1999/xhtml\"><table class=\"hl7__eu__lab__report\"><tr><th>Test</th><th>16-Feb-2024</th><th>Reference&#xA0;Range</th><th>Unit</th></tr><tr><td>Leukocyte esterase [Presence] in Urine by Test strip</td></tr></table></div>"
        },
        "status": "final",
        "subject": {
          "reference": "urn:uuid:90b1eabe-c3f7-484e-b2fc-5219d59c8df6",
          "display": "Victor Lagarde"
        },
        "effectiveDateTime": "2024-02-16T04:48:18Z",
        "specimen": {
          "reference": "urn:uuid:a2ff0492-9885-4761-8761-0b69f99860c4"
        }
      }
    },
    {
      "fullUrl": "urn:uuid:2df50892-04cd-4c45-8153-f03e34bb69ac",
      "resource": {
        "resourceType": "Observation",
        "id": "2df50892-04cd-4c45-8153-f03e34bb69ac",
        "meta": {
          "profile": [
            "http://hl7.eu/fhir/laboratory/StructureDefinition/Observation-resultslab-eu-lab"
          ]
        },
        "performer": [
          {
            "display": "The Central European Lab"
          }
        ],
        "category": [
          {
            "coding": [
              {
                "system": "http://terminology.hl7.org/CodeSystem/observation-category",
                "code": "laboratory"
              }
            ]
          }
        ],
        "code": {
          "coding": [
            {
              "code": "4548-4",
              "system": "http://loinc.org",
              "display": "Hemoglobin A1c/Hemoglobin.total in Blood"
            }
          ],
          "text": "Hemoglobin A1c/Hemoglobin.total in Blood"
        },
        "valueQuantity": {
          "system": "http://unitsofmeasure.org",
          "value": 3.4,
          "unit": "%",
          "code": "%"
        },
        "referenceRange": [
          {
            "low": {
              "value": 4.3,
              "code": "%",
              "system": "http://unitsofmeasure.org"
            }
          },
          {
            "high": {
              "value": 6,
              "code": "%",
              "system": "http://unitsofmeasure.org"
            }
          }
        ],
        "interpretation": [
          {
            "coding": [
              {
                "code": "L",
                "system": "http://terminology.hl7.org/CodeSystem/v3-ObservationInterpretation",
                "display": "Low"
              }
            ]
          }
        ],
        "text": {
          "status": "generated",
          "div": "<div xmlns=\"http://www.w3.org/1999/xhtml\"><table class=\"hl7__eu__lab__report\"><tr><th>Test</th><th>16-Feb-2024</th><th>Reference&#xA0;Range</th><th>Unit</th></tr><tr><td>Hemoglobin A1c/Hemoglobin.total in Blood</td><td>3.4</td><td>4.3 - 6</td><td>L</td><td>%</td></tr></table></div>"
        },
        "status": "final",
        "subject": {
          "reference": "urn:uuid:90b1eabe-c3f7-484e-b2fc-5219d59c8df6",
          "display": "Victor Lagarde"
        },
        "effectiveDateTime": "2024-02-16T04:48:18Z",
        "specimen": {
          "reference": "urn:uuid:e41a9ec3-1345-41a8-8694-36a32ea37247"
        }
      }
    },
    {
      "fullUrl": "urn:uuid:2be3a016-b88c-4158-95a5-666bba75683f",
      "resource": {
        "resourceType": "Observation",
        "id": "2be3a016-b88c-4158-95a5-666bba75683f",
        "meta": {
          "profile": [
            "http://hl7.eu/fhir/laboratory/StructureDefinition/Observation-resultslab-eu-lab"
          ]
        },
        "performer": [
          {
            "display": "The Central European Lab"
          }
        ],
        "category": [
          {
            "coding": [
              {
                "system": "http://terminology.hl7.org/CodeSystem/observation-category",
                "code": "laboratory"
              }
            ]
          }
        ],
        "code": {
          "coding": [
            {
              "code": "2339-0",
              "system": "http://loinc.org",
              "display": "Glucose [Mass/volume] in Blood"
            }
          ],
          "text": "Glucose [Mass/volume] in Blood"
        },
        "valueQuantity": {
          "system": "http://unitsofmeasure.org",
          "value": 72.4,
          "unit": "mg/dL",
          "code": "mg/dL"
        },
        "referenceRange": [
          {
            "low": {
              "value": 70,
              "code": "mg/dL",
              "system": "http://unitsofmeasure.org"
            }
          },
          {
            "high": {
              "value": 140,
              "code": "mg/dL",
              "system": "http://unitsofmeasure.org"
            }
          }
        ],
        "text": {
          "status": "generated",
          "div": "<div xmlns=\"http://www.w3.org/1999/xhtml\"><table class=\"hl7__eu__lab__report\"><tr><th>Test</th><th>16-Feb-2024</th><th>Reference&#xA0;Range</th><th>Unit</th></tr><tr><td>Glucose [Mass/volume] in Blood</td><td>72.4</td><td>70 - 140</td><td></td><td>mg/dL</td></tr></table></div>"
        },
        "status": "final",
        "subject": {
          "reference": "urn:uuid:90b1eabe-c3f7-484e-b2fc-5219d59c8df6",
          "display": "Victor Lagarde"
        },
        "effectiveDateTime": "2024-02-16T04:48:18Z",
        "specimen": {
          "reference": "urn:uuid:e41a9ec3-1345-41a8-8694-36a32ea37247"
        }
      }
    },
    {
      "fullUrl": "urn:uuid:3aa23f14-e94d-46b2-ae2d-1332569a7cb3",
      "resource": {
        "resourceType": "Observation",
        "id": "3aa23f14-e94d-46b2-ae2d-1332569a7cb3",
        "meta": {
          "profile": [
            "http://hl7.eu/fhir/laboratory/StructureDefinition/Observation-resultslab-eu-lab"
          ]
        },
        "performer": [
          {
            "display": "The Central European Lab"
          }
        ],
        "category": [
          {
            "coding": [
              {
                "system": "http://terminology.hl7.org/CodeSystem/observation-category",
                "code": "laboratory"
              }
            ]
          }
        ],
        "code": {
          "coding": [
            {
              "code": "6299-2",
              "system": "http://loinc.org",
              "display": "Urea nitrogen [Mass/volume] in Blood"
            }
          ],
          "text": "Urea nitrogen [Mass/volume] in Blood"
        },
        "valueQuantity": {
          "system": "http://unitsofmeasure.org",
          "value": 8.5,
          "unit": "mg/dL",
          "code": "mg/dL"
        },
        "referenceRange": [
          {
            "low": {
              "value": 7,
              "code": "mg/dL",
              "system": "http://unitsofmeasure.org"
            }
          },
          {
            "high": {
              "value": 20,
              "code": "mg/dL",
              "system": "http://unitsofmeasure.org"
            }
          }
        ],
        "text": {
          "status": "generated",
          "div": "<div xmlns=\"http://www.w3.org/1999/xhtml\"><table class=\"hl7__eu__lab__report\"><tr><th>Test</th><th>16-Feb-2024</th><th>Reference&#xA0;Range</th><th>Unit</th></tr><tr><td>Urea nitrogen [Mass/volume] in Blood</td><td>8.5</td><td>7 - 20</td><td></td><td>mg/dL</td></tr></table></div>"
        },
        "status": "final",
        "subject": {
          "reference": "urn:uuid:90b1eabe-c3f7-484e-b2fc-5219d59c8df6",
          "display": "Victor Lagarde"
        },
        "effectiveDateTime": "2024-02-16T04:48:18Z",
        "specimen": {
          "reference": "urn:uuid:e41a9ec3-1345-41a8-8694-36a32ea37247"
        }
      }
    },
    {
      "fullUrl": "urn:uuid:31faebba-f8ec-4c55-b454-99f7b7cbc085",
      "resource": {
        "resourceType": "Observation",
        "id": "31faebba-f8ec-4c55-b454-99f7b7cbc085",
        "meta": {
          "profile": [
            "http://hl7.eu/fhir/laboratory/StructureDefinition/Observation-resultslab-eu-lab"
          ]
        },
        "performer": [
          {
            "display": "The Central European Lab"
          }
        ],
        "category": [
          {
            "coding": [
              {
                "system": "http://terminology.hl7.org/CodeSystem/observation-category",
                "code": "laboratory"
              }
            ]
          }
        ],
        "code": {
          "coding": [
            {
              "code": "38483-4",
              "system": "http://loinc.org",
              "display": "Creatinine [Mass/volume] in Blood"
            }
          ],
          "text": "Creatinine [Mass/volume] in Blood"
        },
        "valueQuantity": {
          "system": "http://unitsofmeasure.org",
          "value": 3.1,
          "unit": "mg/dL",
          "code": "mg/dL"
        },
        "referenceRange": [
          {
            "low": {
              "value": 0.9,
              "code": "mg/dL",
              "system": "http://unitsofmeasure.org"
            }
          },
          {
            "high": {
              "value": 1.3,
              "code": "mg/dL",
              "system": "http://unitsofmeasure.org"
            }
          }
        ],
        "interpretation": [
          {
            "coding": [
              {
                "code": "H",
                "system": "http://terminology.hl7.org/CodeSystem/v3-ObservationInterpretation",
                "display": "High"
              }
            ]
          }
        ],
        "text": {
          "status": "generated",
          "div": "<div xmlns=\"http://www.w3.org/1999/xhtml\"><table class=\"hl7__eu__lab__report\"><tr><th>Test</th><th>16-Feb-2024</th><th>Reference&#xA0;Range</th><th>Unit</th></tr><tr><td>Creatinine [Mass/volume] in Blood</td><td>3.1</td><td>0.9 - 1.3</td><td>H</td><td>mg/dL</td></tr></table></div>"
        },
        "status": "final",
        "subject": {
          "reference": "urn:uuid:90b1eabe-c3f7-484e-b2fc-5219d59c8df6",
          "display": "Victor Lagarde"
        },
        "effectiveDateTime": "2024-02-16T04:48:18Z",
        "specimen": {
          "reference": "urn:uuid:e41a9ec3-1345-41a8-8694-36a32ea37247"
        }
      }
    },
    {
      "fullUrl": "urn:uuid:d8876b9c-3203-47c3-8cc7-cb96cfd7bd04",
      "resource": {
        "resourceType": "Observation",
        "id": "d8876b9c-3203-47c3-8cc7-cb96cfd7bd04",
        "meta": {
          "profile": [
            "http://hl7.eu/fhir/laboratory/StructureDefinition/Observation-resultslab-eu-lab"
          ]
        },
        "performer": [
          {
            "display": "The Central European Lab"
          }
        ],
        "category": [
          {
            "coding": [
              {
                "system": "http://terminology.hl7.org/CodeSystem/observation-category",
                "code": "laboratory"
              }
            ]
          }
        ],
        "code": {
          "coding": [
            {
              "code": "49765-1",
              "system": "http://loinc.org",
              "display": "Calcium [Mass/volume] in Blood"
            }
          ],
          "text": "Calcium [Mass/volume] in Blood"
        },
        "valueQuantity": {
          "system": "http://unitsofmeasure.org",
          "value": 9.2,
          "unit": "mg/dL",
          "code": "mg/dL"
        },
        "referenceRange": [
          {
            "low": {
              "value": 8.5,
              "code": "mg/dL",
              "system": "http://unitsofmeasure.org"
            }
          },
          {
            "high": {
              "value": 10.5,
              "code": "mg/dL",
              "system": "http://unitsofmeasure.org"
            }
          }
        ],
        "text": {
          "status": "generated",
          "div": "<div xmlns=\"http://www.w3.org/1999/xhtml\"><table class=\"hl7__eu__lab__report\"><tr><th>Test</th><th>16-Feb-2024</th><th>Reference&#xA0;Range</th><th>Unit</th></tr><tr><td>Calcium [Mass/volume] in Blood</td><td>9.2</td><td>8.5 - 10.5</td><td></td><td>mg/dL</td></tr></table></div>"
        },
        "status": "final",
        "subject": {
          "reference": "urn:uuid:90b1eabe-c3f7-484e-b2fc-5219d59c8df6",
          "display": "Victor Lagarde"
        },
        "effectiveDateTime": "2024-02-16T04:48:18Z",
        "specimen": {
          "reference": "urn:uuid:e41a9ec3-1345-41a8-8694-36a32ea37247"
        }
      }
    },
    {
      "fullUrl": "urn:uuid:1403b161-c6d7-4e3c-b134-c1ae30186baa",
      "resource": {
        "resourceType": "Observation",
        "id": "1403b161-c6d7-4e3c-b134-c1ae30186baa",
        "meta": {
          "profile": [
            "http://hl7.eu/fhir/laboratory/StructureDefinition/Observation-resultslab-eu-lab"
          ]
        },
        "performer": [
          {
            "display": "The Central European Lab"
          }
        ],
        "category": [
          {
            "coding": [
              {
                "system": "http://terminology.hl7.org/CodeSystem/observation-category",
                "code": "laboratory"
              }
            ]
          }
        ],
        "code": {
          "coding": [
            {
              "code": "2947-0",
              "system": "http://loinc.org",
              "display": "Sodium [Moles/volume] in Blood"
            }
          ],
          "text": "Sodium [Moles/volume] in Blood"
        },
        "valueQuantity": {
          "system": "http://unitsofmeasure.org",
          "value": 142.7,
          "unit": "mmol/L",
          "code": "mmol/L"
        },
        "referenceRange": [
          {
            "low": {
              "value": 135,
              "code": "mmol/L",
              "system": "http://unitsofmeasure.org"
            }
          },
          {
            "high": {
              "value": 145,
              "code": "mmol/L",
              "system": "http://unitsofmeasure.org"
            }
          }
        ],
        "text": {
          "status": "generated",
          "div": "<div xmlns=\"http://www.w3.org/1999/xhtml\"><table class=\"hl7__eu__lab__report\"><tr><th>Test</th><th>16-Feb-2024</th><th>Reference&#xA0;Range</th><th>Unit</th></tr><tr><td>Sodium [Moles/volume] in Blood</td><td>142.7</td><td>135 - 145</td><td></td><td>mmol/L</td></tr></table></div>"
        },
        "status": "final",
        "subject": {
          "reference": "urn:uuid:90b1eabe-c3f7-484e-b2fc-5219d59c8df6",
          "display": "Victor Lagarde"
        },
        "effectiveDateTime": "2024-02-16T04:48:18Z",
        "specimen": {
          "reference": "urn:uuid:e41a9ec3-1345-41a8-8694-36a32ea37247"
        }
      }
    },
    {
      "fullUrl": "urn:uuid:c63bc40a-5c2a-4a68-9301-5a6087b31994",
      "resource": {
        "resourceType": "Observation",
        "id": "c63bc40a-5c2a-4a68-9301-5a6087b31994",
        "meta": {
          "profile": [
            "http://hl7.eu/fhir/laboratory/StructureDefinition/Observation-resultslab-eu-lab"
          ]
        },
        "performer": [
          {
            "display": "The Central European Lab"
          }
        ],
        "category": [
          {
            "coding": [
              {
                "system": "http://terminology.hl7.org/CodeSystem/observation-category",
                "code": "laboratory"
              }
            ]
          }
        ],
        "code": {
          "coding": [
            {
              "code": "6298-4",
              "system": "http://loinc.org",
              "display": "Potassium [Moles/volume] in Blood"
            }
          ],
          "text": "Potassium [Moles/volume] in Blood"
        },
        "valueQuantity": {
          "system": "http://unitsofmeasure.org",
          "value": 3.8,
          "unit": "mmol/L",
          "code": "mmol/L"
        },
        "referenceRange": [
          {
            "low": {
              "value": 3.5,
              "code": "mmol/L",
              "system": "http://unitsofmeasure.org"
            }
          },
          {
            "high": {
              "value": 5.1,
              "code": "mmol/L",
              "system": "http://unitsofmeasure.org"
            }
          }
        ],
        "text": {
          "status": "generated",
          "div": "<div xmlns=\"http://www.w3.org/1999/xhtml\"><table class=\"hl7__eu__lab__report\"><tr><th>Test</th><th>16-Feb-2024</th><th>Reference&#xA0;Range</th><th>Unit</th></tr><tr><td>Potassium [Moles/volume] in Blood</td><td>3.8</td><td>3.5 - 5.1</td><td></td><td>mmol/L</td></tr></table></div>"
        },
        "status": "final",
        "subject": {
          "reference": "urn:uuid:90b1eabe-c3f7-484e-b2fc-5219d59c8df6",
          "display": "Victor Lagarde"
        },
        "effectiveDateTime": "2024-02-16T04:48:18Z",
        "specimen": {
          "reference": "urn:uuid:e41a9ec3-1345-41a8-8694-36a32ea37247"
        }
      }
    },
    {
      "fullUrl": "urn:uuid:3b3e6d97-73b9-4268-88df-811395ed341d",
      "resource": {
        "resourceType": "Observation",
        "id": "3b3e6d97-73b9-4268-88df-811395ed341d",
        "meta": {
          "profile": [
            "http://hl7.eu/fhir/laboratory/StructureDefinition/Observation-resultslab-eu-lab"
          ]
        },
        "performer": [
          {
            "display": "The Central European Lab"
          }
        ],
        "category": [
          {
            "coding": [
              {
                "system": "http://terminology.hl7.org/CodeSystem/observation-category",
                "code": "laboratory"
              }
            ]
          }
        ],
        "code": {
          "coding": [
            {
              "code": "2069-3",
              "system": "http://loinc.org",
              "display": "Chloride [Moles/volume] in Blood"
            }
          ],
          "text": "Chloride [Moles/volume] in Blood"
        },
        "valueQuantity": {
          "system": "http://unitsofmeasure.org",
          "value": 103,
          "unit": "mmol/L",
          "code": "mmol/L"
        },
        "referenceRange": [
          {
            "low": {
              "value": 98,
              "code": "mmol/L",
              "system": "http://unitsofmeasure.org"
            }
          },
          {
            "high": {
              "value": 108,
              "code": "mmol/L",
              "system": "http://unitsofmeasure.org"
            }
          }
        ],
        "text": {
          "status": "generated",
          "div": "<div xmlns=\"http://www.w3.org/1999/xhtml\"><table class=\"hl7__eu__lab__report\"><tr><th>Test</th><th>16-Feb-2024</th><th>Reference&#xA0;Range</th><th>Unit</th></tr><tr><td>Chloride [Moles/volume] in Blood</td><td>103.0</td><td>98 - 108</td><td></td><td>mmol/L</td></tr></table></div>"
        },
        "status": "final",
        "subject": {
          "reference": "urn:uuid:90b1eabe-c3f7-484e-b2fc-5219d59c8df6",
          "display": "Victor Lagarde"
        },
        "effectiveDateTime": "2024-02-16T04:48:18Z",
        "specimen": {
          "reference": "urn:uuid:e41a9ec3-1345-41a8-8694-36a32ea37247"
        }
      }
    },
    {
      "fullUrl": "urn:uuid:9c83c905-b9fe-4c6a-8394-f6f1b568e478",
      "resource": {
        "resourceType": "Observation",
        "id": "9c83c905-b9fe-4c6a-8394-f6f1b568e478",
        "meta": {
          "profile": [
            "http://hl7.eu/fhir/laboratory/StructureDefinition/Observation-resultslab-eu-lab"
          ]
        },
        "performer": [
          {
            "display": "The Central European Lab"
          }
        ],
        "category": [
          {
            "coding": [
              {
                "system": "http://terminology.hl7.org/CodeSystem/observation-category",
                "code": "laboratory"
              }
            ]
          }
        ],
        "code": {
          "coding": [
            {
              "code": "20565-8",
              "system": "http://loinc.org",
              "display": "Carbon dioxide, total [Moles/volume] in Blood"
            }
          ],
          "text": "Carbon dioxide, total [Moles/volume] in Blood"
        },
        "valueQuantity": {
          "system": "http://unitsofmeasure.org",
          "value": 25.5,
          "unit": "mmol/L",
          "code": "mmol/L"
        },
        "referenceRange": [
          {
            "low": {
              "value": 22,
              "code": "mmol/L",
              "system": "http://unitsofmeasure.org"
            }
          },
          {
            "high": {
              "value": 29,
              "code": "mmol/L",
              "system": "http://unitsofmeasure.org"
            }
          }
        ],
        "text": {
          "status": "generated",
          "div": "<div xmlns=\"http://www.w3.org/1999/xhtml\"><table class=\"hl7__eu__lab__report\"><tr><th>Test</th><th>16-Feb-2024</th><th>Reference&#xA0;Range</th><th>Unit</th></tr><tr><td>Carbon dioxide, total [Moles/volume] in Blood</td><td>25.5</td><td>22 - 29</td><td></td><td>mmol/L</td></tr></table></div>"
        },
        "status": "final",
        "subject": {
          "reference": "urn:uuid:90b1eabe-c3f7-484e-b2fc-5219d59c8df6",
          "display": "Victor Lagarde"
        },
        "effectiveDateTime": "2024-02-16T04:48:18Z",
        "specimen": {
          "reference": "urn:uuid:e41a9ec3-1345-41a8-8694-36a32ea37247"
        }
      }
    },
    {
      "fullUrl": "urn:uuid:ad5af9f1-03ef-473c-b4e8-837f84c4312c",
      "resource": {
        "resourceType": "Device",
        "id": "ad5af9f1-03ef-473c-b4e8-837f84c4312c",
        "deviceName": [
          {
            "name": "SYNDERAI Synthetic Generator",
            "type": "manufacturer-name"
          }
        ],
        "version": [
          {
            "value": "5.0"
          }
        ],
        "text": {
          "status": "generated",
          "div": "<div xmlns=\"http://www.w3.org/1999/xhtml\">SYNDERAI Synthetic Generator v5.0</div>"
        },
        "status": "active\"",
        "distinctIdentifier": "synderai-generator-50",
        "manufacturer": "SYNDERAI Project"
      }
    },
    {
      "fullUrl": "urn:uuid:a2649cad-e201-4e8e-9329-7ee8d785e450",
      "resource": {
        "resourceType": "Provenance",
        "id": "a2649cad-e201-4e8e-9329-7ee8d785e450",
        "target": [
          {
            "reference": "Patient/90b1eabe-c3f7-484e-b2fc-5219d59c8df6"
          },
          {
            "reference": "Bundle/99466f4f-6386-4f38-a9c0-58e17f6fb26d"
          },
          {
            "reference": "Composition/c38b26c0-7bd2-40f7-a98a-a1f439eac3fe"
          },
          {
            "reference": "PractitionerRole/96c43d89-6eef-4299-8fe5-26774f2b9c9b"
          },
          {
            "reference": "Practitioner/62ddf440-1103-4eb4-a77f-dc8d05518bc0"
          },
          {
            "reference": "PractitionerRole/e541de0d-046d-41c0-97e6-446a6a2c6cf0"
          },
          {
            "reference": "Organization/8d23b47d-a18c-4ca2-bbf4-2dbca56934b7"
          }
        ],
        "activity": {
          "text": "Synthetic Example Data Generation"
        },
        "policy": [
          "https://synderai.net/synderai-synthetic-data-policy"
        ],
        "agent": [
          {
            "type": {
              "text": "author"
            },
            "who": {
              "reference": "Device/ad5af9f1-03ef-473c-b4e8-837f84c4312c"
            }
          }
        ],
        "reason": [
          {
            "text": "Interoperability Testing and Training (non-clinical use)"
          }
        ],
        "text": {
          "status": "generated",
          "div": "<div xmlns=\"http://www.w3.org/1999/xhtml\">Provenance for SYNDERAI Synthetic Example Data Resource</div>"
        },
        "recorded": "2024-02-16T05:48:18Z"
      }
    },
    {
      "fullUrl": "urn:uuid:96c43d89-6eef-4299-8fe5-26774f2b9c9b",
      "resource": {
        "resourceType": "PractitionerRole",
        "id": "96c43d89-6eef-4299-8fe5-26774f2b9c9b",
        "meta": {
          "profile": [
            "http://hl7.eu/fhir/base/StructureDefinition/practitionerRole-eu"
          ]
        },
        "text": {
          "status": "generated",
          "div": "<div xmlns=\"http://www.w3.org/1999/xhtml\">Laboratory Role Id: 96c43d89-6eef-4299-8fe5-26774f2b9c9b</div>"
        },
        "practitioner": {
          "reference": "urn:uuid:62ddf440-1103-4eb4-a77f-dc8d05518bc0"
        }
      }
    },
    {
      "fullUrl": "urn:uuid:62ddf440-1103-4eb4-a77f-dc8d05518bc0",
      "resource": {
        "resourceType": "Practitioner",
        "id": "62ddf440-1103-4eb4-a77f-dc8d05518bc0",
        "meta": {
          "profile": [
            "http://hl7.eu/fhir/base/StructureDefinition/practitioner-eu"
          ]
        },
        "identifier": [
          {
            "assigner": {
              "display": "HL7 Europe"
            },
            "system": "urn:oid:2.16.840.1.113883.2.51.999",
            "value": "2a71b2b8-396d-4b60-9454-2c06d020d37d"
          }
        ],
        "name": [
          {
            "prefix": [
              "dr"
            ],
            "given": [
              "Ex"
            ],
            "family": "Ample"
          }
        ],
        "address": [
          {
            "line": [
              "Laboratoire Central Europenne",
              "Boulevard du Jardin Botanique 32"
            ],
            "postalCode": "1000",
            "city": "Brussels",
            "country": "Belgium"
          }
        ],
        "text": {
          "status": "generated",
          "div": "<div xmlns=\"http://www.w3.org/1999/xhtml\">Laboratory: Laboratoire Central Europenne, 1000 Brussels, Belgium</div>"
        }
      }
    }
  ],
  "type": "document",
  "timestamp": "2024-02-16T05:48:18Z"
}
