<Bundle xmlns="http://hl7.org/fhir">
   <id value="d8acd7b5-1833-4a3b-872e-200f9c557a1c"/>
   <meta>
      <profile value="http://hl7.eu/fhir/laboratory/StructureDefinition/Bundle-eu-lab"/>
   </meta>
   <identifier>
      <system value="urn:oid:2.16.840.1.113883.2.51.999"/>
      <value value="9de9cbee-27ed-4f71-8190-9410743baa6c"/>
      <assigner>
         <display value="HL7 Europe"/>
      </assigner>
   </identifier>
   <type value="document"/>
   <timestamp value="2016-11-10T05:05:03Z"/>
   <entry>
      <fullUrl value="urn:uuid:57c44118-245c-43c3-883e-ba09f80e0c73"/>
      <resource>
         <Composition>
            <id value="57c44118-245c-43c3-883e-ba09f80e0c73"/>
            <meta>
               <profile value="http://hl7.eu/fhir/laboratory/StructureDefinition/Composition-eu-lab"/>
            </meta>
            <identifier>
               <system value="urn:oid:2.16.840.1.113883.2.51.999"/>
               <value value="23da956b-468d-4a0c-aa6e-92bd56ba430e"/>
               <assigner>
                  <display value="HL7 Europe"/>
               </assigner>
            </identifier>
            <status value="final"/>
            <type>
               <coding>
                  <system value="http://loinc.org"/>
                  <code value="11502-2"/>
                  <display value="Laboratory report"/>
               </coding>
               <text value="Laboratory Report"/>
            </type>
            <category>
               <coding>
                  <system value="http://loinc.org"/>
                  <code value="26436-6"/>
                  <display value="Laboratory studies (set)"/>
               </coding>
            </category>
            <subject>
               <reference value="urn:uuid:b92ade45-aa65-4fa8-a29c-33838f739f5b"/>
               <display value="Ludmila Vávrová"/>
            </subject>
            <date value="2016-11-10T05:05:03Z"/>
            <author>
               <reference value="urn:uuid:747fda2c-b80b-4116-8eae-ca08b01ea517"/>
            </author>
            <title value="Laboratory Report"/>
            <confidentiality value="N"/>
            <section>
               <title value="Laboratory Report"/>
               <code>
                  <coding>
                     <system value="http://loinc.org"/>
                     <code value="26436-6"/>
                     <display value="Laboratory studies (set)"/>
                  </coding>
                  <text value="Laboratory studies"/>
               </code>
               <section>
                  <title value="Hematology"/>
                  <code>
                     <coding>
                        <system value="http://loinc.org"/>
                        <code value="$18723-7"/>
                        <display value="Hematology studies (set)"/>
                     </coding>
                     <text value="Hematology"/>
                  </code>
                  <text>
                     <status value="generated"/>
                     <div xmlns="http://www.w3.org/1999/xhtml">
                        <h3>Hematology</h3>
                        <table class="hl7__eu__lab__report">
                           <thead>
                              <tr>
                                 <th>Test</th>
                                 <th>10-NOV-2016</th>
                                 <th>Reference Range</th>
                                 <th>Unit</th>
                              </tr>
                           </thead>
                           <tbody>
                              <tr>
                                 <td>Leukocytes [#/volume] in Blood by Automated count</td>
                                 <td>10.2</td>
                                 <td>3.4 - 10.6</td>
                                 <td>10*3/uL</td>
                              </tr>
                              <tr>
                                 <td>Erythrocytes [#/volume] in Blood by Automated count</td>
                                 <td>
                                    <strong>3.8 L</strong>
                                 </td>
                                 <td>4.7 - 5.2</td>
                                 <td>10*6/uL</td>
                              </tr>
                              <tr>
                                 <td>Hemoglobin [Mass/volume] in Blood</td>
                                 <td>
                                    <strong>16.3 H</strong>
                                 </td>
                                 <td>11.5 - 16</td>
                                 <td>g/dL</td>
                              </tr>
                              <tr>
                                 <td>Hematocrit [Volume Fraction] of Blood by Automated count</td>
                                 <td>45.7</td>
                                 <td>38 - 56</td>
                                 <td>%</td>
                              </tr>
                              <tr>
                                 <td>MCV [Entitic volume] by Automated count</td>
                                 <td>80.9</td>
                                 <td>78 - 98</td>
                                 <td>fL</td>
                              </tr>
                              <tr>
                                 <td>MCH [Entitic mass] by Automated count</td>
                                 <td>30.2</td>
                                 <td>27 - 34</td>
                                 <td>pg</td>
                              </tr>
                              <tr>
                                 <td>MCHC [Mass/volume] by Automated count</td>
                                 <td>32.9</td>
                                 <td>31 - 36</td>
                                 <td>g/dL</td>
                              </tr>
                              <tr>
                                 <td>Erythrocyte distribution width [Ratio] by Automated count</td>
                                 <td>12.9</td>
                                 <td>11.6 - 16.5</td>
                                 <td>%</td>
                              </tr>
                              <tr>
                                 <td>Platelets [#/volume] in Blood by Automated count</td>
                                 <td>434.8</td>
                                 <td>150 - 450</td>
                                 <td>10*3/uL</td>
                              </tr>
                           </tbody>
                        </table>
                     </div>
                  </text>
                  <entry>
                     <reference value="urn:uuid:8fb3d7ae-44fc-4982-8ad9-ae39f09a3743"/>
                  </entry>
                  <entry>
                     <reference value="urn:uuid:92cc3835-0f37-4fe5-9bcd-e806bc64f3d4"/>
                  </entry>
                  <entry>
                     <reference value="urn:uuid:c96d3011-4add-42b6-bf9a-eed906cb3a91"/>
                  </entry>
                  <entry>
                     <reference value="urn:uuid:687ef1a5-5810-4d4b-98a7-2e71717262d4"/>
                  </entry>
                  <entry>
                     <reference value="urn:uuid:34361490-9377-4363-b880-24d5f14ce622"/>
                  </entry>
                  <entry>
                     <reference value="urn:uuid:f98989c4-e063-4c00-810a-4d3ac8ba10a2"/>
                  </entry>
                  <entry>
                     <reference value="urn:uuid:8b9f1389-7293-4a4e-a8d5-69b708df041d"/>
                  </entry>
                  <entry>
                     <reference value="urn:uuid:55d3f9ae-d23f-42a5-8f31-dded3df3319e"/>
                  </entry>
                  <entry>
                     <reference value="urn:uuid:6f766bba-42ea-4046-a85c-52cb646d8ce2"/>
                  </entry>
               </section>
               <section>
                  <title value="Chemistry"/>
                  <code>
                     <coding>
                        <system value="http://loinc.org"/>
                        <code value="$18719-5"/>
                        <display value="Chemistry studies (set)"/>
                     </coding>
                     <text value="Chemistry"/>
                  </code>
                  <text>
                     <status value="generated"/>
                     <div xmlns="http://www.w3.org/1999/xhtml">
                        <h3>Chemistry</h3>
                        <table class="hl7__eu__lab__report">
                           <thead>
                              <tr>
                                 <th>Test</th>
                                 <th>10-NOV-2016</th>
                                 <th>Reference Range</th>
                                 <th>Unit</th>
                              </tr>
                           </thead>
                           <tbody>
                              <tr>
                                 <td>Glucose [Mass/volume] in Serum or Plasma</td>
                                 <td>94.6</td>
                                 <td>70 - 140</td>
                                 <td>mg/dL</td>
                              </tr>
                              <tr>
                                 <td>Urea nitrogen [Mass/volume] in Serum or Plasma</td>
                                 <td>14.0</td>
                                 <td>7 - 25</td>
                                 <td>mg/dL</td>
                              </tr>
                              <tr>
                                 <td>Creatinine [Mass/volume] in Serum or Plasma</td>
                                 <td>
                                    <strong>2.7 H</strong>
                                 </td>
                                 <td>0.6 - 1.3</td>
                                 <td>mg/dL</td>
                              </tr>
                              <tr>
                                 <td>Calcium [Mass/volume] in Serum or Plasma</td>
                                 <td>9.4</td>
                                 <td>8.6 - 10.4</td>
                                 <td>mg/dL</td>
                              </tr>
                              <tr>
                                 <td>Sodium [Moles/volume] in Serum or Plasma</td>
                                 <td>141.6</td>
                                 <td>135 - 145</td>
                                 <td>mmol/L</td>
                              </tr>
                              <tr>
                                 <td>Potassium [Moles/volume] in Serum or Plasma</td>
                                 <td>5.0</td>
                                 <td>3.5 - 5.1</td>
                                 <td>mmol/L</td>
                              </tr>
                              <tr>
                                 <td>Chloride [Moles/volume] in Serum or Plasma</td>
                                 <td>101.8</td>
                                 <td>98 - 108</td>
                                 <td>mmol/L</td>
                              </tr>
                              <tr>
                                 <td>Carbon dioxide, total [Moles/volume] in Serum or Plasma</td>
                                 <td>24.8</td>
                                 <td>22 - 29</td>
                                 <td>mmol/L</td>
                              </tr>
                              <tr>
                                 <td>Protein [Mass/volume] in Serum or Plasma</td>
                                 <td>6.6</td>
                                 <td>6.6 - 8.3</td>
                                 <td>g/dL</td>
                              </tr>
                              <tr>
                                 <td>Albumin [Mass/volume] in Serum or Plasma</td>
                                 <td>4.1</td>
                                 <td>3.5 - 5.5</td>
                                 <td>g/dL</td>
                              </tr>
                              <tr>
                                 <td>Bilirubin.total [Mass/volume] in Serum or Plasma</td>
                                 <td>
                                    <strong>11.6 H</strong>
                                 </td>
                                 <td>0.3 - 1.2</td>
                                 <td>mg/dL</td>
                              </tr>
                              <tr>
                                 <td>Alkaline phosphatase [Enzymatic activity/volume] in Serum or Plasma</td>
                                 <td>75.0</td>
                                 <td>40 - 130</td>
                                 <td>U/L</td>
                              </tr>
                              <tr>
                                 <td>Alanine aminotransferase [Enzymatic activity/volume] in Serum or Plasma</td>
                                 <td>34.2</td>
                                 <td>7 - 55</td>
                                 <td>U/L</td>
                              </tr>
                              <tr>
                                 <td>Aspartate aminotransferase [Enzymatic activity/volume] in Serum or Plasma</td>
                                 <td>
                                    <strong>1.9 L</strong>
                                 </td>
                                 <td>10 - 40</td>
                                 <td>U/L</td>
                              </tr>
                              <tr>
                                 <td>Magnesium [Mass/volume] in Serum or Plasma</td>
                                 <td>1.8</td>
                                 <td>1.8 - 2.3</td>
                                 <td>mg/dL</td>
                              </tr>
                              <tr>
                                 <td>Phosphate [Mass/volume] in Serum or Plasma</td>
                                 <td>3.1</td>
                                 <td>2.5 - 4.5</td>
                                 <td>mg/dL</td>
                              </tr>
                              <tr>
                                 <td>pH of Arterial blood</td>
                                 <td>
                                    <strong>6.8 L</strong>
                                 </td>
                                 <td>7.35 - 7.45</td>
                                 <td>[pH]</td>
                              </tr>
                              <tr>
                                 <td>Carbon dioxide [Partial pressure] in Arterial blood</td>
                                 <td>39.6</td>
                                 <td>35 - 45</td>
                                 <td>mm[Hg]</td>
                              </tr>
                              <tr>
                                 <td>Oxygen [Partial pressure] in Arterial blood</td>
                                 <td>88.1</td>
                                 <td>75 - 100</td>
                                 <td>mm[Hg]</td>
                              </tr>
                              <tr>
                                 <td>Bicarbonate [Moles/volume] in Arterial blood</td>
                                 <td>22.5</td>
                                 <td>22 - 32</td>
                                 <td>mmol/L</td>
                              </tr>
                              <tr>
                                 <td>Oxygen saturation in Arterial blood</td>
                                 <td>
                                    <strong>90.0 L</strong>
                                 </td>
                                 <td>95 - 100</td>
                                 <td>%</td>
                              </tr>
                              <tr>
                                 <td>Cholesterol [Mass/volume] in Serum or Plasma</td>
                                 <td>
                                    <strong>253.7 H</strong>
                                 </td>
                                 <td>125 - 200</td>
                                 <td>mg/dL</td>
                              </tr>
                              <tr>
                                 <td>Triglyceride [Mass/volume] in Serum or Plasma</td>
                                 <td>117.8</td>
                                 <td>10 - 175</td>
                                 <td>mg/dL</td>
                              </tr>
                              <tr>
                                 <td>Cholesterol in LDL [Mass/volume] in Serum or Plasma by Direct assay</td>
                                 <td>
                                    <strong>172.7 H</strong>
                                 </td>
                                 <td>0 - 130</td>
                                 <td>mg/dL</td>
                              </tr>
                              <tr>
                                 <td>Cholesterol in HDL [Mass/volume] in Serum or Plasma</td>
                                 <td>57.4</td>
                                 <td>50 - 100</td>
                                 <td>mg/dL</td>
                              </tr>
                           </tbody>
                        </table>
                     </div>
                  </text>
                  <entry>
                     <reference value="urn:uuid:25584db9-d786-4ae9-ba81-8972372cd023"/>
                  </entry>
                  <entry>
                     <reference value="urn:uuid:2e2c5edf-d058-4de5-a41b-4e189cb74bf9"/>
                  </entry>
                  <entry>
                     <reference value="urn:uuid:6035739b-cb42-4913-a778-de7d5bb0a934"/>
                  </entry>
                  <entry>
                     <reference value="urn:uuid:ff916277-e7a8-4455-99ee-9c66309dc528"/>
                  </entry>
                  <entry>
                     <reference value="urn:uuid:590ed0b0-b65a-4bab-bcd9-33374613abee"/>
                  </entry>
                  <entry>
                     <reference value="urn:uuid:280449e9-ba07-4a23-b678-a0216e4a6534"/>
                  </entry>
                  <entry>
                     <reference value="urn:uuid:9c9ed859-0ec2-4aba-9e39-c24920ad2f4e"/>
                  </entry>
                  <entry>
                     <reference value="urn:uuid:cdea58e5-3c05-4605-9124-b80ecf09e3d5"/>
                  </entry>
                  <entry>
                     <reference value="urn:uuid:16a261e3-3f86-430e-bb9c-9a88a831b67c"/>
                  </entry>
                  <entry>
                     <reference value="urn:uuid:41771bc8-6ede-4d04-bc77-16aeff8c4b18"/>
                  </entry>
                  <entry>
                     <reference value="urn:uuid:64af4c62-20f5-4d1e-9b34-9e4b4498754a"/>
                  </entry>
                  <entry>
                     <reference value="urn:uuid:41b97f8d-518b-4eff-97a9-d0a157e652b2"/>
                  </entry>
                  <entry>
                     <reference value="urn:uuid:dbcea431-82ae-4671-aa90-b77bf397ef62"/>
                  </entry>
                  <entry>
                     <reference value="urn:uuid:bceea446-3c8f-4b7b-8304-d318730e7c56"/>
                  </entry>
                  <entry>
                     <reference value="urn:uuid:5847eefd-9f87-4afe-ace7-d9526a9e93f0"/>
                  </entry>
                  <entry>
                     <reference value="urn:uuid:a44647c3-086e-43eb-ab47-1320a16a50d2"/>
                  </entry>
                  <entry>
                     <reference value="urn:uuid:412074d0-10aa-4184-a747-271b1e76a666"/>
                  </entry>
                  <entry>
                     <reference value="urn:uuid:d6cc186d-bee8-44c0-869d-deece78f429f"/>
                  </entry>
                  <entry>
                     <reference value="urn:uuid:c23d154d-c8d6-41d0-ad9d-cfafa5ccb3dc"/>
                  </entry>
                  <entry>
                     <reference value="urn:uuid:273d500f-b305-4f5b-85e8-8a732ed0bae6"/>
                  </entry>
                  <entry>
                     <reference value="urn:uuid:92ccb51e-fbf9-4c64-b36c-0808ae084753"/>
                  </entry>
                  <entry>
                     <reference value="urn:uuid:4411a905-2b95-4702-9280-d40af0ec4611"/>
                  </entry>
                  <entry>
                     <reference value="urn:uuid:2d256f75-cf12-48db-a7ae-f9cd272a7d0b"/>
                  </entry>
                  <entry>
                     <reference value="urn:uuid:ff85fedc-dd11-4b26-b4db-ef570d374821"/>
                  </entry>
                  <entry>
                     <reference value="urn:uuid:d751afc4-f709-401a-8198-4e1af3ea94ff"/>
                  </entry>
               </section>
               <section>
                  <title value="Coagulation"/>
                  <code>
                     <coding>
                        <system value="http://loinc.org"/>
                        <code value="$18720-3"/>
                        <display value="Coagulation studies (set)"/>
                     </coding>
                     <text value="Coagulation"/>
                  </code>
                  <text>
                     <status value="generated"/>
                     <div xmlns="http://www.w3.org/1999/xhtml">
                        <h3>Coagulation</h3>
                        <table class="hl7__eu__lab__report">
                           <thead>
                              <tr>
                                 <th>Test</th>
                                 <th>10-NOV-2016</th>
                                 <th>Reference Range</th>
                                 <th>Unit</th>
                              </tr>
                           </thead>
                           <tbody>
                              <tr>
                                 <td>Prothrombin time (PT)</td>
                                 <td>11.7</td>
                                 <td>11 - 15</td>
                                 <td>s</td>
                              </tr>
                              <tr>
                                 <td>INR in Platelet poor plasma by Coagulation assay</td>
                                 <td>2.1</td>
                                 <td>0.9 - 3</td>
                                 <td>{INR}</td>
                              </tr>
                              <tr>
                                 <td>aPTT in Blood by Coagulation assay</td>
                                 <td>36.5</td>
                                 <td>25 - 40</td>
                                 <td>s</td>
                              </tr>
                           </tbody>
                        </table>
                     </div>
                  </text>
                  <entry>
                     <reference value="urn:uuid:b7a7009b-fb41-4274-8487-bdf60898b7e2"/>
                  </entry>
                  <entry>
                     <reference value="urn:uuid:dc7ca3b5-628f-41d5-b29a-8b22cd7e3945"/>
                  </entry>
                  <entry>
                     <reference value="urn:uuid:42b69227-8dc5-482c-808e-7f0e76f47cc8"/>
                  </entry>
               </section>
            </section>
            <section>
               <title value="Annotation comment"/>
               <code>
                  <coding>
                     <system value="http://loinc.org"/>
                     <code value="48767-8"/>
                     <display value="Annotation comment"/>
                  </coding>
               </code>
               <text>
                  <status value="generated"/>
                  <div xmlns="http://www.w3.org/1999/xhtml">
                     <h3>Annotation</h3>
                     <table class="hl7__eu__lab__report">
                        <tr>
                           <th>Conclusion and Recommendations based on this report and previous findings known to us</th>
                        </tr>
                        <tr>
                           <td>The patient shows anemia (low erythrocytes), elevated hemoglobin (possibly due to dehydration), impaired renal function (high creatinine), severe hyperbilirubinemia, metabolic acidosis (very low arterial pH), and hypoxemia (low O₂ saturation). Liver enzymes are not elevated, but cholesterol and LDL are high. These findings suggest significant renal and hepatic dysfunction with metabolic derangement; urgent clinical evaluation is recommended.</td>
                        </tr>
                     </table>
                  </div>
               </text>
            </section>
         </Composition>
      </resource>
   </entry>
   <entry>
      <fullUrl value="urn:uuid:5301f810-bbd8-4c90-ab97-0078e9aa4561"/>
      <resource>
         <DiagnosticReport>
            <id value="5301f810-bbd8-4c90-ab97-0078e9aa4561"/>
            <meta>
               <profile value="http://hl7.eu/fhir/laboratory/StructureDefinition/DiagnosticReport-eu-lab"/>
            </meta>
            <extension url="http://hl7.org/fhir/5.0/StructureDefinition/extension-DiagnosticReport.composition">
               <valueReference>
                  <reference value="urn:uuid:23da956b-468d-4a0c-aa6e-92bd56ba430e"/>
               </valueReference>
            </extension>
            <identifier>
               <system value="urn:oid:2.16.840.1.113883.2.51.999"/>
               <value value="44e10b31-55ea-4112-863f-20ad2f2407c9"/>
               <assigner>
                  <display value="HL7 Europe"/>
               </assigner>
            </identifier>
            <status value="registered"/>
            <category>
               <coding>
                  <system value="http://loinc.org"/>
                  <code value="26436-6"/>
                  <display value="Laboratory studies (set)"/>
               </coding>
            </category>
            <code>
               <coding>
                  <system value="http://loinc.org"/>
                  <code value="11502-2"/>
                  <display value="Laboratory report"/>
               </coding>
            </code>
            <subject>
               <reference value="urn:uuid:b92ade45-aa65-4fa8-a29c-33838f739f5b"/>
               <display value="Ludmila Vávrová"/>
            </subject>
            <specimen>
               <reference value="urn:uuid:da2926f1-b409-4961-b270-f73c38d94986"/>
            </specimen>
            <specimen>
               <reference value="urn:uuid:da2926f1-b409-4961-b270-f73c38d94986"/>
            </specimen>
            <specimen>
               <reference value="urn:uuid:d7633821-2722-46bb-bad3-4ea83c15caab"/>
            </specimen>
            <specimen>
               <reference value="urn:uuid:07a7ca16-0acf-4bad-abce-8b712e357a06"/>
            </specimen>
            <specimen>
               <reference value="urn:uuid:acc589cf-4a7a-48ac-b71b-0b6ed8c722f4"/>
            </specimen>
            <result>
               <reference value="urn:uuid:8fb3d7ae-44fc-4982-8ad9-ae39f09a3743"/>
            </result>
            <result>
               <reference value="urn:uuid:92cc3835-0f37-4fe5-9bcd-e806bc64f3d4"/>
            </result>
            <result>
               <reference value="urn:uuid:c96d3011-4add-42b6-bf9a-eed906cb3a91"/>
            </result>
            <result>
               <reference value="urn:uuid:687ef1a5-5810-4d4b-98a7-2e71717262d4"/>
            </result>
            <result>
               <reference value="urn:uuid:34361490-9377-4363-b880-24d5f14ce622"/>
            </result>
            <result>
               <reference value="urn:uuid:f98989c4-e063-4c00-810a-4d3ac8ba10a2"/>
            </result>
            <result>
               <reference value="urn:uuid:8b9f1389-7293-4a4e-a8d5-69b708df041d"/>
            </result>
            <result>
               <reference value="urn:uuid:55d3f9ae-d23f-42a5-8f31-dded3df3319e"/>
            </result>
            <result>
               <reference value="urn:uuid:6f766bba-42ea-4046-a85c-52cb646d8ce2"/>
            </result>
            <result>
               <reference value="urn:uuid:25584db9-d786-4ae9-ba81-8972372cd023"/>
            </result>
            <result>
               <reference value="urn:uuid:2e2c5edf-d058-4de5-a41b-4e189cb74bf9"/>
            </result>
            <result>
               <reference value="urn:uuid:6035739b-cb42-4913-a778-de7d5bb0a934"/>
            </result>
            <result>
               <reference value="urn:uuid:ff916277-e7a8-4455-99ee-9c66309dc528"/>
            </result>
            <result>
               <reference value="urn:uuid:590ed0b0-b65a-4bab-bcd9-33374613abee"/>
            </result>
            <result>
               <reference value="urn:uuid:280449e9-ba07-4a23-b678-a0216e4a6534"/>
            </result>
            <result>
               <reference value="urn:uuid:9c9ed859-0ec2-4aba-9e39-c24920ad2f4e"/>
            </result>
            <result>
               <reference value="urn:uuid:cdea58e5-3c05-4605-9124-b80ecf09e3d5"/>
            </result>
            <result>
               <reference value="urn:uuid:16a261e3-3f86-430e-bb9c-9a88a831b67c"/>
            </result>
            <result>
               <reference value="urn:uuid:41771bc8-6ede-4d04-bc77-16aeff8c4b18"/>
            </result>
            <result>
               <reference value="urn:uuid:64af4c62-20f5-4d1e-9b34-9e4b4498754a"/>
            </result>
            <result>
               <reference value="urn:uuid:41b97f8d-518b-4eff-97a9-d0a157e652b2"/>
            </result>
            <result>
               <reference value="urn:uuid:dbcea431-82ae-4671-aa90-b77bf397ef62"/>
            </result>
            <result>
               <reference value="urn:uuid:bceea446-3c8f-4b7b-8304-d318730e7c56"/>
            </result>
            <result>
               <reference value="urn:uuid:5847eefd-9f87-4afe-ace7-d9526a9e93f0"/>
            </result>
            <result>
               <reference value="urn:uuid:a44647c3-086e-43eb-ab47-1320a16a50d2"/>
            </result>
            <result>
               <reference value="urn:uuid:b7a7009b-fb41-4274-8487-bdf60898b7e2"/>
            </result>
            <result>
               <reference value="urn:uuid:dc7ca3b5-628f-41d5-b29a-8b22cd7e3945"/>
            </result>
            <result>
               <reference value="urn:uuid:42b69227-8dc5-482c-808e-7f0e76f47cc8"/>
            </result>
            <result>
               <reference value="urn:uuid:412074d0-10aa-4184-a747-271b1e76a666"/>
            </result>
            <result>
               <reference value="urn:uuid:d6cc186d-bee8-44c0-869d-deece78f429f"/>
            </result>
            <result>
               <reference value="urn:uuid:c23d154d-c8d6-41d0-ad9d-cfafa5ccb3dc"/>
            </result>
            <result>
               <reference value="urn:uuid:273d500f-b305-4f5b-85e8-8a732ed0bae6"/>
            </result>
            <result>
               <reference value="urn:uuid:92ccb51e-fbf9-4c64-b36c-0808ae084753"/>
            </result>
            <result>
               <reference value="urn:uuid:4411a905-2b95-4702-9280-d40af0ec4611"/>
            </result>
            <result>
               <reference value="urn:uuid:2d256f75-cf12-48db-a7ae-f9cd272a7d0b"/>
            </result>
            <result>
               <reference value="urn:uuid:ff85fedc-dd11-4b26-b4db-ef570d374821"/>
            </result>
            <result>
               <reference value="urn:uuid:d751afc4-f709-401a-8198-4e1af3ea94ff"/>
            </result>
         </DiagnosticReport>
      </resource>
   </entry>
   <entry>
      <fullUrl value="urn:uuid:b92ade45-aa65-4fa8-a29c-33838f739f5b"/>
      <resource>
         <Patient>
            <id value="b92ade45-aa65-4fa8-a29c-33838f739f5b"/>
            <meta>
               <profile value="http://hl7.eu/fhir/base/StructureDefinition/patient-eu-core"/>
               <security>
                  <system value="http://terminology.hl7.org/CodeSystem/v3-ActReason"/>
                  <code value="HTEST"/>
               </security>
               <security>
                  <system value="http://terminology.hl7.org/CodeSystem/v3-ActReason"/>
                  <code value="TRAIN"/>
               </security>
               <tag>
                  <system value="https://synderai.net/fhir/CodeSystem/tags"/>
                  <code value="synthetic"/>
                  <display value="SYNDERAI Synthetic data"/>
               </tag>
            </meta>
            <text>
               <status value="generated"/>
               <div xmlns="http://www.w3.org/1999/xhtml">
                  <table class="hl7__ips">
                     <tr>
                        <td>Ludmila Vávrová</td>
                        <td>female</td>
                        <td>08-Aug-1940</td>
                     </tr>
                  </table>
               </div>
            </text>
            <extension url="http://hl7.org/fhir/StructureDefinition/patient-nationality">
               <valueCodeableConcept>
                  <coding>
                     <system value="http://hl7.org/fhir/ValueSet/country"/>
                     <code value="CZ"/>
                  </coding>
               </valueCodeableConcept>
            </extension>
            <identifier>
               <type>
                  <coding>
                     <system value="http://terminology.hl7.org/CodeSystem/v2-0203"/>
                     <code value="PT"/>
                  </coding>
               </type>
               <system value="http://ec.europa.eu/identifier/eci"/>
               <value value="1992-540676-1"/>
            </identifier>
            <identifier>
               <type>
                  <coding>
                     <system value="http://terminology.hl7.org/CodeSystem/v2-0203"/>
                     <code value="MR"/>
                  </coding>
               </type>
               <system value="http://local.setting.eu/identifier"/>
               <value value="7c533aae-6e7f-89aa-dfdc-8ff900a5990b"/>
            </identifier>
            <name>
               <family value="Vávrová"/>
            </name>
            <name>
               <given value="Ludmila"/>
            </name>
            <name>
               <text value="Ludmila Vávrová"/>
            </name>
            <telecom>
               <system value="phone"/>
               <value value="00420 607 610 889"/>
            </telecom>
            <gender value="female"/>
            <birthDate value="1940-08-08"/>
            <address>
               <use value="home"/>
               <type value="physical"/>
               <line value="Šárovo Kolo 116"/>
               <city value="Bakov nad Jizerou"/>
               <postalCode value="29471"/>
               <country value="Czechia"/>
            </address>
         </Patient>
      </resource>
   </entry>
   <entry>
      <fullUrl value="urn:uuid:1f9bd48e-8e91-42d0-b566-4757c153eac1"/>
      <resource>
         <ServiceRequest>
            <id value="1f9bd48e-8e91-42d0-b566-4757c153eac1"/>
            <meta>
               <profile value="http://hl7.eu/fhir/laboratory/StructureDefinition/ServiceRequest-eu-lab"/>
            </meta>
            <identifier>
               <system value="http://example.org"/>
               <value value="70217a75-8630-4a7d-a64d-cd65392153e6"/>
            </identifier>
            <status value="active"/>
            <intent value="order"/>
            <code>
               <coding>
                  <system value="http://snomed.info/sct"/>
                  <code value="108252007"/>
                  <display value="Laboratory procedure"/>
               </coding>
            </code>
            <subject>
               <reference value="urn:uuid:b92ade45-aa65-4fa8-a29c-33838f739f5b"/>
               <display value="Ludmila Vávrová"/>
            </subject>
            <requester>
               <reference value="urn:uuid:2ec493eb-1aac-4bb7-9b07-791e6f68a821"/>
            </requester>
            <reasonCode>
               <coding>
                  <system value="http://snomed.info/sct"/>
                  <code value="414545008"/>
                  <display value="Ischemic heart disease"/>
               </coding>
            </reasonCode>
            <reasonCode>
               <coding>
                  <system value="http://snomed.info/sct"/>
                  <code value="64859006"/>
                  <display value="Osteoporosis"/>
               </coding>
            </reasonCode>
            <reasonCode>
               <coding>
                  <system value="http://snomed.info/sct"/>
                  <code value="6525002"/>
                  <display value="Dependent drug abuse"/>
               </coding>
            </reasonCode>
            <reasonCode>
               <coding>
                  <system value="http://snomed.info/sct"/>
                  <code value="55822004"/>
                  <display value="Hyperlipidemia"/>
               </coding>
            </reasonCode>
            <reasonCode>
               <coding>
                  <system value="http://snomed.info/sct"/>
                  <code value="124171000119105"/>
                  <display value="Chronic intractable migraine without aura"/>
               </coding>
            </reasonCode>
            <reasonCode>
               <coding>
                  <system value="http://snomed.info/sct"/>
                  <code value="196416002"/>
                  <display value="Impacted molars"/>
               </coding>
            </reasonCode>
            <reasonCode>
               <coding>
                  <system value="http://snomed.info/sct"/>
                  <code value="239872002"/>
                  <display value="Osteoarthritis of hip"/>
               </coding>
            </reasonCode>
            <reasonCode>
               <coding>
                  <system value="http://snomed.info/sct"/>
                  <code value="40055000"/>
                  <display value="Chronic sinusitis"/>
               </coding>
            </reasonCode>
            <specimen>
               <reference value="urn:uuid:da2926f1-b409-4961-b270-f73c38d94986"/>
            </specimen>
            <specimen>
               <reference value="urn:uuid:d7633821-2722-46bb-bad3-4ea83c15caab"/>
            </specimen>
            <specimen>
               <reference value="urn:uuid:07a7ca16-0acf-4bad-abce-8b712e357a06"/>
            </specimen>
            <specimen>
               <reference value="urn:uuid:acc589cf-4a7a-48ac-b71b-0b6ed8c722f4"/>
            </specimen>
         </ServiceRequest>
      </resource>
   </entry>
   <entry>
      <fullUrl value="urn:uuid:2ec493eb-1aac-4bb7-9b07-791e6f68a821"/>
      <resource>
         <PractitionerRole>
            <id value="2ec493eb-1aac-4bb7-9b07-791e6f68a821"/>
            <meta>
               <profile value="http://hl7.eu/fhir/base/StructureDefinition/practitionerRole-eu"/>
            </meta>
            <text>
               <status value="generated"/>
               <div xmlns="http://www.w3.org/1999/xhtml">Provider Role Id: 2ec493eb-1aac-4bb7-9b07-791e6f68a821</div>
            </text>
            <organization>
               <reference value="urn:uuid:f4933620-6030-4e9c-a452-2d8daf0b5fbd"/>
            </organization>
         </PractitionerRole>
      </resource>
   </entry>
   <entry>
      <fullUrl value="urn:uuid:f4933620-6030-4e9c-a452-2d8daf0b5fbd"/>
      <resource>
         <Organization>
            <id value="f4933620-6030-4e9c-a452-2d8daf0b5fbd"/>
            <meta>
               <profile value="http://hl7.eu/fhir/base/StructureDefinition/organization-eu"/>
            </meta>
            <text>
               <status value="generated"/>
               <div xmlns="http://www.w3.org/1999/xhtml">Provider Organization: Psychiatrická nemocnice Kosmonosy</div>
            </text>
            <identifier>
               <system value="urn:oid:2.16.840.1.113883.2.51.999"/>
               <value value="63efc95a-405d-4e1a-b04d-2ad40419f25b"/>
               <assigner>
                  <display value="HL7 Europe"/>
               </assigner>
            </identifier>
            <name value="Psychiatrická nemocnice Kosmonosy"/>
            <address>
               <city value="Kosmonosy"/>
               <postalCode value="293 06"/>
               <country value="Czechia"/>
            </address>
         </Organization>
      </resource>
   </entry>
   <entry>
      <fullUrl value="urn:uuid:da2926f1-b409-4961-b270-f73c38d94986"/>
      <resource>
         <Specimen>
            <id value="da2926f1-b409-4961-b270-f73c38d94986"/>
            <meta>
               <profile value="http://hl7.eu/fhir/laboratory/StructureDefinition/Specimen-eu-lab"/>
            </meta>
            <text>
               <status value="generated"/>
               <div xmlns="http://www.w3.org/1999/xhtml">
                  <table class="hl7__eu__lab__report">
                     <tr>
                        <th>Specimen</th>
                        <th>Collection Date</th>
                     </tr>
                     <tr>
                        <td>Whole blood specimen (specimen)</td>
                        <td>
                           <span class="nb">10-Nov-2016</span>
                        </td>
                     </tr>
                  </table>
               </div>
            </text>
            <type>
               <coding>
                  <system value="http://snomed.info/sct"/>
                  <code value="258580003"/>
                  <display value="Whole blood specimen (specimen)"/>
               </coding>
            </type>
            <collection>
               <collectedDateTime value="2016-11-10"/>
            </collection>
         </Specimen>
      </resource>
   </entry>
   <entry>
      <fullUrl value="urn:uuid:da2926f1-b409-4961-b270-f73c38d94986"/>
      <resource>
         <Specimen>
            <id value="da2926f1-b409-4961-b270-f73c38d94986"/>
            <meta>
               <profile value="http://hl7.eu/fhir/laboratory/StructureDefinition/Specimen-eu-lab"/>
            </meta>
            <text>
               <status value="generated"/>
               <div xmlns="http://www.w3.org/1999/xhtml">
                  <table class="hl7__eu__lab__report">
                     <tr>
                        <th>Specimen</th>
                        <th>Collection Date</th>
                     </tr>
                     <tr>
                        <td>Whole blood specimen (specimen)</td>
                        <td>
                           <span class="nb">10-Nov-2016</span>
                        </td>
                     </tr>
                  </table>
               </div>
            </text>
            <type>
               <coding>
                  <system value="http://snomed.info/sct"/>
                  <code value="258580003"/>
                  <display value="Whole blood specimen (specimen)"/>
               </coding>
            </type>
            <collection>
               <collectedDateTime value="2016-11-10"/>
            </collection>
         </Specimen>
      </resource>
   </entry>
   <entry>
      <fullUrl value="urn:uuid:d7633821-2722-46bb-bad3-4ea83c15caab"/>
      <resource>
         <Specimen>
            <id value="d7633821-2722-46bb-bad3-4ea83c15caab"/>
            <meta>
               <profile value="http://hl7.eu/fhir/laboratory/StructureDefinition/Specimen-eu-lab"/>
            </meta>
            <text>
               <status value="generated"/>
               <div xmlns="http://www.w3.org/1999/xhtml">
                  <table class="hl7__eu__lab__report">
                     <tr>
                        <th>Specimen</th>
                        <th>Collection Date</th>
                     </tr>
                     <tr>
                        <td>Acellular blood (serum or plasma) specimen</td>
                        <td>
                           <span class="nb">10-Nov-2016</span>
                        </td>
                     </tr>
                  </table>
               </div>
            </text>
            <type>
               <coding>
                  <system value="http://snomed.info/sct"/>
                  <code value="122592007"/>
                  <display value="Acellular blood (serum or plasma) specimen"/>
               </coding>
            </type>
            <collection>
               <collectedDateTime value="2016-11-10"/>
            </collection>
         </Specimen>
      </resource>
   </entry>
   <entry>
      <fullUrl value="urn:uuid:07a7ca16-0acf-4bad-abce-8b712e357a06"/>
      <resource>
         <Specimen>
            <id value="07a7ca16-0acf-4bad-abce-8b712e357a06"/>
            <meta>
               <profile value="http://hl7.eu/fhir/laboratory/StructureDefinition/Specimen-eu-lab"/>
            </meta>
            <text>
               <status value="generated"/>
               <div xmlns="http://www.w3.org/1999/xhtml">
                  <table class="hl7__eu__lab__report">
                     <tr>
                        <th>Specimen</th>
                        <th>Collection Date</th>
                     </tr>
                     <tr>
                        <td>Platelet poor plasma specimen</td>
                        <td>
                           <span class="nb">10-Nov-2016</span>
                        </td>
                     </tr>
                  </table>
               </div>
            </text>
            <type>
               <coding>
                  <system value="http://snomed.info/sct"/>
                  <code value="119362004"/>
                  <display value="Platelet poor plasma specimen"/>
               </coding>
            </type>
            <collection>
               <collectedDateTime value="2016-11-10"/>
            </collection>
         </Specimen>
      </resource>
   </entry>
   <entry>
      <fullUrl value="urn:uuid:acc589cf-4a7a-48ac-b71b-0b6ed8c722f4"/>
      <resource>
         <Specimen>
            <id value="acc589cf-4a7a-48ac-b71b-0b6ed8c722f4"/>
            <meta>
               <profile value="http://hl7.eu/fhir/laboratory/StructureDefinition/Specimen-eu-lab"/>
            </meta>
            <text>
               <status value="generated"/>
               <div xmlns="http://www.w3.org/1999/xhtml">
                  <table class="hl7__eu__lab__report">
                     <tr>
                        <th>Specimen</th>
                        <th>Collection Date</th>
                     </tr>
                     <tr>
                        <td>Arterial blood specimen</td>
                        <td>
                           <span class="nb">10-Nov-2016</span>
                        </td>
                     </tr>
                  </table>
               </div>
            </text>
            <type>
               <coding>
                  <system value="http://snomed.info/sct"/>
                  <code value="122552005"/>
                  <display value="Arterial blood specimen"/>
               </coding>
            </type>
            <collection>
               <collectedDateTime value="2016-11-10"/>
            </collection>
         </Specimen>
      </resource>
   </entry>
   <entry>
      <fullUrl value="urn:uuid:8fb3d7ae-44fc-4982-8ad9-ae39f09a3743"/>
      <resource>
         <Observation>
            <id value="8fb3d7ae-44fc-4982-8ad9-ae39f09a3743"/>
            <meta>
               <profile value="http://hl7.eu/fhir/laboratory/StructureDefinition/Observation-resultslab-eu-lab"/>
            </meta>
            <text>
               <status value="generated"/>
               <div xmlns="http://www.w3.org/1999/xhtml">
                  <table class="hl7__eu__lab__report">
                     <tr>
                        <th>Test</th>
                        <th>10-Nov-2016</th>
                        <th>Reference Range</th>
                        <th>Unit</th>
                     </tr>
                     <tr>
                        <td>Leukocytes [#/volume] in Blood by Automated count</td>
                        <td>10.2</td>
                        <td>3.4 - 10.6</td>
                        <td/>
                        <td>10*3/uL</td>
                     </tr>
                  </table>
               </div>
            </text>
            <status value="final"/>
            <category>
               <coding>
                  <system value="http://terminology.hl7.org/CodeSystem/observation-category"/>
                  <code value="laboratory"/>
               </coding>
            </category>
            <code>
               <coding>
                  <system value="http://loinc.org"/>
                  <code value="6690-2"/>
                  <display value="Leukocytes [#/volume] in Blood by Automated count"/>
               </coding>
               <text value="Leukocytes [#/volume] in Blood by Automated count"/>
            </code>
            <subject>
               <reference value="urn:uuid:b92ade45-aa65-4fa8-a29c-33838f739f5b"/>
               <display value="Ludmila Vávrová"/>
            </subject>
            <effectiveDateTime value="2016-11-10T04:05:03Z"/>
            <performer>
               <display value="The Central European Lab"/>
            </performer>
            <valueQuantity>
               <value value="10.2"/>
               <unit value="10*3/uL"/>
               <system value="http://unitsofmeasure.org"/>
               <code value="10*3/uL"/>
            </valueQuantity>
            <specimen>
               <reference value="urn:uuid:da2926f1-b409-4961-b270-f73c38d94986"/>
            </specimen>
            <referenceRange>
               <low>
                  <value value="3.4"/>
                  <system value="http://unitsofmeasure.org"/>
                  <code value="10*3/uL"/>
               </low>
            </referenceRange>
            <referenceRange>
               <high>
                  <value value="10.6"/>
                  <system value="http://unitsofmeasure.org"/>
                  <code value="10*3/uL"/>
               </high>
            </referenceRange>
         </Observation>
      </resource>
   </entry>
   <entry>
      <fullUrl value="urn:uuid:92cc3835-0f37-4fe5-9bcd-e806bc64f3d4"/>
      <resource>
         <Observation>
            <id value="92cc3835-0f37-4fe5-9bcd-e806bc64f3d4"/>
            <meta>
               <profile value="http://hl7.eu/fhir/laboratory/StructureDefinition/Observation-resultslab-eu-lab"/>
            </meta>
            <text>
               <status value="generated"/>
               <div xmlns="http://www.w3.org/1999/xhtml">
                  <table class="hl7__eu__lab__report">
                     <tr>
                        <th>Test</th>
                        <th>10-Nov-2016</th>
                        <th>Reference Range</th>
                        <th>Unit</th>
                     </tr>
                     <tr>
                        <td>Erythrocytes [#/volume] in Blood by Automated count</td>
                        <td>3.8</td>
                        <td>4.7 - 5.2</td>
                        <td>L</td>
                        <td>10*6/uL</td>
                     </tr>
                  </table>
               </div>
            </text>
            <status value="final"/>
            <category>
               <coding>
                  <system value="http://terminology.hl7.org/CodeSystem/observation-category"/>
                  <code value="laboratory"/>
               </coding>
            </category>
            <code>
               <coding>
                  <system value="http://loinc.org"/>
                  <code value="789-8"/>
                  <display value="Erythrocytes [#/volume] in Blood by Automated count"/>
               </coding>
               <text value="Erythrocytes [#/volume] in Blood by Automated count"/>
            </code>
            <subject>
               <reference value="urn:uuid:b92ade45-aa65-4fa8-a29c-33838f739f5b"/>
               <display value="Ludmila Vávrová"/>
            </subject>
            <effectiveDateTime value="2016-11-10T04:05:03Z"/>
            <performer>
               <display value="The Central European Lab"/>
            </performer>
            <valueQuantity>
               <value value="3.8"/>
               <unit value="10*6/uL"/>
               <system value="http://unitsofmeasure.org"/>
               <code value="10*6/uL"/>
            </valueQuantity>
            <interpretation>
               <coding>
                  <system value="http://terminology.hl7.org/CodeSystem/v3-ObservationInterpretation"/>
                  <code value="L"/>
                  <display value="Low"/>
               </coding>
            </interpretation>
            <specimen>
               <reference value="urn:uuid:da2926f1-b409-4961-b270-f73c38d94986"/>
            </specimen>
            <referenceRange>
               <low>
                  <value value="4.7"/>
                  <system value="http://unitsofmeasure.org"/>
                  <code value="10*6/uL"/>
               </low>
            </referenceRange>
            <referenceRange>
               <high>
                  <value value="5.2"/>
                  <system value="http://unitsofmeasure.org"/>
                  <code value="10*6/uL"/>
               </high>
            </referenceRange>
         </Observation>
      </resource>
   </entry>
   <entry>
      <fullUrl value="urn:uuid:c96d3011-4add-42b6-bf9a-eed906cb3a91"/>
      <resource>
         <Observation>
            <id value="c96d3011-4add-42b6-bf9a-eed906cb3a91"/>
            <meta>
               <profile value="http://hl7.eu/fhir/laboratory/StructureDefinition/Observation-resultslab-eu-lab"/>
            </meta>
            <text>
               <status value="generated"/>
               <div xmlns="http://www.w3.org/1999/xhtml">
                  <table class="hl7__eu__lab__report">
                     <tr>
                        <th>Test</th>
                        <th>10-Nov-2016</th>
                        <th>Reference Range</th>
                        <th>Unit</th>
                     </tr>
                     <tr>
                        <td>Hemoglobin [Mass/volume] in Blood</td>
                        <td>16.3</td>
                        <td>11.5 - 16</td>
                        <td>H</td>
                        <td>g/dL</td>
                     </tr>
                  </table>
               </div>
            </text>
            <status value="final"/>
            <category>
               <coding>
                  <system value="http://terminology.hl7.org/CodeSystem/observation-category"/>
                  <code value="laboratory"/>
               </coding>
            </category>
            <code>
               <coding>
                  <system value="http://loinc.org"/>
                  <code value="718-7"/>
                  <display value="Hemoglobin [Mass/volume] in Blood"/>
               </coding>
               <text value="Hemoglobin [Mass/volume] in Blood"/>
            </code>
            <subject>
               <reference value="urn:uuid:b92ade45-aa65-4fa8-a29c-33838f739f5b"/>
               <display value="Ludmila Vávrová"/>
            </subject>
            <effectiveDateTime value="2016-11-10T04:05:03Z"/>
            <performer>
               <display value="The Central European Lab"/>
            </performer>
            <valueQuantity>
               <value value="16.3"/>
               <unit value="g/dL"/>
               <system value="http://unitsofmeasure.org"/>
               <code value="g/dL"/>
            </valueQuantity>
            <interpretation>
               <coding>
                  <system value="http://terminology.hl7.org/CodeSystem/v3-ObservationInterpretation"/>
                  <code value="H"/>
                  <display value="High"/>
               </coding>
            </interpretation>
            <specimen>
               <reference value="urn:uuid:da2926f1-b409-4961-b270-f73c38d94986"/>
            </specimen>
            <referenceRange>
               <low>
                  <value value="11.5"/>
                  <system value="http://unitsofmeasure.org"/>
                  <code value="g/dL"/>
               </low>
            </referenceRange>
            <referenceRange>
               <high>
                  <value value="16"/>
                  <system value="http://unitsofmeasure.org"/>
                  <code value="g/dL"/>
               </high>
            </referenceRange>
         </Observation>
      </resource>
   </entry>
   <entry>
      <fullUrl value="urn:uuid:687ef1a5-5810-4d4b-98a7-2e71717262d4"/>
      <resource>
         <Observation>
            <id value="687ef1a5-5810-4d4b-98a7-2e71717262d4"/>
            <meta>
               <profile value="http://hl7.eu/fhir/laboratory/StructureDefinition/Observation-resultslab-eu-lab"/>
            </meta>
            <text>
               <status value="generated"/>
               <div xmlns="http://www.w3.org/1999/xhtml">
                  <table class="hl7__eu__lab__report">
                     <tr>
                        <th>Test</th>
                        <th>10-Nov-2016</th>
                        <th>Reference Range</th>
                        <th>Unit</th>
                     </tr>
                     <tr>
                        <td>Hematocrit [Volume Fraction] of Blood by Automated count</td>
                        <td>45.7</td>
                        <td>38 - 56</td>
                        <td/>
                        <td>%</td>
                     </tr>
                  </table>
               </div>
            </text>
            <status value="final"/>
            <category>
               <coding>
                  <system value="http://terminology.hl7.org/CodeSystem/observation-category"/>
                  <code value="laboratory"/>
               </coding>
            </category>
            <code>
               <coding>
                  <system value="http://loinc.org"/>
                  <code value="4544-3"/>
                  <display value="Hematocrit [Volume Fraction] of Blood by Automated count"/>
               </coding>
               <text value="Hematocrit [Volume Fraction] of Blood by Automated count"/>
            </code>
            <subject>
               <reference value="urn:uuid:b92ade45-aa65-4fa8-a29c-33838f739f5b"/>
               <display value="Ludmila Vávrová"/>
            </subject>
            <effectiveDateTime value="2016-11-10T04:05:03Z"/>
            <performer>
               <display value="The Central European Lab"/>
            </performer>
            <valueQuantity>
               <value value="45.7"/>
               <unit value="%"/>
               <system value="http://unitsofmeasure.org"/>
               <code value="%"/>
            </valueQuantity>
            <specimen>
               <reference value="urn:uuid:da2926f1-b409-4961-b270-f73c38d94986"/>
            </specimen>
            <referenceRange>
               <low>
                  <value value="38"/>
                  <system value="http://unitsofmeasure.org"/>
                  <code value="%"/>
               </low>
            </referenceRange>
            <referenceRange>
               <high>
                  <value value="56"/>
                  <system value="http://unitsofmeasure.org"/>
                  <code value="%"/>
               </high>
            </referenceRange>
         </Observation>
      </resource>
   </entry>
   <entry>
      <fullUrl value="urn:uuid:34361490-9377-4363-b880-24d5f14ce622"/>
      <resource>
         <Observation>
            <id value="34361490-9377-4363-b880-24d5f14ce622"/>
            <meta>
               <profile value="http://hl7.eu/fhir/laboratory/StructureDefinition/Observation-resultslab-eu-lab"/>
            </meta>
            <text>
               <status value="generated"/>
               <div xmlns="http://www.w3.org/1999/xhtml">
                  <table class="hl7__eu__lab__report">
                     <tr>
                        <th>Test</th>
                        <th>10-Nov-2016</th>
                        <th>Reference Range</th>
                        <th>Unit</th>
                     </tr>
                     <tr>
                        <td>MCV [Entitic volume] by Automated count</td>
                        <td>80.9</td>
                        <td>78 - 98</td>
                        <td/>
                        <td>fL</td>
                     </tr>
                  </table>
               </div>
            </text>
            <status value="final"/>
            <category>
               <coding>
                  <system value="http://terminology.hl7.org/CodeSystem/observation-category"/>
                  <code value="laboratory"/>
               </coding>
            </category>
            <code>
               <coding>
                  <system value="http://loinc.org"/>
                  <code value="787-2"/>
                  <display value="MCV [Entitic volume] by Automated count"/>
               </coding>
               <text value="MCV [Entitic volume] by Automated count"/>
            </code>
            <subject>
               <reference value="urn:uuid:b92ade45-aa65-4fa8-a29c-33838f739f5b"/>
               <display value="Ludmila Vávrová"/>
            </subject>
            <effectiveDateTime value="2016-11-10T04:05:03Z"/>
            <performer>
               <display value="The Central European Lab"/>
            </performer>
            <valueQuantity>
               <value value="80.9"/>
               <unit value="fL"/>
               <system value="http://unitsofmeasure.org"/>
               <code value="fL"/>
            </valueQuantity>
            <specimen>
               <reference value="urn:uuid:da2926f1-b409-4961-b270-f73c38d94986"/>
            </specimen>
            <referenceRange>
               <low>
                  <value value="78"/>
                  <system value="http://unitsofmeasure.org"/>
                  <code value="fL"/>
               </low>
            </referenceRange>
            <referenceRange>
               <high>
                  <value value="98"/>
                  <system value="http://unitsofmeasure.org"/>
                  <code value="fL"/>
               </high>
            </referenceRange>
         </Observation>
      </resource>
   </entry>
   <entry>
      <fullUrl value="urn:uuid:f98989c4-e063-4c00-810a-4d3ac8ba10a2"/>
      <resource>
         <Observation>
            <id value="f98989c4-e063-4c00-810a-4d3ac8ba10a2"/>
            <meta>
               <profile value="http://hl7.eu/fhir/laboratory/StructureDefinition/Observation-resultslab-eu-lab"/>
            </meta>
            <text>
               <status value="generated"/>
               <div xmlns="http://www.w3.org/1999/xhtml">
                  <table class="hl7__eu__lab__report">
                     <tr>
                        <th>Test</th>
                        <th>10-Nov-2016</th>
                        <th>Reference Range</th>
                        <th>Unit</th>
                     </tr>
                     <tr>
                        <td>MCH [Entitic mass] by Automated count</td>
                        <td>30.2</td>
                        <td>27 - 34</td>
                        <td/>
                        <td>pg</td>
                     </tr>
                  </table>
               </div>
            </text>
            <status value="final"/>
            <category>
               <coding>
                  <system value="http://terminology.hl7.org/CodeSystem/observation-category"/>
                  <code value="laboratory"/>
               </coding>
            </category>
            <code>
               <coding>
                  <system value="http://loinc.org"/>
                  <code value="785-6"/>
                  <display value="MCH [Entitic mass] by Automated count"/>
               </coding>
               <text value="MCH [Entitic mass] by Automated count"/>
            </code>
            <subject>
               <reference value="urn:uuid:b92ade45-aa65-4fa8-a29c-33838f739f5b"/>
               <display value="Ludmila Vávrová"/>
            </subject>
            <effectiveDateTime value="2016-11-10T04:05:03Z"/>
            <performer>
               <display value="The Central European Lab"/>
            </performer>
            <valueQuantity>
               <value value="30.2"/>
               <unit value="pg"/>
               <system value="http://unitsofmeasure.org"/>
               <code value="pg"/>
            </valueQuantity>
            <specimen>
               <reference value="urn:uuid:da2926f1-b409-4961-b270-f73c38d94986"/>
            </specimen>
            <referenceRange>
               <low>
                  <value value="27"/>
                  <system value="http://unitsofmeasure.org"/>
                  <code value="pg"/>
               </low>
            </referenceRange>
            <referenceRange>
               <high>
                  <value value="34"/>
                  <system value="http://unitsofmeasure.org"/>
                  <code value="pg"/>
               </high>
            </referenceRange>
         </Observation>
      </resource>
   </entry>
   <entry>
      <fullUrl value="urn:uuid:8b9f1389-7293-4a4e-a8d5-69b708df041d"/>
      <resource>
         <Observation>
            <id value="8b9f1389-7293-4a4e-a8d5-69b708df041d"/>
            <meta>
               <profile value="http://hl7.eu/fhir/laboratory/StructureDefinition/Observation-resultslab-eu-lab"/>
            </meta>
            <text>
               <status value="generated"/>
               <div xmlns="http://www.w3.org/1999/xhtml">
                  <table class="hl7__eu__lab__report">
                     <tr>
                        <th>Test</th>
                        <th>10-Nov-2016</th>
                        <th>Reference Range</th>
                        <th>Unit</th>
                     </tr>
                     <tr>
                        <td>MCHC [Mass/volume] by Automated count</td>
                        <td>32.9</td>
                        <td>31 - 36</td>
                        <td/>
                        <td>g/dL</td>
                     </tr>
                  </table>
               </div>
            </text>
            <status value="final"/>
            <category>
               <coding>
                  <system value="http://terminology.hl7.org/CodeSystem/observation-category"/>
                  <code value="laboratory"/>
               </coding>
            </category>
            <code>
               <coding>
                  <system value="http://loinc.org"/>
                  <code value="786-4"/>
                  <display value="MCHC [Mass/volume] by Automated count"/>
               </coding>
               <text value="MCHC [Mass/volume] by Automated count"/>
            </code>
            <subject>
               <reference value="urn:uuid:b92ade45-aa65-4fa8-a29c-33838f739f5b"/>
               <display value="Ludmila Vávrová"/>
            </subject>
            <effectiveDateTime value="2016-11-10T04:05:03Z"/>
            <performer>
               <display value="The Central European Lab"/>
            </performer>
            <valueQuantity>
               <value value="32.9"/>
               <unit value="g/dL"/>
               <system value="http://unitsofmeasure.org"/>
               <code value="g/dL"/>
            </valueQuantity>
            <specimen>
               <reference value="urn:uuid:da2926f1-b409-4961-b270-f73c38d94986"/>
            </specimen>
            <referenceRange>
               <low>
                  <value value="31"/>
                  <system value="http://unitsofmeasure.org"/>
                  <code value="g/dL"/>
               </low>
            </referenceRange>
            <referenceRange>
               <high>
                  <value value="36"/>
                  <system value="http://unitsofmeasure.org"/>
                  <code value="g/dL"/>
               </high>
            </referenceRange>
         </Observation>
      </resource>
   </entry>
   <entry>
      <fullUrl value="urn:uuid:55d3f9ae-d23f-42a5-8f31-dded3df3319e"/>
      <resource>
         <Observation>
            <id value="55d3f9ae-d23f-42a5-8f31-dded3df3319e"/>
            <meta>
               <profile value="http://hl7.eu/fhir/laboratory/StructureDefinition/Observation-resultslab-eu-lab"/>
            </meta>
            <text>
               <status value="generated"/>
               <div xmlns="http://www.w3.org/1999/xhtml">
                  <table class="hl7__eu__lab__report">
                     <tr>
                        <th>Test</th>
                        <th>10-Nov-2016</th>
                        <th>Reference Range</th>
                        <th>Unit</th>
                     </tr>
                     <tr>
                        <td>Erythrocyte distribution width [Ratio] by Automated count</td>
                        <td>12.9</td>
                        <td>11.6 - 16.5</td>
                        <td/>
                        <td>%</td>
                     </tr>
                  </table>
               </div>
            </text>
            <status value="final"/>
            <category>
               <coding>
                  <system value="http://terminology.hl7.org/CodeSystem/observation-category"/>
                  <code value="laboratory"/>
               </coding>
            </category>
            <code>
               <coding>
                  <system value="http://loinc.org"/>
                  <code value="788-0"/>
                  <display value="Erythrocyte distribution width [Ratio] by Automated count"/>
               </coding>
               <text value="Erythrocyte distribution width [Ratio] by Automated count"/>
            </code>
            <subject>
               <reference value="urn:uuid:b92ade45-aa65-4fa8-a29c-33838f739f5b"/>
               <display value="Ludmila Vávrová"/>
            </subject>
            <effectiveDateTime value="2016-11-10T04:05:03Z"/>
            <performer>
               <display value="The Central European Lab"/>
            </performer>
            <valueQuantity>
               <value value="12.9"/>
               <unit value="%"/>
               <system value="http://unitsofmeasure.org"/>
               <code value="%"/>
            </valueQuantity>
            <specimen>
               <reference value="urn:uuid:da2926f1-b409-4961-b270-f73c38d94986"/>
            </specimen>
            <referenceRange>
               <low>
                  <value value="11.6"/>
                  <system value="http://unitsofmeasure.org"/>
                  <code value="%"/>
               </low>
            </referenceRange>
            <referenceRange>
               <high>
                  <value value="16.5"/>
                  <system value="http://unitsofmeasure.org"/>
                  <code value="%"/>
               </high>
            </referenceRange>
         </Observation>
      </resource>
   </entry>
   <entry>
      <fullUrl value="urn:uuid:6f766bba-42ea-4046-a85c-52cb646d8ce2"/>
      <resource>
         <Observation>
            <id value="6f766bba-42ea-4046-a85c-52cb646d8ce2"/>
            <meta>
               <profile value="http://hl7.eu/fhir/laboratory/StructureDefinition/Observation-resultslab-eu-lab"/>
            </meta>
            <text>
               <status value="generated"/>
               <div xmlns="http://www.w3.org/1999/xhtml">
                  <table class="hl7__eu__lab__report">
                     <tr>
                        <th>Test</th>
                        <th>10-Nov-2016</th>
                        <th>Reference Range</th>
                        <th>Unit</th>
                     </tr>
                     <tr>
                        <td>Platelets [#/volume] in Blood by Automated count</td>
                        <td>434.8</td>
                        <td>150 - 450</td>
                        <td/>
                        <td>10*3/uL</td>
                     </tr>
                  </table>
               </div>
            </text>
            <status value="final"/>
            <category>
               <coding>
                  <system value="http://terminology.hl7.org/CodeSystem/observation-category"/>
                  <code value="laboratory"/>
               </coding>
            </category>
            <code>
               <coding>
                  <system value="http://loinc.org"/>
                  <code value="777-3"/>
                  <display value="Platelets [#/volume] in Blood by Automated count"/>
               </coding>
               <text value="Platelets [#/volume] in Blood by Automated count"/>
            </code>
            <subject>
               <reference value="urn:uuid:b92ade45-aa65-4fa8-a29c-33838f739f5b"/>
               <display value="Ludmila Vávrová"/>
            </subject>
            <effectiveDateTime value="2016-11-10T04:05:03Z"/>
            <performer>
               <display value="The Central European Lab"/>
            </performer>
            <valueQuantity>
               <value value="434.8"/>
               <unit value="10*3/uL"/>
               <system value="http://unitsofmeasure.org"/>
               <code value="10*3/uL"/>
            </valueQuantity>
            <specimen>
               <reference value="urn:uuid:da2926f1-b409-4961-b270-f73c38d94986"/>
            </specimen>
            <referenceRange>
               <low>
                  <value value="150"/>
                  <system value="http://unitsofmeasure.org"/>
                  <code value="10*3/uL"/>
               </low>
            </referenceRange>
            <referenceRange>
               <high>
                  <value value="450"/>
                  <system value="http://unitsofmeasure.org"/>
                  <code value="10*3/uL"/>
               </high>
            </referenceRange>
         </Observation>
      </resource>
   </entry>
   <entry>
      <fullUrl value="urn:uuid:25584db9-d786-4ae9-ba81-8972372cd023"/>
      <resource>
         <Observation>
            <id value="25584db9-d786-4ae9-ba81-8972372cd023"/>
            <meta>
               <profile value="http://hl7.eu/fhir/laboratory/StructureDefinition/Observation-resultslab-eu-lab"/>
            </meta>
            <text>
               <status value="generated"/>
               <div xmlns="http://www.w3.org/1999/xhtml">
                  <table class="hl7__eu__lab__report">
                     <tr>
                        <th>Test</th>
                        <th>10-Nov-2016</th>
                        <th>Reference Range</th>
                        <th>Unit</th>
                     </tr>
                     <tr>
                        <td>Glucose [Mass/volume] in Serum or Plasma</td>
                        <td>94.6</td>
                        <td>70 - 140</td>
                        <td/>
                        <td>mg/dL</td>
                     </tr>
                  </table>
               </div>
            </text>
            <status value="final"/>
            <category>
               <coding>
                  <system value="http://terminology.hl7.org/CodeSystem/observation-category"/>
                  <code value="laboratory"/>
               </coding>
            </category>
            <code>
               <coding>
                  <system value="http://loinc.org"/>
                  <code value="2345-7"/>
                  <display value="Glucose [Mass/volume] in Serum or Plasma"/>
               </coding>
               <text value="Glucose [Mass/volume] in Serum or Plasma"/>
            </code>
            <subject>
               <reference value="urn:uuid:b92ade45-aa65-4fa8-a29c-33838f739f5b"/>
               <display value="Ludmila Vávrová"/>
            </subject>
            <effectiveDateTime value="2016-11-10T04:05:03Z"/>
            <performer>
               <display value="The Central European Lab"/>
            </performer>
            <valueQuantity>
               <value value="94.6"/>
               <unit value="mg/dL"/>
               <system value="http://unitsofmeasure.org"/>
               <code value="mg/dL"/>
            </valueQuantity>
            <specimen>
               <reference value="urn:uuid:d7633821-2722-46bb-bad3-4ea83c15caab"/>
            </specimen>
            <referenceRange>
               <low>
                  <value value="70"/>
                  <system value="http://unitsofmeasure.org"/>
                  <code value="mg/dL"/>
               </low>
            </referenceRange>
            <referenceRange>
               <high>
                  <value value="140"/>
                  <system value="http://unitsofmeasure.org"/>
                  <code value="mg/dL"/>
               </high>
            </referenceRange>
         </Observation>
      </resource>
   </entry>
   <entry>
      <fullUrl value="urn:uuid:2e2c5edf-d058-4de5-a41b-4e189cb74bf9"/>
      <resource>
         <Observation>
            <id value="2e2c5edf-d058-4de5-a41b-4e189cb74bf9"/>
            <meta>
               <profile value="http://hl7.eu/fhir/laboratory/StructureDefinition/Observation-resultslab-eu-lab"/>
            </meta>
            <text>
               <status value="generated"/>
               <div xmlns="http://www.w3.org/1999/xhtml">
                  <table class="hl7__eu__lab__report">
                     <tr>
                        <th>Test</th>
                        <th>10-Nov-2016</th>
                        <th>Reference Range</th>
                        <th>Unit</th>
                     </tr>
                     <tr>
                        <td>Urea nitrogen [Mass/volume] in Serum or Plasma</td>
                        <td>14.0</td>
                        <td>7 - 25</td>
                        <td/>
                        <td>mg/dL</td>
                     </tr>
                  </table>
               </div>
            </text>
            <status value="final"/>
            <category>
               <coding>
                  <system value="http://terminology.hl7.org/CodeSystem/observation-category"/>
                  <code value="laboratory"/>
               </coding>
            </category>
            <code>
               <coding>
                  <system value="http://loinc.org"/>
                  <code value="3094-0"/>
                  <display value="Urea nitrogen [Mass/volume] in Serum or Plasma"/>
               </coding>
               <text value="Urea nitrogen [Mass/volume] in Serum or Plasma"/>
            </code>
            <subject>
               <reference value="urn:uuid:b92ade45-aa65-4fa8-a29c-33838f739f5b"/>
               <display value="Ludmila Vávrová"/>
            </subject>
            <effectiveDateTime value="2016-11-10T04:05:03Z"/>
            <performer>
               <display value="The Central European Lab"/>
            </performer>
            <valueQuantity>
               <value value="14"/>
               <unit value="mg/dL"/>
               <system value="http://unitsofmeasure.org"/>
               <code value="mg/dL"/>
            </valueQuantity>
            <specimen>
               <reference value="urn:uuid:d7633821-2722-46bb-bad3-4ea83c15caab"/>
            </specimen>
            <referenceRange>
               <low>
                  <value value="7"/>
                  <system value="http://unitsofmeasure.org"/>
                  <code value="mg/dL"/>
               </low>
            </referenceRange>
            <referenceRange>
               <high>
                  <value value="25"/>
                  <system value="http://unitsofmeasure.org"/>
                  <code value="mg/dL"/>
               </high>
            </referenceRange>
         </Observation>
      </resource>
   </entry>
   <entry>
      <fullUrl value="urn:uuid:6035739b-cb42-4913-a778-de7d5bb0a934"/>
      <resource>
         <Observation>
            <id value="6035739b-cb42-4913-a778-de7d5bb0a934"/>
            <meta>
               <profile value="http://hl7.eu/fhir/laboratory/StructureDefinition/Observation-resultslab-eu-lab"/>
            </meta>
            <text>
               <status value="generated"/>
               <div xmlns="http://www.w3.org/1999/xhtml">
                  <table class="hl7__eu__lab__report">
                     <tr>
                        <th>Test</th>
                        <th>10-Nov-2016</th>
                        <th>Reference Range</th>
                        <th>Unit</th>
                     </tr>
                     <tr>
                        <td>Creatinine [Mass/volume] in Serum or Plasma</td>
                        <td>2.7</td>
                        <td>0.6 - 1.3</td>
                        <td>H</td>
                        <td>mg/dL</td>
                     </tr>
                  </table>
               </div>
            </text>
            <status value="final"/>
            <category>
               <coding>
                  <system value="http://terminology.hl7.org/CodeSystem/observation-category"/>
                  <code value="laboratory"/>
               </coding>
            </category>
            <code>
               <coding>
                  <system value="http://loinc.org"/>
                  <code value="2160-0"/>
                  <display value="Creatinine [Mass/volume] in Serum or Plasma"/>
               </coding>
               <text value="Creatinine [Mass/volume] in Serum or Plasma"/>
            </code>
            <subject>
               <reference value="urn:uuid:b92ade45-aa65-4fa8-a29c-33838f739f5b"/>
               <display value="Ludmila Vávrová"/>
            </subject>
            <effectiveDateTime value="2016-11-10T04:05:03Z"/>
            <performer>
               <display value="The Central European Lab"/>
            </performer>
            <valueQuantity>
               <value value="2.7"/>
               <unit value="mg/dL"/>
               <system value="http://unitsofmeasure.org"/>
               <code value="mg/dL"/>
            </valueQuantity>
            <interpretation>
               <coding>
                  <system value="http://terminology.hl7.org/CodeSystem/v3-ObservationInterpretation"/>
                  <code value="H"/>
                  <display value="High"/>
               </coding>
            </interpretation>
            <specimen>
               <reference value="urn:uuid:d7633821-2722-46bb-bad3-4ea83c15caab"/>
            </specimen>
            <referenceRange>
               <low>
                  <value value="0.6"/>
                  <system value="http://unitsofmeasure.org"/>
                  <code value="mg/dL"/>
               </low>
            </referenceRange>
            <referenceRange>
               <high>
                  <value value="1.3"/>
                  <system value="http://unitsofmeasure.org"/>
                  <code value="mg/dL"/>
               </high>
            </referenceRange>
         </Observation>
      </resource>
   </entry>
   <entry>
      <fullUrl value="urn:uuid:ff916277-e7a8-4455-99ee-9c66309dc528"/>
      <resource>
         <Observation>
            <id value="ff916277-e7a8-4455-99ee-9c66309dc528"/>
            <meta>
               <profile value="http://hl7.eu/fhir/laboratory/StructureDefinition/Observation-resultslab-eu-lab"/>
            </meta>
            <text>
               <status value="generated"/>
               <div xmlns="http://www.w3.org/1999/xhtml">
                  <table class="hl7__eu__lab__report">
                     <tr>
                        <th>Test</th>
                        <th>10-Nov-2016</th>
                        <th>Reference Range</th>
                        <th>Unit</th>
                     </tr>
                     <tr>
                        <td>Calcium [Mass/volume] in Serum or Plasma</td>
                        <td>9.4</td>
                        <td>8.6 - 10.4</td>
                        <td/>
                        <td>mg/dL</td>
                     </tr>
                  </table>
               </div>
            </text>
            <status value="final"/>
            <category>
               <coding>
                  <system value="http://terminology.hl7.org/CodeSystem/observation-category"/>
                  <code value="laboratory"/>
               </coding>
            </category>
            <code>
               <coding>
                  <system value="http://loinc.org"/>
                  <code value="17861-6"/>
                  <display value="Calcium [Mass/volume] in Serum or Plasma"/>
               </coding>
               <text value="Calcium [Mass/volume] in Serum or Plasma"/>
            </code>
            <subject>
               <reference value="urn:uuid:b92ade45-aa65-4fa8-a29c-33838f739f5b"/>
               <display value="Ludmila Vávrová"/>
            </subject>
            <effectiveDateTime value="2016-11-10T04:05:03Z"/>
            <performer>
               <display value="The Central European Lab"/>
            </performer>
            <valueQuantity>
               <value value="9.4"/>
               <unit value="mg/dL"/>
               <system value="http://unitsofmeasure.org"/>
               <code value="mg/dL"/>
            </valueQuantity>
            <specimen>
               <reference value="urn:uuid:d7633821-2722-46bb-bad3-4ea83c15caab"/>
            </specimen>
            <referenceRange>
               <low>
                  <value value="8.6"/>
                  <system value="http://unitsofmeasure.org"/>
                  <code value="mg/dL"/>
               </low>
            </referenceRange>
            <referenceRange>
               <high>
                  <value value="10.4"/>
                  <system value="http://unitsofmeasure.org"/>
                  <code value="mg/dL"/>
               </high>
            </referenceRange>
         </Observation>
      </resource>
   </entry>
   <entry>
      <fullUrl value="urn:uuid:590ed0b0-b65a-4bab-bcd9-33374613abee"/>
      <resource>
         <Observation>
            <id value="590ed0b0-b65a-4bab-bcd9-33374613abee"/>
            <meta>
               <profile value="http://hl7.eu/fhir/laboratory/StructureDefinition/Observation-resultslab-eu-lab"/>
            </meta>
            <text>
               <status value="generated"/>
               <div xmlns="http://www.w3.org/1999/xhtml">
                  <table class="hl7__eu__lab__report">
                     <tr>
                        <th>Test</th>
                        <th>10-Nov-2016</th>
                        <th>Reference Range</th>
                        <th>Unit</th>
                     </tr>
                     <tr>
                        <td>Sodium [Moles/volume] in Serum or Plasma</td>
                        <td>141.6</td>
                        <td>135 - 145</td>
                        <td/>
                        <td>mmol/L</td>
                     </tr>
                  </table>
               </div>
            </text>
            <status value="final"/>
            <category>
               <coding>
                  <system value="http://terminology.hl7.org/CodeSystem/observation-category"/>
                  <code value="laboratory"/>
               </coding>
            </category>
            <code>
               <coding>
                  <system value="http://loinc.org"/>
                  <code value="2951-2"/>
                  <display value="Sodium [Moles/volume] in Serum or Plasma"/>
               </coding>
               <text value="Sodium [Moles/volume] in Serum or Plasma"/>
            </code>
            <subject>
               <reference value="urn:uuid:b92ade45-aa65-4fa8-a29c-33838f739f5b"/>
               <display value="Ludmila Vávrová"/>
            </subject>
            <effectiveDateTime value="2016-11-10T04:05:03Z"/>
            <performer>
               <display value="The Central European Lab"/>
            </performer>
            <valueQuantity>
               <value value="141.6"/>
               <unit value="mmol/L"/>
               <system value="http://unitsofmeasure.org"/>
               <code value="mmol/L"/>
            </valueQuantity>
            <specimen>
               <reference value="urn:uuid:d7633821-2722-46bb-bad3-4ea83c15caab"/>
            </specimen>
            <referenceRange>
               <low>
                  <value value="135"/>
                  <system value="http://unitsofmeasure.org"/>
                  <code value="mmol/L"/>
               </low>
            </referenceRange>
            <referenceRange>
               <high>
                  <value value="145"/>
                  <system value="http://unitsofmeasure.org"/>
                  <code value="mmol/L"/>
               </high>
            </referenceRange>
         </Observation>
      </resource>
   </entry>
   <entry>
      <fullUrl value="urn:uuid:280449e9-ba07-4a23-b678-a0216e4a6534"/>
      <resource>
         <Observation>
            <id value="280449e9-ba07-4a23-b678-a0216e4a6534"/>
            <meta>
               <profile value="http://hl7.eu/fhir/laboratory/StructureDefinition/Observation-resultslab-eu-lab"/>
            </meta>
            <text>
               <status value="generated"/>
               <div xmlns="http://www.w3.org/1999/xhtml">
                  <table class="hl7__eu__lab__report">
                     <tr>
                        <th>Test</th>
                        <th>10-Nov-2016</th>
                        <th>Reference Range</th>
                        <th>Unit</th>
                     </tr>
                     <tr>
                        <td>Potassium [Moles/volume] in Serum or Plasma</td>
                        <td>5.0</td>
                        <td>3.5 - 5.1</td>
                        <td/>
                        <td>mmol/L</td>
                     </tr>
                  </table>
               </div>
            </text>
            <status value="final"/>
            <category>
               <coding>
                  <system value="http://terminology.hl7.org/CodeSystem/observation-category"/>
                  <code value="laboratory"/>
               </coding>
            </category>
            <code>
               <coding>
                  <system value="http://loinc.org"/>
                  <code value="2823-3"/>
                  <display value="Potassium [Moles/volume] in Serum or Plasma"/>
               </coding>
               <text value="Potassium [Moles/volume] in Serum or Plasma"/>
            </code>
            <subject>
               <reference value="urn:uuid:b92ade45-aa65-4fa8-a29c-33838f739f5b"/>
               <display value="Ludmila Vávrová"/>
            </subject>
            <effectiveDateTime value="2016-11-10T04:05:03Z"/>
            <performer>
               <display value="The Central European Lab"/>
            </performer>
            <valueQuantity>
               <value value="5"/>
               <unit value="mmol/L"/>
               <system value="http://unitsofmeasure.org"/>
               <code value="mmol/L"/>
            </valueQuantity>
            <specimen>
               <reference value="urn:uuid:d7633821-2722-46bb-bad3-4ea83c15caab"/>
            </specimen>
            <referenceRange>
               <low>
                  <value value="3.5"/>
                  <system value="http://unitsofmeasure.org"/>
                  <code value="mmol/L"/>
               </low>
            </referenceRange>
            <referenceRange>
               <high>
                  <value value="5.1"/>
                  <system value="http://unitsofmeasure.org"/>
                  <code value="mmol/L"/>
               </high>
            </referenceRange>
         </Observation>
      </resource>
   </entry>
   <entry>
      <fullUrl value="urn:uuid:9c9ed859-0ec2-4aba-9e39-c24920ad2f4e"/>
      <resource>
         <Observation>
            <id value="9c9ed859-0ec2-4aba-9e39-c24920ad2f4e"/>
            <meta>
               <profile value="http://hl7.eu/fhir/laboratory/StructureDefinition/Observation-resultslab-eu-lab"/>
            </meta>
            <text>
               <status value="generated"/>
               <div xmlns="http://www.w3.org/1999/xhtml">
                  <table class="hl7__eu__lab__report">
                     <tr>
                        <th>Test</th>
                        <th>10-Nov-2016</th>
                        <th>Reference Range</th>
                        <th>Unit</th>
                     </tr>
                     <tr>
                        <td>Chloride [Moles/volume] in Serum or Plasma</td>
                        <td>101.8</td>
                        <td>98 - 108</td>
                        <td/>
                        <td>mmol/L</td>
                     </tr>
                  </table>
               </div>
            </text>
            <status value="final"/>
            <category>
               <coding>
                  <system value="http://terminology.hl7.org/CodeSystem/observation-category"/>
                  <code value="laboratory"/>
               </coding>
            </category>
            <code>
               <coding>
                  <system value="http://loinc.org"/>
                  <code value="2075-0"/>
                  <display value="Chloride [Moles/volume] in Serum or Plasma"/>
               </coding>
               <text value="Chloride [Moles/volume] in Serum or Plasma"/>
            </code>
            <subject>
               <reference value="urn:uuid:b92ade45-aa65-4fa8-a29c-33838f739f5b"/>
               <display value="Ludmila Vávrová"/>
            </subject>
            <effectiveDateTime value="2016-11-10T04:05:03Z"/>
            <performer>
               <display value="The Central European Lab"/>
            </performer>
            <valueQuantity>
               <value value="101.8"/>
               <unit value="mmol/L"/>
               <system value="http://unitsofmeasure.org"/>
               <code value="mmol/L"/>
            </valueQuantity>
            <specimen>
               <reference value="urn:uuid:d7633821-2722-46bb-bad3-4ea83c15caab"/>
            </specimen>
            <referenceRange>
               <low>
                  <value value="98"/>
                  <system value="http://unitsofmeasure.org"/>
                  <code value="mmol/L"/>
               </low>
            </referenceRange>
            <referenceRange>
               <high>
                  <value value="108"/>
                  <system value="http://unitsofmeasure.org"/>
                  <code value="mmol/L"/>
               </high>
            </referenceRange>
         </Observation>
      </resource>
   </entry>
   <entry>
      <fullUrl value="urn:uuid:cdea58e5-3c05-4605-9124-b80ecf09e3d5"/>
      <resource>
         <Observation>
            <id value="cdea58e5-3c05-4605-9124-b80ecf09e3d5"/>
            <meta>
               <profile value="http://hl7.eu/fhir/laboratory/StructureDefinition/Observation-resultslab-eu-lab"/>
            </meta>
            <text>
               <status value="generated"/>
               <div xmlns="http://www.w3.org/1999/xhtml">
                  <table class="hl7__eu__lab__report">
                     <tr>
                        <th>Test</th>
                        <th>10-Nov-2016</th>
                        <th>Reference Range</th>
                        <th>Unit</th>
                     </tr>
                     <tr>
                        <td>Carbon dioxide, total [Moles/volume] in Serum or Plasma</td>
                        <td>24.8</td>
                        <td>22 - 29</td>
                        <td/>
                        <td>mmol/L</td>
                     </tr>
                  </table>
               </div>
            </text>
            <status value="final"/>
            <category>
               <coding>
                  <system value="http://terminology.hl7.org/CodeSystem/observation-category"/>
                  <code value="laboratory"/>
               </coding>
            </category>
            <code>
               <coding>
                  <system value="http://loinc.org"/>
                  <code value="2028-9"/>
                  <display value="Carbon dioxide, total [Moles/volume] in Serum or Plasma"/>
               </coding>
               <text value="Carbon dioxide, total [Moles/volume] in Serum or Plasma"/>
            </code>
            <subject>
               <reference value="urn:uuid:b92ade45-aa65-4fa8-a29c-33838f739f5b"/>
               <display value="Ludmila Vávrová"/>
            </subject>
            <effectiveDateTime value="2016-11-10T04:05:03Z"/>
            <performer>
               <display value="The Central European Lab"/>
            </performer>
            <valueQuantity>
               <value value="24.8"/>
               <unit value="mmol/L"/>
               <system value="http://unitsofmeasure.org"/>
               <code value="mmol/L"/>
            </valueQuantity>
            <specimen>
               <reference value="urn:uuid:d7633821-2722-46bb-bad3-4ea83c15caab"/>
            </specimen>
            <referenceRange>
               <low>
                  <value value="22"/>
                  <system value="http://unitsofmeasure.org"/>
                  <code value="mmol/L"/>
               </low>
            </referenceRange>
            <referenceRange>
               <high>
                  <value value="29"/>
                  <system value="http://unitsofmeasure.org"/>
                  <code value="mmol/L"/>
               </high>
            </referenceRange>
         </Observation>
      </resource>
   </entry>
   <entry>
      <fullUrl value="urn:uuid:16a261e3-3f86-430e-bb9c-9a88a831b67c"/>
      <resource>
         <Observation>
            <id value="16a261e3-3f86-430e-bb9c-9a88a831b67c"/>
            <meta>
               <profile value="http://hl7.eu/fhir/laboratory/StructureDefinition/Observation-resultslab-eu-lab"/>
            </meta>
            <text>
               <status value="generated"/>
               <div xmlns="http://www.w3.org/1999/xhtml">
                  <table class="hl7__eu__lab__report">
                     <tr>
                        <th>Test</th>
                        <th>10-Nov-2016</th>
                        <th>Reference Range</th>
                        <th>Unit</th>
                     </tr>
                     <tr>
                        <td>Protein [Mass/volume] in Serum or Plasma</td>
                        <td>6.6</td>
                        <td>6.6 - 8.3</td>
                        <td/>
                        <td>g/dL</td>
                     </tr>
                  </table>
               </div>
            </text>
            <status value="final"/>
            <category>
               <coding>
                  <system value="http://terminology.hl7.org/CodeSystem/observation-category"/>
                  <code value="laboratory"/>
               </coding>
            </category>
            <code>
               <coding>
                  <system value="http://loinc.org"/>
                  <code value="2885-2"/>
                  <display value="Protein [Mass/volume] in Serum or Plasma"/>
               </coding>
               <text value="Protein [Mass/volume] in Serum or Plasma"/>
            </code>
            <subject>
               <reference value="urn:uuid:b92ade45-aa65-4fa8-a29c-33838f739f5b"/>
               <display value="Ludmila Vávrová"/>
            </subject>
            <effectiveDateTime value="2016-11-10T04:05:03Z"/>
            <performer>
               <display value="The Central European Lab"/>
            </performer>
            <valueQuantity>
               <value value="6.6"/>
               <unit value="g/dL"/>
               <system value="http://unitsofmeasure.org"/>
               <code value="g/dL"/>
            </valueQuantity>
            <specimen>
               <reference value="urn:uuid:d7633821-2722-46bb-bad3-4ea83c15caab"/>
            </specimen>
            <referenceRange>
               <low>
                  <value value="6.6"/>
                  <system value="http://unitsofmeasure.org"/>
                  <code value="g/dL"/>
               </low>
            </referenceRange>
            <referenceRange>
               <high>
                  <value value="8.3"/>
                  <system value="http://unitsofmeasure.org"/>
                  <code value="g/dL"/>
               </high>
            </referenceRange>
         </Observation>
      </resource>
   </entry>
   <entry>
      <fullUrl value="urn:uuid:41771bc8-6ede-4d04-bc77-16aeff8c4b18"/>
      <resource>
         <Observation>
            <id value="41771bc8-6ede-4d04-bc77-16aeff8c4b18"/>
            <meta>
               <profile value="http://hl7.eu/fhir/laboratory/StructureDefinition/Observation-resultslab-eu-lab"/>
            </meta>
            <text>
               <status value="generated"/>
               <div xmlns="http://www.w3.org/1999/xhtml">
                  <table class="hl7__eu__lab__report">
                     <tr>
                        <th>Test</th>
                        <th>10-Nov-2016</th>
                        <th>Reference Range</th>
                        <th>Unit</th>
                     </tr>
                     <tr>
                        <td>Albumin [Mass/volume] in Serum or Plasma</td>
                        <td>4.1</td>
                        <td>3.5 - 5.5</td>
                        <td/>
                        <td>g/dL</td>
                     </tr>
                  </table>
               </div>
            </text>
            <status value="final"/>
            <category>
               <coding>
                  <system value="http://terminology.hl7.org/CodeSystem/observation-category"/>
                  <code value="laboratory"/>
               </coding>
            </category>
            <code>
               <coding>
                  <system value="http://loinc.org"/>
                  <code value="1751-7"/>
                  <display value="Albumin [Mass/volume] in Serum or Plasma"/>
               </coding>
               <text value="Albumin [Mass/volume] in Serum or Plasma"/>
            </code>
            <subject>
               <reference value="urn:uuid:b92ade45-aa65-4fa8-a29c-33838f739f5b"/>
               <display value="Ludmila Vávrová"/>
            </subject>
            <effectiveDateTime value="2016-11-10T04:05:03Z"/>
            <performer>
               <display value="The Central European Lab"/>
            </performer>
            <valueQuantity>
               <value value="4.1"/>
               <unit value="g/dL"/>
               <system value="http://unitsofmeasure.org"/>
               <code value="g/dL"/>
            </valueQuantity>
            <specimen>
               <reference value="urn:uuid:d7633821-2722-46bb-bad3-4ea83c15caab"/>
            </specimen>
            <referenceRange>
               <low>
                  <value value="3.5"/>
                  <system value="http://unitsofmeasure.org"/>
                  <code value="g/dL"/>
               </low>
            </referenceRange>
            <referenceRange>
               <high>
                  <value value="5.5"/>
                  <system value="http://unitsofmeasure.org"/>
                  <code value="g/dL"/>
               </high>
            </referenceRange>
         </Observation>
      </resource>
   </entry>
   <entry>
      <fullUrl value="urn:uuid:64af4c62-20f5-4d1e-9b34-9e4b4498754a"/>
      <resource>
         <Observation>
            <id value="64af4c62-20f5-4d1e-9b34-9e4b4498754a"/>
            <meta>
               <profile value="http://hl7.eu/fhir/laboratory/StructureDefinition/Observation-resultslab-eu-lab"/>
            </meta>
            <text>
               <status value="generated"/>
               <div xmlns="http://www.w3.org/1999/xhtml">
                  <table class="hl7__eu__lab__report">
                     <tr>
                        <th>Test</th>
                        <th>10-Nov-2016</th>
                        <th>Reference Range</th>
                        <th>Unit</th>
                     </tr>
                     <tr>
                        <td>Bilirubin.total [Mass/volume] in Serum or Plasma</td>
                        <td>11.6</td>
                        <td>0.3 - 1.2</td>
                        <td>H</td>
                        <td>mg/dL</td>
                     </tr>
                  </table>
               </div>
            </text>
            <status value="final"/>
            <category>
               <coding>
                  <system value="http://terminology.hl7.org/CodeSystem/observation-category"/>
                  <code value="laboratory"/>
               </coding>
            </category>
            <code>
               <coding>
                  <system value="http://loinc.org"/>
                  <code value="1975-2"/>
                  <display value="Bilirubin.total [Mass/volume] in Serum or Plasma"/>
               </coding>
               <text value="Bilirubin.total [Mass/volume] in Serum or Plasma"/>
            </code>
            <subject>
               <reference value="urn:uuid:b92ade45-aa65-4fa8-a29c-33838f739f5b"/>
               <display value="Ludmila Vávrová"/>
            </subject>
            <effectiveDateTime value="2016-11-10T04:05:03Z"/>
            <performer>
               <display value="The Central European Lab"/>
            </performer>
            <valueQuantity>
               <value value="11.6"/>
               <unit value="mg/dL"/>
               <system value="http://unitsofmeasure.org"/>
               <code value="mg/dL"/>
            </valueQuantity>
            <interpretation>
               <coding>
                  <system value="http://terminology.hl7.org/CodeSystem/v3-ObservationInterpretation"/>
                  <code value="H"/>
                  <display value="High"/>
               </coding>
            </interpretation>
            <specimen>
               <reference value="urn:uuid:d7633821-2722-46bb-bad3-4ea83c15caab"/>
            </specimen>
            <referenceRange>
               <low>
                  <value value="0.3"/>
                  <system value="http://unitsofmeasure.org"/>
                  <code value="mg/dL"/>
               </low>
            </referenceRange>
            <referenceRange>
               <high>
                  <value value="1.2"/>
                  <system value="http://unitsofmeasure.org"/>
                  <code value="mg/dL"/>
               </high>
            </referenceRange>
         </Observation>
      </resource>
   </entry>
   <entry>
      <fullUrl value="urn:uuid:41b97f8d-518b-4eff-97a9-d0a157e652b2"/>
      <resource>
         <Observation>
            <id value="41b97f8d-518b-4eff-97a9-d0a157e652b2"/>
            <meta>
               <profile value="http://hl7.eu/fhir/laboratory/StructureDefinition/Observation-resultslab-eu-lab"/>
            </meta>
            <text>
               <status value="generated"/>
               <div xmlns="http://www.w3.org/1999/xhtml">
                  <table class="hl7__eu__lab__report">
                     <tr>
                        <th>Test</th>
                        <th>10-Nov-2016</th>
                        <th>Reference Range</th>
                        <th>Unit</th>
                     </tr>
                     <tr>
                        <td>Alkaline phosphatase [Enzymatic activity/volume] in Serum or Plasma</td>
                        <td>75.0</td>
                        <td>40 - 130</td>
                        <td/>
                        <td>U/L</td>
                     </tr>
                  </table>
               </div>
            </text>
            <status value="final"/>
            <category>
               <coding>
                  <system value="http://terminology.hl7.org/CodeSystem/observation-category"/>
                  <code value="laboratory"/>
               </coding>
            </category>
            <code>
               <coding>
                  <system value="http://loinc.org"/>
                  <code value="6768-6"/>
                  <display value="Alkaline phosphatase [Enzymatic activity/volume] in Serum or Plasma"/>
               </coding>
               <text value="Alkaline phosphatase [Enzymatic activity/volume] in Serum or Plasma"/>
            </code>
            <subject>
               <reference value="urn:uuid:b92ade45-aa65-4fa8-a29c-33838f739f5b"/>
               <display value="Ludmila Vávrová"/>
            </subject>
            <effectiveDateTime value="2016-11-10T04:05:03Z"/>
            <performer>
               <display value="The Central European Lab"/>
            </performer>
            <valueQuantity>
               <value value="75"/>
               <unit value="U/L"/>
               <system value="http://unitsofmeasure.org"/>
               <code value="U/L"/>
            </valueQuantity>
            <specimen>
               <reference value="urn:uuid:d7633821-2722-46bb-bad3-4ea83c15caab"/>
            </specimen>
            <referenceRange>
               <low>
                  <value value="40"/>
                  <system value="http://unitsofmeasure.org"/>
                  <code value="U/L"/>
               </low>
            </referenceRange>
            <referenceRange>
               <high>
                  <value value="130"/>
                  <system value="http://unitsofmeasure.org"/>
                  <code value="U/L"/>
               </high>
            </referenceRange>
         </Observation>
      </resource>
   </entry>
   <entry>
      <fullUrl value="urn:uuid:dbcea431-82ae-4671-aa90-b77bf397ef62"/>
      <resource>
         <Observation>
            <id value="dbcea431-82ae-4671-aa90-b77bf397ef62"/>
            <meta>
               <profile value="http://hl7.eu/fhir/laboratory/StructureDefinition/Observation-resultslab-eu-lab"/>
            </meta>
            <text>
               <status value="generated"/>
               <div xmlns="http://www.w3.org/1999/xhtml">
                  <table class="hl7__eu__lab__report">
                     <tr>
                        <th>Test</th>
                        <th>10-Nov-2016</th>
                        <th>Reference Range</th>
                        <th>Unit</th>
                     </tr>
                     <tr>
                        <td>Alanine aminotransferase [Enzymatic activity/volume] in Serum or Plasma</td>
                        <td>34.2</td>
                        <td>7 - 55</td>
                        <td/>
                        <td>U/L</td>
                     </tr>
                  </table>
               </div>
            </text>
            <status value="final"/>
            <category>
               <coding>
                  <system value="http://terminology.hl7.org/CodeSystem/observation-category"/>
                  <code value="laboratory"/>
               </coding>
            </category>
            <code>
               <coding>
                  <system value="http://loinc.org"/>
                  <code value="1742-6"/>
                  <display value="Alanine aminotransferase [Enzymatic activity/volume] in Serum or Plasma"/>
               </coding>
               <text value="Alanine aminotransferase [Enzymatic activity/volume] in Serum or Plasma"/>
            </code>
            <subject>
               <reference value="urn:uuid:b92ade45-aa65-4fa8-a29c-33838f739f5b"/>
               <display value="Ludmila Vávrová"/>
            </subject>
            <effectiveDateTime value="2016-11-10T04:05:03Z"/>
            <performer>
               <display value="The Central European Lab"/>
            </performer>
            <valueQuantity>
               <value value="34.2"/>
               <unit value="U/L"/>
               <system value="http://unitsofmeasure.org"/>
               <code value="U/L"/>
            </valueQuantity>
            <specimen>
               <reference value="urn:uuid:d7633821-2722-46bb-bad3-4ea83c15caab"/>
            </specimen>
            <referenceRange>
               <low>
                  <value value="7"/>
                  <system value="http://unitsofmeasure.org"/>
                  <code value="U/L"/>
               </low>
            </referenceRange>
            <referenceRange>
               <high>
                  <value value="55"/>
                  <system value="http://unitsofmeasure.org"/>
                  <code value="U/L"/>
               </high>
            </referenceRange>
         </Observation>
      </resource>
   </entry>
   <entry>
      <fullUrl value="urn:uuid:bceea446-3c8f-4b7b-8304-d318730e7c56"/>
      <resource>
         <Observation>
            <id value="bceea446-3c8f-4b7b-8304-d318730e7c56"/>
            <meta>
               <profile value="http://hl7.eu/fhir/laboratory/StructureDefinition/Observation-resultslab-eu-lab"/>
            </meta>
            <text>
               <status value="generated"/>
               <div xmlns="http://www.w3.org/1999/xhtml">
                  <table class="hl7__eu__lab__report">
                     <tr>
                        <th>Test</th>
                        <th>10-Nov-2016</th>
                        <th>Reference Range</th>
                        <th>Unit</th>
                     </tr>
                     <tr>
                        <td>Aspartate aminotransferase [Enzymatic activity/volume] in Serum or Plasma</td>
                        <td>1.9</td>
                        <td>10 - 40</td>
                        <td>L</td>
                        <td>U/L</td>
                     </tr>
                  </table>
               </div>
            </text>
            <status value="final"/>
            <category>
               <coding>
                  <system value="http://terminology.hl7.org/CodeSystem/observation-category"/>
                  <code value="laboratory"/>
               </coding>
            </category>
            <code>
               <coding>
                  <system value="http://loinc.org"/>
                  <code value="1920-8"/>
                  <display value="Aspartate aminotransferase [Enzymatic activity/volume] in Serum or Plasma"/>
               </coding>
               <text value="Aspartate aminotransferase [Enzymatic activity/volume] in Serum or Plasma"/>
            </code>
            <subject>
               <reference value="urn:uuid:b92ade45-aa65-4fa8-a29c-33838f739f5b"/>
               <display value="Ludmila Vávrová"/>
            </subject>
            <effectiveDateTime value="2016-11-10T04:05:03Z"/>
            <performer>
               <display value="The Central European Lab"/>
            </performer>
            <valueQuantity>
               <value value="1.9"/>
               <unit value="U/L"/>
               <system value="http://unitsofmeasure.org"/>
               <code value="U/L"/>
            </valueQuantity>
            <interpretation>
               <coding>
                  <system value="http://terminology.hl7.org/CodeSystem/v3-ObservationInterpretation"/>
                  <code value="L"/>
                  <display value="Low"/>
               </coding>
            </interpretation>
            <specimen>
               <reference value="urn:uuid:d7633821-2722-46bb-bad3-4ea83c15caab"/>
            </specimen>
            <referenceRange>
               <low>
                  <value value="10"/>
                  <system value="http://unitsofmeasure.org"/>
                  <code value="U/L"/>
               </low>
            </referenceRange>
            <referenceRange>
               <high>
                  <value value="40"/>
                  <system value="http://unitsofmeasure.org"/>
                  <code value="U/L"/>
               </high>
            </referenceRange>
         </Observation>
      </resource>
   </entry>
   <entry>
      <fullUrl value="urn:uuid:5847eefd-9f87-4afe-ace7-d9526a9e93f0"/>
      <resource>
         <Observation>
            <id value="5847eefd-9f87-4afe-ace7-d9526a9e93f0"/>
            <meta>
               <profile value="http://hl7.eu/fhir/laboratory/StructureDefinition/Observation-resultslab-eu-lab"/>
            </meta>
            <text>
               <status value="generated"/>
               <div xmlns="http://www.w3.org/1999/xhtml">
                  <table class="hl7__eu__lab__report">
                     <tr>
                        <th>Test</th>
                        <th>10-Nov-2016</th>
                        <th>Reference Range</th>
                        <th>Unit</th>
                     </tr>
                     <tr>
                        <td>Magnesium [Mass/volume] in Serum or Plasma</td>
                        <td>1.8</td>
                        <td>1.8 - 2.3</td>
                        <td/>
                        <td>mg/dL</td>
                     </tr>
                  </table>
               </div>
            </text>
            <status value="final"/>
            <category>
               <coding>
                  <system value="http://terminology.hl7.org/CodeSystem/observation-category"/>
                  <code value="laboratory"/>
               </coding>
            </category>
            <code>
               <coding>
                  <system value="http://loinc.org"/>
                  <code value="19123-9"/>
                  <display value="Magnesium [Mass/volume] in Serum or Plasma"/>
               </coding>
               <text value="Magnesium [Mass/volume] in Serum or Plasma"/>
            </code>
            <subject>
               <reference value="urn:uuid:b92ade45-aa65-4fa8-a29c-33838f739f5b"/>
               <display value="Ludmila Vávrová"/>
            </subject>
            <effectiveDateTime value="2016-11-10T04:05:03Z"/>
            <performer>
               <display value="The Central European Lab"/>
            </performer>
            <valueQuantity>
               <value value="1.8"/>
               <unit value="mg/dL"/>
               <system value="http://unitsofmeasure.org"/>
               <code value="mg/dL"/>
            </valueQuantity>
            <specimen>
               <reference value="urn:uuid:d7633821-2722-46bb-bad3-4ea83c15caab"/>
            </specimen>
            <referenceRange>
               <low>
                  <value value="1.8"/>
                  <system value="http://unitsofmeasure.org"/>
                  <code value="mg/dL"/>
               </low>
            </referenceRange>
            <referenceRange>
               <high>
                  <value value="2.3"/>
                  <system value="http://unitsofmeasure.org"/>
                  <code value="mg/dL"/>
               </high>
            </referenceRange>
         </Observation>
      </resource>
   </entry>
   <entry>
      <fullUrl value="urn:uuid:a44647c3-086e-43eb-ab47-1320a16a50d2"/>
      <resource>
         <Observation>
            <id value="a44647c3-086e-43eb-ab47-1320a16a50d2"/>
            <meta>
               <profile value="http://hl7.eu/fhir/laboratory/StructureDefinition/Observation-resultslab-eu-lab"/>
            </meta>
            <text>
               <status value="generated"/>
               <div xmlns="http://www.w3.org/1999/xhtml">
                  <table class="hl7__eu__lab__report">
                     <tr>
                        <th>Test</th>
                        <th>10-Nov-2016</th>
                        <th>Reference Range</th>
                        <th>Unit</th>
                     </tr>
                     <tr>
                        <td>Phosphate [Mass/volume] in Serum or Plasma</td>
                        <td>3.1</td>
                        <td>2.5 - 4.5</td>
                        <td/>
                        <td>mg/dL</td>
                     </tr>
                  </table>
               </div>
            </text>
            <status value="final"/>
            <category>
               <coding>
                  <system value="http://terminology.hl7.org/CodeSystem/observation-category"/>
                  <code value="laboratory"/>
               </coding>
            </category>
            <code>
               <coding>
                  <system value="http://loinc.org"/>
                  <code value="2777-1"/>
                  <display value="Phosphate [Mass/volume] in Serum or Plasma"/>
               </coding>
               <text value="Phosphate [Mass/volume] in Serum or Plasma"/>
            </code>
            <subject>
               <reference value="urn:uuid:b92ade45-aa65-4fa8-a29c-33838f739f5b"/>
               <display value="Ludmila Vávrová"/>
            </subject>
            <effectiveDateTime value="2016-11-10T04:05:03Z"/>
            <performer>
               <display value="The Central European Lab"/>
            </performer>
            <valueQuantity>
               <value value="3.1"/>
               <unit value="mg/dL"/>
               <system value="http://unitsofmeasure.org"/>
               <code value="mg/dL"/>
            </valueQuantity>
            <specimen>
               <reference value="urn:uuid:d7633821-2722-46bb-bad3-4ea83c15caab"/>
            </specimen>
            <referenceRange>
               <low>
                  <value value="2.5"/>
                  <system value="http://unitsofmeasure.org"/>
                  <code value="mg/dL"/>
               </low>
            </referenceRange>
            <referenceRange>
               <high>
                  <value value="4.5"/>
                  <system value="http://unitsofmeasure.org"/>
                  <code value="mg/dL"/>
               </high>
            </referenceRange>
         </Observation>
      </resource>
   </entry>
   <entry>
      <fullUrl value="urn:uuid:b7a7009b-fb41-4274-8487-bdf60898b7e2"/>
      <resource>
         <Observation>
            <id value="b7a7009b-fb41-4274-8487-bdf60898b7e2"/>
            <meta>
               <profile value="http://hl7.eu/fhir/laboratory/StructureDefinition/Observation-resultslab-eu-lab"/>
            </meta>
            <text>
               <status value="generated"/>
               <div xmlns="http://www.w3.org/1999/xhtml">
                  <table class="hl7__eu__lab__report">
                     <tr>
                        <th>Test</th>
                        <th>10-Nov-2016</th>
                        <th>Reference Range</th>
                        <th>Unit</th>
                     </tr>
                     <tr>
                        <td>Prothrombin time (PT)</td>
                        <td>11.7</td>
                        <td>11 - 15</td>
                        <td/>
                        <td>s</td>
                     </tr>
                  </table>
               </div>
            </text>
            <status value="final"/>
            <category>
               <coding>
                  <system value="http://terminology.hl7.org/CodeSystem/observation-category"/>
                  <code value="laboratory"/>
               </coding>
            </category>
            <code>
               <coding>
                  <system value="http://loinc.org"/>
                  <code value="5902-2"/>
                  <display value="Prothrombin time (PT)"/>
               </coding>
               <text value="Prothrombin time (PT)"/>
            </code>
            <subject>
               <reference value="urn:uuid:b92ade45-aa65-4fa8-a29c-33838f739f5b"/>
               <display value="Ludmila Vávrová"/>
            </subject>
            <effectiveDateTime value="2016-11-10T04:05:03Z"/>
            <performer>
               <display value="The Central European Lab"/>
            </performer>
            <valueQuantity>
               <value value="11.7"/>
               <unit value="s"/>
               <system value="http://unitsofmeasure.org"/>
               <code value="s"/>
            </valueQuantity>
            <specimen>
               <reference value="urn:uuid:07a7ca16-0acf-4bad-abce-8b712e357a06"/>
            </specimen>
            <referenceRange>
               <low>
                  <value value="11"/>
                  <system value="http://unitsofmeasure.org"/>
                  <code value="s"/>
               </low>
            </referenceRange>
            <referenceRange>
               <high>
                  <value value="15"/>
                  <system value="http://unitsofmeasure.org"/>
                  <code value="s"/>
               </high>
            </referenceRange>
         </Observation>
      </resource>
   </entry>
   <entry>
      <fullUrl value="urn:uuid:dc7ca3b5-628f-41d5-b29a-8b22cd7e3945"/>
      <resource>
         <Observation>
            <id value="dc7ca3b5-628f-41d5-b29a-8b22cd7e3945"/>
            <meta>
               <profile value="http://hl7.eu/fhir/laboratory/StructureDefinition/Observation-resultslab-eu-lab"/>
            </meta>
            <text>
               <status value="generated"/>
               <div xmlns="http://www.w3.org/1999/xhtml">
                  <table class="hl7__eu__lab__report">
                     <tr>
                        <th>Test</th>
                        <th>10-Nov-2016</th>
                        <th>Reference Range</th>
                        <th>Unit</th>
                     </tr>
                     <tr>
                        <td>INR in Platelet poor plasma by Coagulation assay</td>
                        <td>2.1</td>
                        <td>0.9 - 3</td>
                        <td/>
                        <td>{INR}</td>
                     </tr>
                  </table>
               </div>
            </text>
            <status value="final"/>
            <category>
               <coding>
                  <system value="http://terminology.hl7.org/CodeSystem/observation-category"/>
                  <code value="laboratory"/>
               </coding>
            </category>
            <code>
               <coding>
                  <system value="http://loinc.org"/>
                  <code value="6301-6"/>
                  <display value="INR in Platelet poor plasma by Coagulation assay"/>
               </coding>
               <text value="INR in Platelet poor plasma by Coagulation assay"/>
            </code>
            <subject>
               <reference value="urn:uuid:b92ade45-aa65-4fa8-a29c-33838f739f5b"/>
               <display value="Ludmila Vávrová"/>
            </subject>
            <effectiveDateTime value="2016-11-10T04:05:03Z"/>
            <performer>
               <display value="The Central European Lab"/>
            </performer>
            <valueQuantity>
               <value value="2.1"/>
               <unit value="{INR}"/>
               <system value="http://unitsofmeasure.org"/>
               <code value="{INR}"/>
            </valueQuantity>
            <specimen>
               <reference value="urn:uuid:07a7ca16-0acf-4bad-abce-8b712e357a06"/>
            </specimen>
            <referenceRange>
               <low>
                  <value value="0.9"/>
                  <system value="http://unitsofmeasure.org"/>
                  <code value="INR"/>
               </low>
            </referenceRange>
            <referenceRange>
               <high>
                  <value value="3"/>
                  <system value="http://unitsofmeasure.org"/>
                  <code value="INR"/>
               </high>
            </referenceRange>
         </Observation>
      </resource>
   </entry>
   <entry>
      <fullUrl value="urn:uuid:42b69227-8dc5-482c-808e-7f0e76f47cc8"/>
      <resource>
         <Observation>
            <id value="42b69227-8dc5-482c-808e-7f0e76f47cc8"/>
            <meta>
               <profile value="http://hl7.eu/fhir/laboratory/StructureDefinition/Observation-resultslab-eu-lab"/>
            </meta>
            <text>
               <status value="generated"/>
               <div xmlns="http://www.w3.org/1999/xhtml">
                  <table class="hl7__eu__lab__report">
                     <tr>
                        <th>Test</th>
                        <th>10-Nov-2016</th>
                        <th>Reference Range</th>
                        <th>Unit</th>
                     </tr>
                     <tr>
                        <td>aPTT in Blood by Coagulation assay</td>
                        <td>36.5</td>
                        <td>25 - 40</td>
                        <td/>
                        <td>s</td>
                     </tr>
                  </table>
               </div>
            </text>
            <status value="final"/>
            <category>
               <coding>
                  <system value="http://terminology.hl7.org/CodeSystem/observation-category"/>
                  <code value="laboratory"/>
               </coding>
            </category>
            <code>
               <coding>
                  <system value="http://loinc.org"/>
                  <code value="3173-2"/>
                  <display value="aPTT in Blood by Coagulation assay"/>
               </coding>
               <text value="aPTT in Blood by Coagulation assay"/>
            </code>
            <subject>
               <reference value="urn:uuid:b92ade45-aa65-4fa8-a29c-33838f739f5b"/>
               <display value="Ludmila Vávrová"/>
            </subject>
            <effectiveDateTime value="2016-11-10T04:05:03Z"/>
            <performer>
               <display value="The Central European Lab"/>
            </performer>
            <valueQuantity>
               <value value="36.5"/>
               <unit value="s"/>
               <system value="http://unitsofmeasure.org"/>
               <code value="s"/>
            </valueQuantity>
            <specimen>
               <reference value="urn:uuid:da2926f1-b409-4961-b270-f73c38d94986"/>
            </specimen>
            <referenceRange>
               <low>
                  <value value="25"/>
                  <system value="http://unitsofmeasure.org"/>
                  <code value="seconds"/>
               </low>
            </referenceRange>
            <referenceRange>
               <high>
                  <value value="40"/>
                  <system value="http://unitsofmeasure.org"/>
                  <code value="seconds"/>
               </high>
            </referenceRange>
         </Observation>
      </resource>
   </entry>
   <entry>
      <fullUrl value="urn:uuid:412074d0-10aa-4184-a747-271b1e76a666"/>
      <resource>
         <Observation>
            <id value="412074d0-10aa-4184-a747-271b1e76a666"/>
            <meta>
               <profile value="http://hl7.eu/fhir/laboratory/StructureDefinition/Observation-resultslab-eu-lab"/>
            </meta>
            <text>
               <status value="generated"/>
               <div xmlns="http://www.w3.org/1999/xhtml">
                  <table class="hl7__eu__lab__report">
                     <tr>
                        <th>Test</th>
                        <th>10-Nov-2016</th>
                        <th>Reference Range</th>
                        <th>Unit</th>
                     </tr>
                     <tr>
                        <td>pH of Arterial blood</td>
                        <td>6.8</td>
                        <td>7.35 - 7.45</td>
                        <td>L</td>
                        <td>[pH]</td>
                     </tr>
                  </table>
               </div>
            </text>
            <status value="final"/>
            <category>
               <coding>
                  <system value="http://terminology.hl7.org/CodeSystem/observation-category"/>
                  <code value="laboratory"/>
               </coding>
            </category>
            <code>
               <coding>
                  <system value="http://loinc.org"/>
                  <code value="2744-1"/>
                  <display value="pH of Arterial blood"/>
               </coding>
               <text value="pH of Arterial blood"/>
            </code>
            <subject>
               <reference value="urn:uuid:b92ade45-aa65-4fa8-a29c-33838f739f5b"/>
               <display value="Ludmila Vávrová"/>
            </subject>
            <effectiveDateTime value="2016-11-10T04:05:03Z"/>
            <performer>
               <display value="The Central European Lab"/>
            </performer>
            <valueQuantity>
               <value value="6.8"/>
               <unit value="[pH]"/>
               <system value="http://unitsofmeasure.org"/>
               <code value="[pH]"/>
            </valueQuantity>
            <interpretation>
               <coding>
                  <system value="http://terminology.hl7.org/CodeSystem/v3-ObservationInterpretation"/>
                  <code value="L"/>
                  <display value="Low"/>
               </coding>
            </interpretation>
            <specimen>
               <reference value="urn:uuid:acc589cf-4a7a-48ac-b71b-0b6ed8c722f4"/>
            </specimen>
            <referenceRange>
               <low>
                  <value value="7.35"/>
                  <system value="http://unitsofmeasure.org"/>
                  <code value="pH"/>
               </low>
            </referenceRange>
            <referenceRange>
               <high>
                  <value value="7.45"/>
                  <system value="http://unitsofmeasure.org"/>
                  <code value="pH"/>
               </high>
            </referenceRange>
         </Observation>
      </resource>
   </entry>
   <entry>
      <fullUrl value="urn:uuid:d6cc186d-bee8-44c0-869d-deece78f429f"/>
      <resource>
         <Observation>
            <id value="d6cc186d-bee8-44c0-869d-deece78f429f"/>
            <meta>
               <profile value="http://hl7.eu/fhir/laboratory/StructureDefinition/Observation-resultslab-eu-lab"/>
            </meta>
            <text>
               <status value="generated"/>
               <div xmlns="http://www.w3.org/1999/xhtml">
                  <table class="hl7__eu__lab__report">
                     <tr>
                        <th>Test</th>
                        <th>10-Nov-2016</th>
                        <th>Reference Range</th>
                        <th>Unit</th>
                     </tr>
                     <tr>
                        <td>Carbon dioxide [Partial pressure] in Arterial blood</td>
                        <td>39.6</td>
                        <td>35 - 45</td>
                        <td/>
                        <td>mm[Hg]</td>
                     </tr>
                  </table>
               </div>
            </text>
            <status value="final"/>
            <category>
               <coding>
                  <system value="http://terminology.hl7.org/CodeSystem/observation-category"/>
                  <code value="laboratory"/>
               </coding>
            </category>
            <code>
               <coding>
                  <system value="http://loinc.org"/>
                  <code value="2019-8"/>
                  <display value="Carbon dioxide [Partial pressure] in Arterial blood"/>
               </coding>
               <text value="Carbon dioxide [Partial pressure] in Arterial blood"/>
            </code>
            <subject>
               <reference value="urn:uuid:b92ade45-aa65-4fa8-a29c-33838f739f5b"/>
               <display value="Ludmila Vávrová"/>
            </subject>
            <effectiveDateTime value="2016-11-10T04:05:03Z"/>
            <performer>
               <display value="The Central European Lab"/>
            </performer>
            <valueQuantity>
               <value value="39.6"/>
               <unit value="mm[Hg]"/>
               <system value="http://unitsofmeasure.org"/>
               <code value="mm[Hg]"/>
            </valueQuantity>
            <specimen>
               <reference value="urn:uuid:acc589cf-4a7a-48ac-b71b-0b6ed8c722f4"/>
            </specimen>
            <referenceRange>
               <low>
                  <value value="35"/>
                  <system value="http://unitsofmeasure.org"/>
                  <code value="mm[Hg]"/>
               </low>
            </referenceRange>
            <referenceRange>
               <high>
                  <value value="45"/>
                  <system value="http://unitsofmeasure.org"/>
                  <code value="mm[Hg]"/>
               </high>
            </referenceRange>
         </Observation>
      </resource>
   </entry>
   <entry>
      <fullUrl value="urn:uuid:c23d154d-c8d6-41d0-ad9d-cfafa5ccb3dc"/>
      <resource>
         <Observation>
            <id value="c23d154d-c8d6-41d0-ad9d-cfafa5ccb3dc"/>
            <meta>
               <profile value="http://hl7.eu/fhir/laboratory/StructureDefinition/Observation-resultslab-eu-lab"/>
            </meta>
            <text>
               <status value="generated"/>
               <div xmlns="http://www.w3.org/1999/xhtml">
                  <table class="hl7__eu__lab__report">
                     <tr>
                        <th>Test</th>
                        <th>10-Nov-2016</th>
                        <th>Reference Range</th>
                        <th>Unit</th>
                     </tr>
                     <tr>
                        <td>Oxygen [Partial pressure] in Arterial blood</td>
                        <td>88.1</td>
                        <td>75 - 100</td>
                        <td/>
                        <td>mm[Hg]</td>
                     </tr>
                  </table>
               </div>
            </text>
            <status value="final"/>
            <category>
               <coding>
                  <system value="http://terminology.hl7.org/CodeSystem/observation-category"/>
                  <code value="laboratory"/>
               </coding>
            </category>
            <code>
               <coding>
                  <system value="http://loinc.org"/>
                  <code value="2703-7"/>
                  <display value="Oxygen [Partial pressure] in Arterial blood"/>
               </coding>
               <text value="Oxygen [Partial pressure] in Arterial blood"/>
            </code>
            <subject>
               <reference value="urn:uuid:b92ade45-aa65-4fa8-a29c-33838f739f5b"/>
               <display value="Ludmila Vávrová"/>
            </subject>
            <effectiveDateTime value="2016-11-10T04:05:03Z"/>
            <performer>
               <display value="The Central European Lab"/>
            </performer>
            <valueQuantity>
               <value value="88.1"/>
               <unit value="mm[Hg]"/>
               <system value="http://unitsofmeasure.org"/>
               <code value="mm[Hg]"/>
            </valueQuantity>
            <specimen>
               <reference value="urn:uuid:acc589cf-4a7a-48ac-b71b-0b6ed8c722f4"/>
            </specimen>
            <referenceRange>
               <low>
                  <value value="75"/>
                  <system value="http://unitsofmeasure.org"/>
                  <code value="mm[Hg]"/>
               </low>
            </referenceRange>
            <referenceRange>
               <high>
                  <value value="100"/>
                  <system value="http://unitsofmeasure.org"/>
                  <code value="mm[Hg]"/>
               </high>
            </referenceRange>
         </Observation>
      </resource>
   </entry>
   <entry>
      <fullUrl value="urn:uuid:273d500f-b305-4f5b-85e8-8a732ed0bae6"/>
      <resource>
         <Observation>
            <id value="273d500f-b305-4f5b-85e8-8a732ed0bae6"/>
            <meta>
               <profile value="http://hl7.eu/fhir/laboratory/StructureDefinition/Observation-resultslab-eu-lab"/>
            </meta>
            <text>
               <status value="generated"/>
               <div xmlns="http://www.w3.org/1999/xhtml">
                  <table class="hl7__eu__lab__report">
                     <tr>
                        <th>Test</th>
                        <th>10-Nov-2016</th>
                        <th>Reference Range</th>
                        <th>Unit</th>
                     </tr>
                     <tr>
                        <td>Bicarbonate [Moles/volume] in Arterial blood</td>
                        <td>22.5</td>
                        <td>22 - 32</td>
                        <td/>
                        <td>mmol/L</td>
                     </tr>
                  </table>
               </div>
            </text>
            <status value="final"/>
            <category>
               <coding>
                  <system value="http://terminology.hl7.org/CodeSystem/observation-category"/>
                  <code value="laboratory"/>
               </coding>
            </category>
            <code>
               <coding>
                  <system value="http://loinc.org"/>
                  <code value="1960-4"/>
                  <display value="Bicarbonate [Moles/volume] in Arterial blood"/>
               </coding>
               <text value="Bicarbonate [Moles/volume] in Arterial blood"/>
            </code>
            <subject>
               <reference value="urn:uuid:b92ade45-aa65-4fa8-a29c-33838f739f5b"/>
               <display value="Ludmila Vávrová"/>
            </subject>
            <effectiveDateTime value="2016-11-10T04:05:03Z"/>
            <performer>
               <display value="The Central European Lab"/>
            </performer>
            <valueQuantity>
               <value value="22.5"/>
               <unit value="mmol/L"/>
               <system value="http://unitsofmeasure.org"/>
               <code value="mmol/L"/>
            </valueQuantity>
            <specimen>
               <reference value="urn:uuid:acc589cf-4a7a-48ac-b71b-0b6ed8c722f4"/>
            </specimen>
            <referenceRange>
               <low>
                  <value value="22"/>
                  <system value="http://unitsofmeasure.org"/>
                  <code value="mmol/L"/>
               </low>
            </referenceRange>
            <referenceRange>
               <high>
                  <value value="32"/>
                  <system value="http://unitsofmeasure.org"/>
                  <code value="mmol/L"/>
               </high>
            </referenceRange>
         </Observation>
      </resource>
   </entry>
   <entry>
      <fullUrl value="urn:uuid:92ccb51e-fbf9-4c64-b36c-0808ae084753"/>
      <resource>
         <Observation>
            <id value="92ccb51e-fbf9-4c64-b36c-0808ae084753"/>
            <meta>
               <profile value="http://hl7.eu/fhir/laboratory/StructureDefinition/Observation-resultslab-eu-lab"/>
            </meta>
            <text>
               <status value="generated"/>
               <div xmlns="http://www.w3.org/1999/xhtml">
                  <table class="hl7__eu__lab__report">
                     <tr>
                        <th>Test</th>
                        <th>10-Nov-2016</th>
                        <th>Reference Range</th>
                        <th>Unit</th>
                     </tr>
                     <tr>
                        <td>Oxygen saturation in Arterial blood</td>
                        <td>90.0</td>
                        <td>95 - 100</td>
                        <td>L</td>
                        <td>%</td>
                     </tr>
                  </table>
               </div>
            </text>
            <status value="final"/>
            <category>
               <coding>
                  <system value="http://terminology.hl7.org/CodeSystem/observation-category"/>
                  <code value="laboratory"/>
               </coding>
            </category>
            <code>
               <coding>
                  <system value="http://loinc.org"/>
                  <code value="2708-6"/>
                  <display value="Oxygen saturation in Arterial blood"/>
               </coding>
               <text value="Oxygen saturation in Arterial blood"/>
            </code>
            <subject>
               <reference value="urn:uuid:b92ade45-aa65-4fa8-a29c-33838f739f5b"/>
               <display value="Ludmila Vávrová"/>
            </subject>
            <effectiveDateTime value="2016-11-10T04:05:03Z"/>
            <performer>
               <display value="The Central European Lab"/>
            </performer>
            <valueQuantity>
               <value value="90"/>
               <unit value="%"/>
               <system value="http://unitsofmeasure.org"/>
               <code value="%"/>
            </valueQuantity>
            <interpretation>
               <coding>
                  <system value="http://terminology.hl7.org/CodeSystem/v3-ObservationInterpretation"/>
                  <code value="L"/>
                  <display value="Low"/>
               </coding>
            </interpretation>
            <specimen>
               <reference value="urn:uuid:acc589cf-4a7a-48ac-b71b-0b6ed8c722f4"/>
            </specimen>
            <referenceRange>
               <low>
                  <value value="95"/>
                  <system value="http://unitsofmeasure.org"/>
                  <code value="%"/>
               </low>
            </referenceRange>
            <referenceRange>
               <high>
                  <value value="100"/>
                  <system value="http://unitsofmeasure.org"/>
                  <code value="%"/>
               </high>
            </referenceRange>
         </Observation>
      </resource>
   </entry>
   <entry>
      <fullUrl value="urn:uuid:4411a905-2b95-4702-9280-d40af0ec4611"/>
      <resource>
         <Observation>
            <id value="4411a905-2b95-4702-9280-d40af0ec4611"/>
            <meta>
               <profile value="http://hl7.eu/fhir/laboratory/StructureDefinition/Observation-resultslab-eu-lab"/>
            </meta>
            <text>
               <status value="generated"/>
               <div xmlns="http://www.w3.org/1999/xhtml">
                  <table class="hl7__eu__lab__report">
                     <tr>
                        <th>Test</th>
                        <th>10-Nov-2016</th>
                        <th>Reference Range</th>
                        <th>Unit</th>
                     </tr>
                     <tr>
                        <td>Cholesterol [Mass/volume] in Serum or Plasma</td>
                        <td>253.7</td>
                        <td>125 - 200</td>
                        <td>H</td>
                        <td>mg/dL</td>
                     </tr>
                  </table>
               </div>
            </text>
            <status value="final"/>
            <category>
               <coding>
                  <system value="http://terminology.hl7.org/CodeSystem/observation-category"/>
                  <code value="laboratory"/>
               </coding>
            </category>
            <code>
               <coding>
                  <system value="http://loinc.org"/>
                  <code value="2093-3"/>
                  <display value="Cholesterol [Mass/volume] in Serum or Plasma"/>
               </coding>
               <text value="Cholesterol [Mass/volume] in Serum or Plasma"/>
            </code>
            <subject>
               <reference value="urn:uuid:b92ade45-aa65-4fa8-a29c-33838f739f5b"/>
               <display value="Ludmila Vávrová"/>
            </subject>
            <effectiveDateTime value="2016-11-10T04:05:03Z"/>
            <performer>
               <display value="The Central European Lab"/>
            </performer>
            <valueQuantity>
               <value value="253.7"/>
               <unit value="mg/dL"/>
               <system value="http://unitsofmeasure.org"/>
               <code value="mg/dL"/>
            </valueQuantity>
            <interpretation>
               <coding>
                  <system value="http://terminology.hl7.org/CodeSystem/v3-ObservationInterpretation"/>
                  <code value="H"/>
                  <display value="High"/>
               </coding>
            </interpretation>
            <specimen>
               <reference value="urn:uuid:d7633821-2722-46bb-bad3-4ea83c15caab"/>
            </specimen>
            <referenceRange>
               <low>
                  <value value="125"/>
                  <system value="http://unitsofmeasure.org"/>
                  <code value="mg/dL"/>
               </low>
            </referenceRange>
            <referenceRange>
               <high>
                  <value value="200"/>
                  <system value="http://unitsofmeasure.org"/>
                  <code value="mg/dL"/>
               </high>
            </referenceRange>
         </Observation>
      </resource>
   </entry>
   <entry>
      <fullUrl value="urn:uuid:2d256f75-cf12-48db-a7ae-f9cd272a7d0b"/>
      <resource>
         <Observation>
            <id value="2d256f75-cf12-48db-a7ae-f9cd272a7d0b"/>
            <meta>
               <profile value="http://hl7.eu/fhir/laboratory/StructureDefinition/Observation-resultslab-eu-lab"/>
            </meta>
            <text>
               <status value="generated"/>
               <div xmlns="http://www.w3.org/1999/xhtml">
                  <table class="hl7__eu__lab__report">
                     <tr>
                        <th>Test</th>
                        <th>10-Nov-2016</th>
                        <th>Reference Range</th>
                        <th>Unit</th>
                     </tr>
                     <tr>
                        <td>Triglyceride [Mass/volume] in Serum or Plasma</td>
                        <td>117.8</td>
                        <td>10 - 175</td>
                        <td/>
                        <td>mg/dL</td>
                     </tr>
                  </table>
               </div>
            </text>
            <status value="final"/>
            <category>
               <coding>
                  <system value="http://terminology.hl7.org/CodeSystem/observation-category"/>
                  <code value="laboratory"/>
               </coding>
            </category>
            <code>
               <coding>
                  <system value="http://loinc.org"/>
                  <code value="2571-8"/>
                  <display value="Triglyceride [Mass/volume] in Serum or Plasma"/>
               </coding>
               <text value="Triglyceride [Mass/volume] in Serum or Plasma"/>
            </code>
            <subject>
               <reference value="urn:uuid:b92ade45-aa65-4fa8-a29c-33838f739f5b"/>
               <display value="Ludmila Vávrová"/>
            </subject>
            <effectiveDateTime value="2016-11-10T04:05:03Z"/>
            <performer>
               <display value="The Central European Lab"/>
            </performer>
            <valueQuantity>
               <value value="117.8"/>
               <unit value="mg/dL"/>
               <system value="http://unitsofmeasure.org"/>
               <code value="mg/dL"/>
            </valueQuantity>
            <specimen>
               <reference value="urn:uuid:d7633821-2722-46bb-bad3-4ea83c15caab"/>
            </specimen>
            <referenceRange>
               <low>
                  <value value="10"/>
                  <system value="http://unitsofmeasure.org"/>
                  <code value="mg/dL"/>
               </low>
            </referenceRange>
            <referenceRange>
               <high>
                  <value value="175"/>
                  <system value="http://unitsofmeasure.org"/>
                  <code value="mg/dL"/>
               </high>
            </referenceRange>
         </Observation>
      </resource>
   </entry>
   <entry>
      <fullUrl value="urn:uuid:ff85fedc-dd11-4b26-b4db-ef570d374821"/>
      <resource>
         <Observation>
            <id value="ff85fedc-dd11-4b26-b4db-ef570d374821"/>
            <meta>
               <profile value="http://hl7.eu/fhir/laboratory/StructureDefinition/Observation-resultslab-eu-lab"/>
            </meta>
            <text>
               <status value="generated"/>
               <div xmlns="http://www.w3.org/1999/xhtml">
                  <table class="hl7__eu__lab__report">
                     <tr>
                        <th>Test</th>
                        <th>10-Nov-2016</th>
                        <th>Reference Range</th>
                        <th>Unit</th>
                     </tr>
                     <tr>
                        <td>Cholesterol in LDL [Mass/volume] in Serum or Plasma by Direct assay</td>
                        <td>172.7</td>
                        <td>0 - 130</td>
                        <td>H</td>
                        <td>mg/dL</td>
                     </tr>
                  </table>
               </div>
            </text>
            <status value="final"/>
            <category>
               <coding>
                  <system value="http://terminology.hl7.org/CodeSystem/observation-category"/>
                  <code value="laboratory"/>
               </coding>
            </category>
            <code>
               <coding>
                  <system value="http://loinc.org"/>
                  <code value="18262-6"/>
                  <display value="Cholesterol in LDL [Mass/volume] in Serum or Plasma by Direct assay"/>
               </coding>
               <text value="Cholesterol in LDL [Mass/volume] in Serum or Plasma by Direct assay"/>
            </code>
            <subject>
               <reference value="urn:uuid:b92ade45-aa65-4fa8-a29c-33838f739f5b"/>
               <display value="Ludmila Vávrová"/>
            </subject>
            <effectiveDateTime value="2016-11-10T04:05:03Z"/>
            <performer>
               <display value="The Central European Lab"/>
            </performer>
            <valueQuantity>
               <value value="172.7"/>
               <unit value="mg/dL"/>
               <system value="http://unitsofmeasure.org"/>
               <code value="mg/dL"/>
            </valueQuantity>
            <interpretation>
               <coding>
                  <system value="http://terminology.hl7.org/CodeSystem/v3-ObservationInterpretation"/>
                  <code value="H"/>
                  <display value="High"/>
               </coding>
            </interpretation>
            <specimen>
               <reference value="urn:uuid:d7633821-2722-46bb-bad3-4ea83c15caab"/>
            </specimen>
            <referenceRange>
               <low>
                  <value value="0"/>
                  <system value="http://unitsofmeasure.org"/>
                  <code value="mg/dL"/>
               </low>
            </referenceRange>
            <referenceRange>
               <high>
                  <value value="130"/>
                  <system value="http://unitsofmeasure.org"/>
                  <code value="mg/dL"/>
               </high>
            </referenceRange>
         </Observation>
      </resource>
   </entry>
   <entry>
      <fullUrl value="urn:uuid:d751afc4-f709-401a-8198-4e1af3ea94ff"/>
      <resource>
         <Observation>
            <id value="d751afc4-f709-401a-8198-4e1af3ea94ff"/>
            <meta>
               <profile value="http://hl7.eu/fhir/laboratory/StructureDefinition/Observation-resultslab-eu-lab"/>
            </meta>
            <text>
               <status value="generated"/>
               <div xmlns="http://www.w3.org/1999/xhtml">
                  <table class="hl7__eu__lab__report">
                     <tr>
                        <th>Test</th>
                        <th>10-Nov-2016</th>
                        <th>Reference Range</th>
                        <th>Unit</th>
                     </tr>
                     <tr>
                        <td>Cholesterol in HDL [Mass/volume] in Serum or Plasma</td>
                        <td>57.4</td>
                        <td>50 - 100</td>
                        <td/>
                        <td>mg/dL</td>
                     </tr>
                  </table>
               </div>
            </text>
            <status value="final"/>
            <category>
               <coding>
                  <system value="http://terminology.hl7.org/CodeSystem/observation-category"/>
                  <code value="laboratory"/>
               </coding>
            </category>
            <code>
               <coding>
                  <system value="http://loinc.org"/>
                  <code value="2085-9"/>
                  <display value="Cholesterol in HDL [Mass/volume] in Serum or Plasma"/>
               </coding>
               <text value="Cholesterol in HDL [Mass/volume] in Serum or Plasma"/>
            </code>
            <subject>
               <reference value="urn:uuid:b92ade45-aa65-4fa8-a29c-33838f739f5b"/>
               <display value="Ludmila Vávrová"/>
            </subject>
            <effectiveDateTime value="2016-11-10T04:05:03Z"/>
            <performer>
               <display value="The Central European Lab"/>
            </performer>
            <valueQuantity>
               <value value="57.4"/>
               <unit value="mg/dL"/>
               <system value="http://unitsofmeasure.org"/>
               <code value="mg/dL"/>
            </valueQuantity>
            <specimen>
               <reference value="urn:uuid:d7633821-2722-46bb-bad3-4ea83c15caab"/>
            </specimen>
            <referenceRange>
               <low>
                  <value value="50"/>
                  <system value="http://unitsofmeasure.org"/>
                  <code value="mg/dL"/>
               </low>
            </referenceRange>
            <referenceRange>
               <high>
                  <value value="100"/>
                  <system value="http://unitsofmeasure.org"/>
                  <code value="mg/dL"/>
               </high>
            </referenceRange>
         </Observation>
      </resource>
   </entry>
   <entry>
      <fullUrl value="urn:uuid:8a5742f8-9f3c-4a9d-8aaa-d8b106e5a7fa"/>
      <resource>
         <Device>
            <id value="8a5742f8-9f3c-4a9d-8aaa-d8b106e5a7fa"/>
            <text>
               <status value="generated"/>
               <div xmlns="http://www.w3.org/1999/xhtml">SYNDERAI Synthetic Generator v5.0</div>
            </text>
            <status value="active&#34;"/>
            <distinctIdentifier value="synderai-generator-50"/>
            <manufacturer value="SYNDERAI Project"/>
            <deviceName>
               <name value="SYNDERAI Synthetic Generator"/>
               <type value="manufacturer-name"/>
            </deviceName>
            <version>
               <value value="5.0"/>
            </version>
         </Device>
      </resource>
   </entry>
   <entry>
      <fullUrl value="urn:uuid:8f2814d4-26f3-4fda-bb31-8c317e11e888"/>
      <resource>
         <Provenance>
            <id value="8f2814d4-26f3-4fda-bb31-8c317e11e888"/>
            <text>
               <status value="generated"/>
               <div xmlns="http://www.w3.org/1999/xhtml">Provenance for SYNDERAI Synthetic Example Data Resource</div>
            </text>
            <target>
               <reference value="Patient/b92ade45-aa65-4fa8-a29c-33838f739f5b"/>
            </target>
            <target>
               <reference value="Bundle/d8acd7b5-1833-4a3b-872e-200f9c557a1c"/>
            </target>
            <target>
               <reference value="Composition/57c44118-245c-43c3-883e-ba09f80e0c73"/>
            </target>
            <target>
               <reference value="PractitionerRole/747fda2c-b80b-4116-8eae-ca08b01ea517"/>
            </target>
            <target>
               <reference value="Practitioner/d36d4ee1-097d-4684-80ed-4dfa05e81164"/>
            </target>
            <target>
               <reference value="PractitionerRole/2ec493eb-1aac-4bb7-9b07-791e6f68a821"/>
            </target>
            <target>
               <reference value="Organization/f4933620-6030-4e9c-a452-2d8daf0b5fbd"/>
            </target>
            <recorded value="2016-11-10T05:05:03Z"/>
            <policy value="https://synderai.net/synderai-synthetic-data-policy"/>
            <reason>
               <text value="Interoperability Testing and Training (non-clinical use)"/>
            </reason>
            <activity>
               <text value="Synthetic Example Data Generation"/>
            </activity>
            <agent>
               <type>
                  <text value="author"/>
               </type>
               <who>
                  <reference value="Device/8a5742f8-9f3c-4a9d-8aaa-d8b106e5a7fa"/>
               </who>
            </agent>
         </Provenance>
      </resource>
   </entry>
   <entry>
      <fullUrl value="urn:uuid:747fda2c-b80b-4116-8eae-ca08b01ea517"/>
      <resource>
         <PractitionerRole>
            <id value="747fda2c-b80b-4116-8eae-ca08b01ea517"/>
            <meta>
               <profile value="http://hl7.eu/fhir/base/StructureDefinition/practitionerRole-eu"/>
            </meta>
            <text>
               <status value="generated"/>
               <div xmlns="http://www.w3.org/1999/xhtml">Laboratory Role Id: 747fda2c-b80b-4116-8eae-ca08b01ea517</div>
            </text>
            <practitioner>
               <reference value="urn:uuid:d36d4ee1-097d-4684-80ed-4dfa05e81164"/>
            </practitioner>
         </PractitionerRole>
      </resource>
   </entry>
   <entry>
      <fullUrl value="urn:uuid:d36d4ee1-097d-4684-80ed-4dfa05e81164"/>
      <resource>
         <Practitioner>
            <id value="d36d4ee1-097d-4684-80ed-4dfa05e81164"/>
            <meta>
               <profile value="http://hl7.eu/fhir/base/StructureDefinition/practitioner-eu"/>
            </meta>
            <text>
               <status value="generated"/>
               <div xmlns="http://www.w3.org/1999/xhtml">Laboratory: Laboratoire Central Européenne, 1000 Brussels, Belgium</div>
            </text>
            <identifier>
               <system value="urn:oid:2.16.840.1.113883.2.51.999"/>
               <value value="e77d08d4-dd40-4c53-b508-b5d0696fe032"/>
               <assigner>
                  <display value="HL7 Europe"/>
               </assigner>
            </identifier>
            <name>
               <family value="Ample"/>
               <given value="Ex"/>
               <prefix value="dr"/>
            </name>
            <address>
               <line value="Laboratoire Central Européenne"/>
               <line value="Boulevard du Jardin Botanique 32"/>
               <city value="Brussels"/>
               <postalCode value="1000"/>
               <country value="Belgium"/>
            </address>
         </Practitioner>
      </resource>
   </entry>
</Bundle>