{
  "resourceType": "Bundle",
  "id": "49429210-7955-4649-9b95-3fefdf595bc7",
  "meta": {
    "profile": [
      "http://hl7.eu/fhir/laboratory/StructureDefinition/Bundle-eu-lab"
    ]
  },
  "identifier": {
    "assigner": {
      "display": "HL7 Europe"
    },
    "system": "urn:oid:2.16.840.1.113883.2.51.999",
    "value": "e4a1e3f0-080f-4fdf-b168-ce360e8e0fb1"
  },
  "entry": [
    {
      "fullUrl": "urn:uuid:d7f8cbd6-3f85-49e5-a293-72d72cb8445a",
      "resource": {
        "resourceType": "Composition",
        "id": "d7f8cbd6-3f85-49e5-a293-72d72cb8445a",
        "meta": {
          "profile": [
            "http://hl7.eu/fhir/laboratory/StructureDefinition/Composition-eu-lab"
          ]
        },
        "identifier": {
          "assigner": {
            "display": "HL7 Europe"
          },
          "system": "urn:oid:2.16.840.1.113883.2.51.999",
          "value": "2360d6c5-e43e-4448-90b2-8ebdf4d04613"
        },
        "author": [
          {
            "reference": "urn:uuid:90fc736e-da1a-427c-983d-fabe1e450d19"
          }
        ],
        "category": [
          {
            "coding": [
              {
                "code": "26436-6",
                "system": "http://loinc.org",
                "display": "Laboratory studies (set)"
              }
            ]
          }
        ],
        "type": {
          "coding": [
            {
              "code": "11502-2",
              "system": "http://loinc.org",
              "display": "Laboratory report"
            }
          ],
          "text": "Laboratory Report"
        },
        "section": [
          {
            "code": {
              "coding": [
                {
                  "code": "26436-6",
                  "system": "http://loinc.org",
                  "display": "Laboratory studies (set)"
                }
              ],
              "text": "Laboratory studies"
            },
            "section": [
              {
                "code": {
                  "coding": [
                    {
                      "code": "$18719-5",
                      "system": "http://loinc.org",
                      "display": "Chemistry studies (set)"
                    }
                  ],
                  "text": "Chemistry"
                },
                "entry": [
                  {
                    "reference": "urn:uuid:0508b010-8a57-467e-9031-a8a156520044"
                  },
                  {
                    "reference": "urn:uuid:ba3ce797-acde-4145-b333-dff3412011ba"
                  },
                  {
                    "reference": "urn:uuid:b5690142-9a74-48b1-9596-000f0a0459f3"
                  },
                  {
                    "reference": "urn:uuid:1259de2c-653d-46bf-b06f-ba39d8e43dbc"
                  },
                  {
                    "reference": "urn:uuid:a3bc08e2-f244-4b84-9e61-d1c6c07c8238"
                  },
                  {
                    "reference": "urn:uuid:e37c0ab8-3f6f-4b2d-9467-0a3b631e2a1b"
                  },
                  {
                    "reference": "urn:uuid:74f572ba-0799-4233-9f74-d75f4aa7cfdc"
                  },
                  {
                    "reference": "urn:uuid:34859542-28f7-4aab-a01a-3a702718b2cf"
                  },
                  {
                    "reference": "urn:uuid:6c05b055-4cd5-4d4a-b61a-e289dae949e1"
                  },
                  {
                    "reference": "urn:uuid:69cb720a-e8c0-4cfb-9b15-32759b927549"
                  },
                  {
                    "reference": "urn:uuid:3b4ea067-628f-4337-8258-a86fb71b398c"
                  },
                  {
                    "reference": "urn:uuid:bbfdf33e-4f0d-471c-8566-b8cad03bc475"
                  },
                  {
                    "reference": "urn:uuid:899f66d0-8658-48b5-999b-7b8d200b6115"
                  }
                ],
                "text": {
                  "status": "generated",
                  "div": "<div xmlns=\"http://www.w3.org/1999/xhtml\"><h3>Chemistry</h3><table class=\"hl7__eu__lab__report\"><thead><tr><th>Test</th><th>02-JUN-2025</th><th>Reference&#xA0;Range</th><th>Unit</th></tr></thead><tbody><tr><td>Hemoglobin A1c/Hemoglobin.total in Blood</td><td>6.2</td><td>4.5 - 6.4</td><td>%</td></tr><tr><td>Glucose [Mass/volume] in Blood</td><td>71.3</td><td>70 - 99</td><td>mg/dL</td></tr><tr><td>Urea nitrogen [Mass/volume] in Blood</td><td>13.5</td><td>7 - 20</td><td>mg/dL</td></tr><tr><td>Creatinine [Mass/volume] in Blood</td><td>1.0</td><td>0.7 - 1.3</td><td>mg/dL</td></tr><tr><td>Calcium [Mass/volume] in Blood</td><td>9.3</td><td>8.5 - 10.5</td><td>mg/dL</td></tr><tr><td>Sodium [Moles/volume] in Blood</td><td>141.7</td><td>135 - 145</td><td>mmol/L</td></tr><tr><td>Potassium [Moles/volume] in Blood</td><td>4.3</td><td>3.5 - 5</td><td>mmol/L</td></tr><tr><td>Chloride [Moles/volume] in Blood</td><td><strong>108.6 H</strong></td><td>98 - 107</td><td>mmol/L</td></tr><tr><td>Carbon dioxide, total [Moles/volume] in Blood</td><td>24.7</td><td>24 - 29</td><td>mmol/L</td></tr><tr><td>Cholesterol [Mass/volume] in Serum or Plasma</td><td><strong>121.1 L</strong></td><td>125 - 200</td><td>mg/dL</td></tr><tr><td>Triglyceride [Mass/volume] in Serum or Plasma</td><td>113.6</td><td>0 - 150</td><td>mg/dL</td></tr><tr><td>Cholesterol in LDL [Mass/volume] in Serum or Plasma by Direct assay</td><td>46.3</td><td>0 - 130</td><td>mg/dL</td></tr><tr><td>Cholesterol in HDL [Mass/volume] in Serum or Plasma</td><td>52.1</td><td>40 - 100</td><td>mg/dL</td></tr></tbody></table></div>"
                },
                "title": "Chemistry"
              }
            ],
            "title": "Laboratory Report"
          },
          {
            "text": {
              "status": "generated",
              "div": "<div xmlns=\"http://www.w3.org/1999/xhtml\"><h3>Annotation</h3><table class=\"hl7__eu__lab__report\"><tr><th>Conclusion and Recommendations based on this report and previous findings known to us</th></tr><tr><td>All results are within or close to normal ranges, except for mildly elevated chloride and slightly low total cholesterol, both of which are not clinically significant in isolation. HbA1c is at the upper end of normal, suggesting monitoring for prediabetes. Renal function, electrolytes, and lipid profile are otherwise unremarkable. No acute laboratory concerns.</td></tr></table></div>"
            },
            "code": {
              "coding": [
                {
                  "system": "http://loinc.org",
                  "code": "48767-8",
                  "display": "Annotation comment"
                }
              ]
            },
            "title": "Annotation comment"
          }
        ],
        "status": "final",
        "subject": {
          "reference": "urn:uuid:750c3a99-7327-4c54-893d-87ccdf019e67",
          "display": "Gioele Fabbri"
        },
        "date": "2025-06-02T17:46:20Z",
        "title": "Laboratory Report",
        "confidentiality": "N"
      }
    },
    {
      "fullUrl": "urn:uuid:f277d7ad-90e1-460f-a642-63d4ce399c08",
      "resource": {
        "resourceType": "DiagnosticReport",
        "id": "f277d7ad-90e1-460f-a642-63d4ce399c08",
        "meta": {
          "profile": [
            "http://hl7.eu/fhir/laboratory/StructureDefinition/DiagnosticReport-eu-lab"
          ]
        },
        "identifier": [
          {
            "assigner": {
              "display": "HL7 Europe"
            },
            "system": "urn:oid:2.16.840.1.113883.2.51.999",
            "value": "656a5817-6357-44c6-89e0-af12e84c3299"
          }
        ],
        "extension": [
          {
            "url": "http://hl7.org/fhir/5.0/StructureDefinition/extension-DiagnosticReport.composition",
            "valueReference": {
              "reference": "urn:uuid:2360d6c5-e43e-4448-90b2-8ebdf4d04613"
            }
          }
        ],
        "category": [
          {
            "coding": [
              {
                "code": "26436-6",
                "system": "http://loinc.org",
                "display": "Laboratory studies (set)"
              }
            ]
          }
        ],
        "specimen": [
          {
            "reference": "urn:uuid:af04dfe3-d30d-4897-a545-44ba440780f6"
          },
          {
            "reference": "urn:uuid:91d9b6f6-1616-4ab4-a759-0314938fc0b2"
          }
        ],
        "result": [
          {
            "reference": "urn:uuid:0508b010-8a57-467e-9031-a8a156520044"
          },
          {
            "reference": "urn:uuid:ba3ce797-acde-4145-b333-dff3412011ba"
          },
          {
            "reference": "urn:uuid:b5690142-9a74-48b1-9596-000f0a0459f3"
          },
          {
            "reference": "urn:uuid:1259de2c-653d-46bf-b06f-ba39d8e43dbc"
          },
          {
            "reference": "urn:uuid:a3bc08e2-f244-4b84-9e61-d1c6c07c8238"
          },
          {
            "reference": "urn:uuid:e37c0ab8-3f6f-4b2d-9467-0a3b631e2a1b"
          },
          {
            "reference": "urn:uuid:74f572ba-0799-4233-9f74-d75f4aa7cfdc"
          },
          {
            "reference": "urn:uuid:34859542-28f7-4aab-a01a-3a702718b2cf"
          },
          {
            "reference": "urn:uuid:6c05b055-4cd5-4d4a-b61a-e289dae949e1"
          },
          {
            "reference": "urn:uuid:69cb720a-e8c0-4cfb-9b15-32759b927549"
          },
          {
            "reference": "urn:uuid:3b4ea067-628f-4337-8258-a86fb71b398c"
          },
          {
            "reference": "urn:uuid:bbfdf33e-4f0d-471c-8566-b8cad03bc475"
          },
          {
            "reference": "urn:uuid:899f66d0-8658-48b5-999b-7b8d200b6115"
          }
        ],
        "status": "registered",
        "code": {
          "coding": [
            {
              "code": "11502-2",
              "system": "http://loinc.org",
              "display": "Laboratory report"
            }
          ]
        },
        "subject": {
          "reference": "urn:uuid:750c3a99-7327-4c54-893d-87ccdf019e67",
          "display": "Gioele Fabbri"
        }
      }
    },
    {
      "fullUrl": "urn:uuid:750c3a99-7327-4c54-893d-87ccdf019e67",
      "resource": {
        "resourceType": "Patient",
        "id": "750c3a99-7327-4c54-893d-87ccdf019e67",
        "meta": {
          "security": [
            {
              "system": "http://terminology.hl7.org/CodeSystem/v3-ActReason",
              "code": "HTEST"
            },
            {
              "system": "http://terminology.hl7.org/CodeSystem/v3-ActReason",
              "code": "TRAIN"
            }
          ],
          "tag": [
            {
              "system": "https://synderai.net/fhir/CodeSystem/tags",
              "code": "synthetic",
              "display": "SYNDERAI Synthetic data"
            }
          ],
          "profile": [
            "http://hl7.eu/fhir/base/StructureDefinition/patient-eu-core"
          ]
        },
        "identifier": [
          {
            "type": {
              "coding": [
                {
                  "code": "PT",
                  "system": "http://terminology.hl7.org/CodeSystem/v2-0203"
                }
              ]
            },
            "system": "http://ec.europa.eu/identifier/eci",
            "value": "3631-767680-1"
          },
          {
            "type": {
              "coding": [
                {
                  "code": "MR",
                  "system": "http://terminology.hl7.org/CodeSystem/v2-0203"
                }
              ]
            },
            "system": "http://local.setting.eu/identifier",
            "value": "0a14935e-e0f7-2e1e-46fa-42b10e75d1f9"
          }
        ],
        "name": [
          {
            "family": "Fabbri"
          },
          {
            "given": [
              "Gioele"
            ]
          },
          {
            "text": "Gioele Fabbri"
          }
        ],
        "address": [
          {
            "line": [
              "Canale Armani, 25"
            ],
            "use": "home",
            "type": "physical",
            "postalCode": "23887",
            "city": "Revislate",
            "country": "Italy"
          }
        ],
        "telecom": [
          {
            "system": "phone",
            "value": "+39 0423197768"
          }
        ],
        "extension": [
          {
            "url": "http://hl7.org/fhir/StructureDefinition/patient-nationality",
            "valueCodeableConcept": {
              "coding": [
                {
                  "code": "IT",
                  "system": "http://hl7.org/fhir/ValueSet/country"
                }
              ]
            }
          }
        ],
        "text": {
          "status": "generated",
          "div": "<div xmlns=\"http://www.w3.org/1999/xhtml\"><table class=\"hl7__ips\"><tr><td>Gioele Fabbri</td><td>male</td><td>12-Sep-1972</td></tr></table></div>"
        },
        "gender": "male",
        "birthDate": "1972-09-12"
      }
    },
    {
      "fullUrl": "urn:uuid:b4ab2e92-4d73-4b4a-a49d-4af5082ae0e2",
      "resource": {
        "resourceType": "ServiceRequest",
        "id": "b4ab2e92-4d73-4b4a-a49d-4af5082ae0e2",
        "meta": {
          "profile": [
            "http://hl7.eu/fhir/laboratory/StructureDefinition/ServiceRequest-eu-lab"
          ]
        },
        "identifier": [
          {
            "system": "http://example.org",
            "value": "c28d49e6-d0eb-485c-b526-228877c731cb"
          }
        ],
        "specimen": [
          {
            "reference": "urn:uuid:af04dfe3-d30d-4897-a545-44ba440780f6"
          },
          {
            "reference": "urn:uuid:91d9b6f6-1616-4ab4-a759-0314938fc0b2"
          }
        ],
        "reasonCode": [
          {
            "coding": [
              {
                "code": "271737000",
                "system": "http://snomed.info/sct",
                "display": "Anemia"
              }
            ]
          },
          {
            "coding": [
              {
                "code": "15777000",
                "system": "http://snomed.info/sct",
                "display": "Prediabetes"
              }
            ]
          },
          {
            "coding": [
              {
                "code": "713197008",
                "system": "http://snomed.info/sct",
                "display": "Recurrent rectal polyp"
              }
            ]
          },
          {
            "coding": [
              {
                "code": "68496003",
                "system": "http://snomed.info/sct",
                "display": "Polyp of colon"
              }
            ]
          },
          {
            "coding": [
              {
                "code": "55822004",
                "system": "http://snomed.info/sct",
                "display": "Hyperlipidemia"
              }
            ]
          },
          {
            "coding": [
              {
                "code": "124171000119105",
                "system": "http://snomed.info/sct",
                "display": "Chronic intractable migraine without aura"
              }
            ]
          }
        ],
        "status": "active",
        "intent": "order",
        "code": {
          "coding": [
            {
              "code": "108252007",
              "system": "http://snomed.info/sct",
              "display": "Laboratory procedure"
            }
          ]
        },
        "subject": {
          "reference": "urn:uuid:750c3a99-7327-4c54-893d-87ccdf019e67",
          "display": "Gioele Fabbri"
        },
        "requester": {
          "reference": "urn:uuid:625ff1d6-da85-46d5-8978-1d1c15aa822c"
        }
      }
    },
    {
      "fullUrl": "urn:uuid:625ff1d6-da85-46d5-8978-1d1c15aa822c",
      "resource": {
        "resourceType": "PractitionerRole",
        "id": "625ff1d6-da85-46d5-8978-1d1c15aa822c",
        "meta": {
          "profile": [
            "http://hl7.eu/fhir/base/StructureDefinition/practitionerRole-eu"
          ]
        },
        "text": {
          "status": "generated",
          "div": "<div xmlns=\"http://www.w3.org/1999/xhtml\">Provider Role Id: 625ff1d6-da85-46d5-8978-1d1c15aa822c</div>"
        },
        "organization": {
          "reference": "urn:uuid:0277fd4d-e604-4df6-be0c-11cf8a33a5ea"
        }
      }
    },
    {
      "fullUrl": "urn:uuid:0277fd4d-e604-4df6-be0c-11cf8a33a5ea",
      "resource": {
        "resourceType": "Organization",
        "id": "0277fd4d-e604-4df6-be0c-11cf8a33a5ea",
        "meta": {
          "profile": [
            "http://hl7.eu/fhir/base/StructureDefinition/organization-eu"
          ]
        },
        "identifier": [
          {
            "assigner": {
              "display": "HL7 Europe"
            },
            "system": "urn:oid:2.16.840.1.113883.2.51.999",
            "value": "9b098e4a-915f-4d2b-a17f-ce40ac699980"
          }
        ],
        "address": [
          {
            "line": [
              "Piazza Ospedale 3"
            ],
            "city": "Calcinate",
            "postalCode": "24050",
            "country": "Italy"
          }
        ],
        "text": {
          "status": "generated",
          "div": "<div xmlns=\"http://www.w3.org/1999/xhtml\">Provider Organization: Ospedale di Calcinate &quot;F.M. Passi&quot;</div>"
        },
        "name": "Ospedale di Calcinate &quot;F.M. Passi&quot;"
      }
    },
    {
      "fullUrl": "urn:uuid:af04dfe3-d30d-4897-a545-44ba440780f6",
      "resource": {
        "resourceType": "Specimen",
        "id": "af04dfe3-d30d-4897-a545-44ba440780f6",
        "meta": {
          "profile": [
            "http://hl7.eu/fhir/laboratory/StructureDefinition/Specimen-eu-lab"
          ]
        },
        "collection": {
          "collectedDateTime": "2025-06-02"
        },
        "text": {
          "status": "generated",
          "div": "<div xmlns=\"http://www.w3.org/1999/xhtml\"><table class=\"hl7__eu__lab__report\"><tr><th>Specimen</th><th>Collection Date</th></tr><tr><td>Whole blood specimen (specimen)</td><td><span class=\"nb\">02-Jun-2025</span></td></tr></table></div>"
        },
        "type": {
          "coding": [
            {
              "code": "258580003",
              "system": "http://snomed.info/sct",
              "display": "Whole blood specimen (specimen)"
            }
          ]
        }
      }
    },
    {
      "fullUrl": "urn:uuid:91d9b6f6-1616-4ab4-a759-0314938fc0b2",
      "resource": {
        "resourceType": "Specimen",
        "id": "91d9b6f6-1616-4ab4-a759-0314938fc0b2",
        "meta": {
          "profile": [
            "http://hl7.eu/fhir/laboratory/StructureDefinition/Specimen-eu-lab"
          ]
        },
        "collection": {
          "collectedDateTime": "2025-06-02"
        },
        "text": {
          "status": "generated",
          "div": "<div xmlns=\"http://www.w3.org/1999/xhtml\"><table class=\"hl7__eu__lab__report\"><tr><th>Specimen</th><th>Collection Date</th></tr><tr><td>Acellular blood (serum or plasma) specimen</td><td><span class=\"nb\">02-Jun-2025</span></td></tr></table></div>"
        },
        "type": {
          "coding": [
            {
              "code": "122592007",
              "system": "http://snomed.info/sct",
              "display": "Acellular blood (serum or plasma) specimen"
            }
          ]
        }
      }
    },
    {
      "fullUrl": "urn:uuid:0508b010-8a57-467e-9031-a8a156520044",
      "resource": {
        "resourceType": "Observation",
        "id": "0508b010-8a57-467e-9031-a8a156520044",
        "meta": {
          "profile": [
            "http://hl7.eu/fhir/laboratory/StructureDefinition/Observation-resultslab-eu-lab"
          ]
        },
        "performer": [
          {
            "display": "The Central European Lab"
          }
        ],
        "category": [
          {
            "coding": [
              {
                "system": "http://terminology.hl7.org/CodeSystem/observation-category",
                "code": "laboratory"
              }
            ]
          }
        ],
        "code": {
          "coding": [
            {
              "code": "4548-4",
              "system": "http://loinc.org",
              "display": "Hemoglobin A1c/Hemoglobin.total in Blood"
            }
          ],
          "text": "Hemoglobin A1c/Hemoglobin.total in Blood"
        },
        "valueQuantity": {
          "system": "http://unitsofmeasure.org",
          "value": 6.2,
          "unit": "%",
          "code": "%"
        },
        "referenceRange": [
          {
            "low": {
              "value": 4.5,
              "code": "%",
              "system": "http://unitsofmeasure.org"
            }
          },
          {
            "high": {
              "value": 6.4,
              "code": "%",
              "system": "http://unitsofmeasure.org"
            }
          }
        ],
        "text": {
          "status": "generated",
          "div": "<div xmlns=\"http://www.w3.org/1999/xhtml\"><table class=\"hl7__eu__lab__report\"><tr><th>Test</th><th>02-Jun-2025</th><th>Reference&#xA0;Range</th><th>Unit</th></tr><tr><td>Hemoglobin A1c/Hemoglobin.total in Blood</td><td>6.2</td><td>4.5 - 6.4</td><td></td><td>%</td></tr></table></div>"
        },
        "status": "final",
        "subject": {
          "reference": "urn:uuid:750c3a99-7327-4c54-893d-87ccdf019e67",
          "display": "Gioele Fabbri"
        },
        "effectiveDateTime": "2025-06-02T15:46:20Z",
        "specimen": {
          "reference": "urn:uuid:af04dfe3-d30d-4897-a545-44ba440780f6"
        }
      }
    },
    {
      "fullUrl": "urn:uuid:ba3ce797-acde-4145-b333-dff3412011ba",
      "resource": {
        "resourceType": "Observation",
        "id": "ba3ce797-acde-4145-b333-dff3412011ba",
        "meta": {
          "profile": [
            "http://hl7.eu/fhir/laboratory/StructureDefinition/Observation-resultslab-eu-lab"
          ]
        },
        "performer": [
          {
            "display": "The Central European Lab"
          }
        ],
        "category": [
          {
            "coding": [
              {
                "system": "http://terminology.hl7.org/CodeSystem/observation-category",
                "code": "laboratory"
              }
            ]
          }
        ],
        "code": {
          "coding": [
            {
              "code": "2339-0",
              "system": "http://loinc.org",
              "display": "Glucose [Mass/volume] in Blood"
            }
          ],
          "text": "Glucose [Mass/volume] in Blood"
        },
        "valueQuantity": {
          "system": "http://unitsofmeasure.org",
          "value": 71.3,
          "unit": "mg/dL",
          "code": "mg/dL"
        },
        "referenceRange": [
          {
            "low": {
              "value": 70,
              "code": "mg/dL",
              "system": "http://unitsofmeasure.org"
            }
          },
          {
            "high": {
              "value": 99,
              "code": "mg/dL",
              "system": "http://unitsofmeasure.org"
            }
          }
        ],
        "text": {
          "status": "generated",
          "div": "<div xmlns=\"http://www.w3.org/1999/xhtml\"><table class=\"hl7__eu__lab__report\"><tr><th>Test</th><th>02-Jun-2025</th><th>Reference&#xA0;Range</th><th>Unit</th></tr><tr><td>Glucose [Mass/volume] in Blood</td><td>71.3</td><td>70 - 99</td><td></td><td>mg/dL</td></tr></table></div>"
        },
        "status": "final",
        "subject": {
          "reference": "urn:uuid:750c3a99-7327-4c54-893d-87ccdf019e67",
          "display": "Gioele Fabbri"
        },
        "effectiveDateTime": "2025-06-02T15:46:20Z",
        "specimen": {
          "reference": "urn:uuid:af04dfe3-d30d-4897-a545-44ba440780f6"
        }
      }
    },
    {
      "fullUrl": "urn:uuid:b5690142-9a74-48b1-9596-000f0a0459f3",
      "resource": {
        "resourceType": "Observation",
        "id": "b5690142-9a74-48b1-9596-000f0a0459f3",
        "meta": {
          "profile": [
            "http://hl7.eu/fhir/laboratory/StructureDefinition/Observation-resultslab-eu-lab"
          ]
        },
        "performer": [
          {
            "display": "The Central European Lab"
          }
        ],
        "category": [
          {
            "coding": [
              {
                "system": "http://terminology.hl7.org/CodeSystem/observation-category",
                "code": "laboratory"
              }
            ]
          }
        ],
        "code": {
          "coding": [
            {
              "code": "6299-2",
              "system": "http://loinc.org",
              "display": "Urea nitrogen [Mass/volume] in Blood"
            }
          ],
          "text": "Urea nitrogen [Mass/volume] in Blood"
        },
        "valueQuantity": {
          "system": "http://unitsofmeasure.org",
          "value": 13.5,
          "unit": "mg/dL",
          "code": "mg/dL"
        },
        "referenceRange": [
          {
            "low": {
              "value": 7,
              "code": "mg/dL",
              "system": "http://unitsofmeasure.org"
            }
          },
          {
            "high": {
              "value": 20,
              "code": "mg/dL",
              "system": "http://unitsofmeasure.org"
            }
          }
        ],
        "text": {
          "status": "generated",
          "div": "<div xmlns=\"http://www.w3.org/1999/xhtml\"><table class=\"hl7__eu__lab__report\"><tr><th>Test</th><th>02-Jun-2025</th><th>Reference&#xA0;Range</th><th>Unit</th></tr><tr><td>Urea nitrogen [Mass/volume] in Blood</td><td>13.5</td><td>7 - 20</td><td></td><td>mg/dL</td></tr></table></div>"
        },
        "status": "final",
        "subject": {
          "reference": "urn:uuid:750c3a99-7327-4c54-893d-87ccdf019e67",
          "display": "Gioele Fabbri"
        },
        "effectiveDateTime": "2025-06-02T15:46:20Z",
        "specimen": {
          "reference": "urn:uuid:af04dfe3-d30d-4897-a545-44ba440780f6"
        }
      }
    },
    {
      "fullUrl": "urn:uuid:1259de2c-653d-46bf-b06f-ba39d8e43dbc",
      "resource": {
        "resourceType": "Observation",
        "id": "1259de2c-653d-46bf-b06f-ba39d8e43dbc",
        "meta": {
          "profile": [
            "http://hl7.eu/fhir/laboratory/StructureDefinition/Observation-resultslab-eu-lab"
          ]
        },
        "performer": [
          {
            "display": "The Central European Lab"
          }
        ],
        "category": [
          {
            "coding": [
              {
                "system": "http://terminology.hl7.org/CodeSystem/observation-category",
                "code": "laboratory"
              }
            ]
          }
        ],
        "code": {
          "coding": [
            {
              "code": "38483-4",
              "system": "http://loinc.org",
              "display": "Creatinine [Mass/volume] in Blood"
            }
          ],
          "text": "Creatinine [Mass/volume] in Blood"
        },
        "valueQuantity": {
          "system": "http://unitsofmeasure.org",
          "value": 1,
          "unit": "mg/dL",
          "code": "mg/dL"
        },
        "referenceRange": [
          {
            "low": {
              "value": 0.7,
              "code": "mg/dL",
              "system": "http://unitsofmeasure.org"
            }
          },
          {
            "high": {
              "value": 1.3,
              "code": "mg/dL",
              "system": "http://unitsofmeasure.org"
            }
          }
        ],
        "text": {
          "status": "generated",
          "div": "<div xmlns=\"http://www.w3.org/1999/xhtml\"><table class=\"hl7__eu__lab__report\"><tr><th>Test</th><th>02-Jun-2025</th><th>Reference&#xA0;Range</th><th>Unit</th></tr><tr><td>Creatinine [Mass/volume] in Blood</td><td>1.0</td><td>0.7 - 1.3</td><td></td><td>mg/dL</td></tr></table></div>"
        },
        "status": "final",
        "subject": {
          "reference": "urn:uuid:750c3a99-7327-4c54-893d-87ccdf019e67",
          "display": "Gioele Fabbri"
        },
        "effectiveDateTime": "2025-06-02T15:46:20Z",
        "specimen": {
          "reference": "urn:uuid:af04dfe3-d30d-4897-a545-44ba440780f6"
        }
      }
    },
    {
      "fullUrl": "urn:uuid:a3bc08e2-f244-4b84-9e61-d1c6c07c8238",
      "resource": {
        "resourceType": "Observation",
        "id": "a3bc08e2-f244-4b84-9e61-d1c6c07c8238",
        "meta": {
          "profile": [
            "http://hl7.eu/fhir/laboratory/StructureDefinition/Observation-resultslab-eu-lab"
          ]
        },
        "performer": [
          {
            "display": "The Central European Lab"
          }
        ],
        "category": [
          {
            "coding": [
              {
                "system": "http://terminology.hl7.org/CodeSystem/observation-category",
                "code": "laboratory"
              }
            ]
          }
        ],
        "code": {
          "coding": [
            {
              "code": "49765-1",
              "system": "http://loinc.org",
              "display": "Calcium [Mass/volume] in Blood"
            }
          ],
          "text": "Calcium [Mass/volume] in Blood"
        },
        "valueQuantity": {
          "system": "http://unitsofmeasure.org",
          "value": 9.3,
          "unit": "mg/dL",
          "code": "mg/dL"
        },
        "referenceRange": [
          {
            "low": {
              "value": 8.5,
              "code": "mg/dL",
              "system": "http://unitsofmeasure.org"
            }
          },
          {
            "high": {
              "value": 10.5,
              "code": "mg/dL",
              "system": "http://unitsofmeasure.org"
            }
          }
        ],
        "text": {
          "status": "generated",
          "div": "<div xmlns=\"http://www.w3.org/1999/xhtml\"><table class=\"hl7__eu__lab__report\"><tr><th>Test</th><th>02-Jun-2025</th><th>Reference&#xA0;Range</th><th>Unit</th></tr><tr><td>Calcium [Mass/volume] in Blood</td><td>9.3</td><td>8.5 - 10.5</td><td></td><td>mg/dL</td></tr></table></div>"
        },
        "status": "final",
        "subject": {
          "reference": "urn:uuid:750c3a99-7327-4c54-893d-87ccdf019e67",
          "display": "Gioele Fabbri"
        },
        "effectiveDateTime": "2025-06-02T15:46:20Z",
        "specimen": {
          "reference": "urn:uuid:af04dfe3-d30d-4897-a545-44ba440780f6"
        }
      }
    },
    {
      "fullUrl": "urn:uuid:e37c0ab8-3f6f-4b2d-9467-0a3b631e2a1b",
      "resource": {
        "resourceType": "Observation",
        "id": "e37c0ab8-3f6f-4b2d-9467-0a3b631e2a1b",
        "meta": {
          "profile": [
            "http://hl7.eu/fhir/laboratory/StructureDefinition/Observation-resultslab-eu-lab"
          ]
        },
        "performer": [
          {
            "display": "The Central European Lab"
          }
        ],
        "category": [
          {
            "coding": [
              {
                "system": "http://terminology.hl7.org/CodeSystem/observation-category",
                "code": "laboratory"
              }
            ]
          }
        ],
        "code": {
          "coding": [
            {
              "code": "2947-0",
              "system": "http://loinc.org",
              "display": "Sodium [Moles/volume] in Blood"
            }
          ],
          "text": "Sodium [Moles/volume] in Blood"
        },
        "valueQuantity": {
          "system": "http://unitsofmeasure.org",
          "value": 141.7,
          "unit": "mmol/L",
          "code": "mmol/L"
        },
        "referenceRange": [
          {
            "low": {
              "value": 135,
              "code": "mmol/L",
              "system": "http://unitsofmeasure.org"
            }
          },
          {
            "high": {
              "value": 145,
              "code": "mmol/L",
              "system": "http://unitsofmeasure.org"
            }
          }
        ],
        "text": {
          "status": "generated",
          "div": "<div xmlns=\"http://www.w3.org/1999/xhtml\"><table class=\"hl7__eu__lab__report\"><tr><th>Test</th><th>02-Jun-2025</th><th>Reference&#xA0;Range</th><th>Unit</th></tr><tr><td>Sodium [Moles/volume] in Blood</td><td>141.7</td><td>135 - 145</td><td></td><td>mmol/L</td></tr></table></div>"
        },
        "status": "final",
        "subject": {
          "reference": "urn:uuid:750c3a99-7327-4c54-893d-87ccdf019e67",
          "display": "Gioele Fabbri"
        },
        "effectiveDateTime": "2025-06-02T15:46:20Z",
        "specimen": {
          "reference": "urn:uuid:af04dfe3-d30d-4897-a545-44ba440780f6"
        }
      }
    },
    {
      "fullUrl": "urn:uuid:74f572ba-0799-4233-9f74-d75f4aa7cfdc",
      "resource": {
        "resourceType": "Observation",
        "id": "74f572ba-0799-4233-9f74-d75f4aa7cfdc",
        "meta": {
          "profile": [
            "http://hl7.eu/fhir/laboratory/StructureDefinition/Observation-resultslab-eu-lab"
          ]
        },
        "performer": [
          {
            "display": "The Central European Lab"
          }
        ],
        "category": [
          {
            "coding": [
              {
                "system": "http://terminology.hl7.org/CodeSystem/observation-category",
                "code": "laboratory"
              }
            ]
          }
        ],
        "code": {
          "coding": [
            {
              "code": "6298-4",
              "system": "http://loinc.org",
              "display": "Potassium [Moles/volume] in Blood"
            }
          ],
          "text": "Potassium [Moles/volume] in Blood"
        },
        "valueQuantity": {
          "system": "http://unitsofmeasure.org",
          "value": 4.3,
          "unit": "mmol/L",
          "code": "mmol/L"
        },
        "referenceRange": [
          {
            "low": {
              "value": 3.5,
              "code": "mmol/L",
              "system": "http://unitsofmeasure.org"
            }
          },
          {
            "high": {
              "value": 5,
              "code": "mmol/L",
              "system": "http://unitsofmeasure.org"
            }
          }
        ],
        "text": {
          "status": "generated",
          "div": "<div xmlns=\"http://www.w3.org/1999/xhtml\"><table class=\"hl7__eu__lab__report\"><tr><th>Test</th><th>02-Jun-2025</th><th>Reference&#xA0;Range</th><th>Unit</th></tr><tr><td>Potassium [Moles/volume] in Blood</td><td>4.3</td><td>3.5 - 5</td><td></td><td>mmol/L</td></tr></table></div>"
        },
        "status": "final",
        "subject": {
          "reference": "urn:uuid:750c3a99-7327-4c54-893d-87ccdf019e67",
          "display": "Gioele Fabbri"
        },
        "effectiveDateTime": "2025-06-02T15:46:20Z",
        "specimen": {
          "reference": "urn:uuid:af04dfe3-d30d-4897-a545-44ba440780f6"
        }
      }
    },
    {
      "fullUrl": "urn:uuid:34859542-28f7-4aab-a01a-3a702718b2cf",
      "resource": {
        "resourceType": "Observation",
        "id": "34859542-28f7-4aab-a01a-3a702718b2cf",
        "meta": {
          "profile": [
            "http://hl7.eu/fhir/laboratory/StructureDefinition/Observation-resultslab-eu-lab"
          ]
        },
        "performer": [
          {
            "display": "The Central European Lab"
          }
        ],
        "category": [
          {
            "coding": [
              {
                "system": "http://terminology.hl7.org/CodeSystem/observation-category",
                "code": "laboratory"
              }
            ]
          }
        ],
        "code": {
          "coding": [
            {
              "code": "2069-3",
              "system": "http://loinc.org",
              "display": "Chloride [Moles/volume] in Blood"
            }
          ],
          "text": "Chloride [Moles/volume] in Blood"
        },
        "valueQuantity": {
          "system": "http://unitsofmeasure.org",
          "value": 108.6,
          "unit": "mmol/L",
          "code": "mmol/L"
        },
        "referenceRange": [
          {
            "low": {
              "value": 98,
              "code": "mmol/L",
              "system": "http://unitsofmeasure.org"
            }
          },
          {
            "high": {
              "value": 107,
              "code": "mmol/L",
              "system": "http://unitsofmeasure.org"
            }
          }
        ],
        "interpretation": [
          {
            "coding": [
              {
                "code": "H",
                "system": "http://terminology.hl7.org/CodeSystem/v3-ObservationInterpretation",
                "display": "High"
              }
            ]
          }
        ],
        "text": {
          "status": "generated",
          "div": "<div xmlns=\"http://www.w3.org/1999/xhtml\"><table class=\"hl7__eu__lab__report\"><tr><th>Test</th><th>02-Jun-2025</th><th>Reference&#xA0;Range</th><th>Unit</th></tr><tr><td>Chloride [Moles/volume] in Blood</td><td>108.6</td><td>98 - 107</td><td>H</td><td>mmol/L</td></tr></table></div>"
        },
        "status": "final",
        "subject": {
          "reference": "urn:uuid:750c3a99-7327-4c54-893d-87ccdf019e67",
          "display": "Gioele Fabbri"
        },
        "effectiveDateTime": "2025-06-02T15:46:20Z",
        "specimen": {
          "reference": "urn:uuid:af04dfe3-d30d-4897-a545-44ba440780f6"
        }
      }
    },
    {
      "fullUrl": "urn:uuid:6c05b055-4cd5-4d4a-b61a-e289dae949e1",
      "resource": {
        "resourceType": "Observation",
        "id": "6c05b055-4cd5-4d4a-b61a-e289dae949e1",
        "meta": {
          "profile": [
            "http://hl7.eu/fhir/laboratory/StructureDefinition/Observation-resultslab-eu-lab"
          ]
        },
        "performer": [
          {
            "display": "The Central European Lab"
          }
        ],
        "category": [
          {
            "coding": [
              {
                "system": "http://terminology.hl7.org/CodeSystem/observation-category",
                "code": "laboratory"
              }
            ]
          }
        ],
        "code": {
          "coding": [
            {
              "code": "20565-8",
              "system": "http://loinc.org",
              "display": "Carbon dioxide, total [Moles/volume] in Blood"
            }
          ],
          "text": "Carbon dioxide, total [Moles/volume] in Blood"
        },
        "valueQuantity": {
          "system": "http://unitsofmeasure.org",
          "value": 24.7,
          "unit": "mmol/L",
          "code": "mmol/L"
        },
        "referenceRange": [
          {
            "low": {
              "value": 24,
              "code": "mmol/L",
              "system": "http://unitsofmeasure.org"
            }
          },
          {
            "high": {
              "value": 29,
              "code": "mmol/L",
              "system": "http://unitsofmeasure.org"
            }
          }
        ],
        "text": {
          "status": "generated",
          "div": "<div xmlns=\"http://www.w3.org/1999/xhtml\"><table class=\"hl7__eu__lab__report\"><tr><th>Test</th><th>02-Jun-2025</th><th>Reference&#xA0;Range</th><th>Unit</th></tr><tr><td>Carbon dioxide, total [Moles/volume] in Blood</td><td>24.7</td><td>24 - 29</td><td></td><td>mmol/L</td></tr></table></div>"
        },
        "status": "final",
        "subject": {
          "reference": "urn:uuid:750c3a99-7327-4c54-893d-87ccdf019e67",
          "display": "Gioele Fabbri"
        },
        "effectiveDateTime": "2025-06-02T15:46:20Z",
        "specimen": {
          "reference": "urn:uuid:af04dfe3-d30d-4897-a545-44ba440780f6"
        }
      }
    },
    {
      "fullUrl": "urn:uuid:69cb720a-e8c0-4cfb-9b15-32759b927549",
      "resource": {
        "resourceType": "Observation",
        "id": "69cb720a-e8c0-4cfb-9b15-32759b927549",
        "meta": {
          "profile": [
            "http://hl7.eu/fhir/laboratory/StructureDefinition/Observation-resultslab-eu-lab"
          ]
        },
        "performer": [
          {
            "display": "The Central European Lab"
          }
        ],
        "category": [
          {
            "coding": [
              {
                "system": "http://terminology.hl7.org/CodeSystem/observation-category",
                "code": "laboratory"
              }
            ]
          }
        ],
        "code": {
          "coding": [
            {
              "code": "2093-3",
              "system": "http://loinc.org",
              "display": "Cholesterol [Mass/volume] in Serum or Plasma"
            }
          ],
          "text": "Cholesterol [Mass/volume] in Serum or Plasma"
        },
        "valueQuantity": {
          "system": "http://unitsofmeasure.org",
          "value": 121.1,
          "unit": "mg/dL",
          "code": "mg/dL"
        },
        "referenceRange": [
          {
            "low": {
              "value": 125,
              "code": "mg/dL",
              "system": "http://unitsofmeasure.org"
            }
          },
          {
            "high": {
              "value": 200,
              "code": "mg/dL",
              "system": "http://unitsofmeasure.org"
            }
          }
        ],
        "interpretation": [
          {
            "coding": [
              {
                "code": "L",
                "system": "http://terminology.hl7.org/CodeSystem/v3-ObservationInterpretation",
                "display": "Low"
              }
            ]
          }
        ],
        "text": {
          "status": "generated",
          "div": "<div xmlns=\"http://www.w3.org/1999/xhtml\"><table class=\"hl7__eu__lab__report\"><tr><th>Test</th><th>02-Jun-2025</th><th>Reference&#xA0;Range</th><th>Unit</th></tr><tr><td>Cholesterol [Mass/volume] in Serum or Plasma</td><td>121.1</td><td>125 - 200</td><td>L</td><td>mg/dL</td></tr></table></div>"
        },
        "status": "final",
        "subject": {
          "reference": "urn:uuid:750c3a99-7327-4c54-893d-87ccdf019e67",
          "display": "Gioele Fabbri"
        },
        "effectiveDateTime": "2025-06-02T15:46:20Z",
        "specimen": {
          "reference": "urn:uuid:91d9b6f6-1616-4ab4-a759-0314938fc0b2"
        }
      }
    },
    {
      "fullUrl": "urn:uuid:3b4ea067-628f-4337-8258-a86fb71b398c",
      "resource": {
        "resourceType": "Observation",
        "id": "3b4ea067-628f-4337-8258-a86fb71b398c",
        "meta": {
          "profile": [
            "http://hl7.eu/fhir/laboratory/StructureDefinition/Observation-resultslab-eu-lab"
          ]
        },
        "performer": [
          {
            "display": "The Central European Lab"
          }
        ],
        "category": [
          {
            "coding": [
              {
                "system": "http://terminology.hl7.org/CodeSystem/observation-category",
                "code": "laboratory"
              }
            ]
          }
        ],
        "code": {
          "coding": [
            {
              "code": "2571-8",
              "system": "http://loinc.org",
              "display": "Triglyceride [Mass/volume] in Serum or Plasma"
            }
          ],
          "text": "Triglyceride [Mass/volume] in Serum or Plasma"
        },
        "valueQuantity": {
          "system": "http://unitsofmeasure.org",
          "value": 113.6,
          "unit": "mg/dL",
          "code": "mg/dL"
        },
        "referenceRange": [
          {
            "low": {
              "value": 0,
              "code": "mg/dL",
              "system": "http://unitsofmeasure.org"
            }
          },
          {
            "high": {
              "value": 150,
              "code": "mg/dL",
              "system": "http://unitsofmeasure.org"
            }
          }
        ],
        "text": {
          "status": "generated",
          "div": "<div xmlns=\"http://www.w3.org/1999/xhtml\"><table class=\"hl7__eu__lab__report\"><tr><th>Test</th><th>02-Jun-2025</th><th>Reference&#xA0;Range</th><th>Unit</th></tr><tr><td>Triglyceride [Mass/volume] in Serum or Plasma</td><td>113.6</td><td>0 - 150</td><td></td><td>mg/dL</td></tr></table></div>"
        },
        "status": "final",
        "subject": {
          "reference": "urn:uuid:750c3a99-7327-4c54-893d-87ccdf019e67",
          "display": "Gioele Fabbri"
        },
        "effectiveDateTime": "2025-06-02T15:46:20Z",
        "specimen": {
          "reference": "urn:uuid:91d9b6f6-1616-4ab4-a759-0314938fc0b2"
        }
      }
    },
    {
      "fullUrl": "urn:uuid:bbfdf33e-4f0d-471c-8566-b8cad03bc475",
      "resource": {
        "resourceType": "Observation",
        "id": "bbfdf33e-4f0d-471c-8566-b8cad03bc475",
        "meta": {
          "profile": [
            "http://hl7.eu/fhir/laboratory/StructureDefinition/Observation-resultslab-eu-lab"
          ]
        },
        "performer": [
          {
            "display": "The Central European Lab"
          }
        ],
        "category": [
          {
            "coding": [
              {
                "system": "http://terminology.hl7.org/CodeSystem/observation-category",
                "code": "laboratory"
              }
            ]
          }
        ],
        "code": {
          "coding": [
            {
              "code": "18262-6",
              "system": "http://loinc.org",
              "display": "Cholesterol in LDL [Mass/volume] in Serum or Plasma by Direct assay"
            }
          ],
          "text": "Cholesterol in LDL [Mass/volume] in Serum or Plasma by Direct assay"
        },
        "valueQuantity": {
          "system": "http://unitsofmeasure.org",
          "value": 46.3,
          "unit": "mg/dL",
          "code": "mg/dL"
        },
        "referenceRange": [
          {
            "low": {
              "value": 0,
              "code": "mg/dL",
              "system": "http://unitsofmeasure.org"
            }
          },
          {
            "high": {
              "value": 130,
              "code": "mg/dL",
              "system": "http://unitsofmeasure.org"
            }
          }
        ],
        "text": {
          "status": "generated",
          "div": "<div xmlns=\"http://www.w3.org/1999/xhtml\"><table class=\"hl7__eu__lab__report\"><tr><th>Test</th><th>02-Jun-2025</th><th>Reference&#xA0;Range</th><th>Unit</th></tr><tr><td>Cholesterol in LDL [Mass/volume] in Serum or Plasma by Direct assay</td><td>46.3</td><td>0 - 130</td><td></td><td>mg/dL</td></tr></table></div>"
        },
        "status": "final",
        "subject": {
          "reference": "urn:uuid:750c3a99-7327-4c54-893d-87ccdf019e67",
          "display": "Gioele Fabbri"
        },
        "effectiveDateTime": "2025-06-02T15:46:20Z",
        "specimen": {
          "reference": "urn:uuid:91d9b6f6-1616-4ab4-a759-0314938fc0b2"
        }
      }
    },
    {
      "fullUrl": "urn:uuid:899f66d0-8658-48b5-999b-7b8d200b6115",
      "resource": {
        "resourceType": "Observation",
        "id": "899f66d0-8658-48b5-999b-7b8d200b6115",
        "meta": {
          "profile": [
            "http://hl7.eu/fhir/laboratory/StructureDefinition/Observation-resultslab-eu-lab"
          ]
        },
        "performer": [
          {
            "display": "The Central European Lab"
          }
        ],
        "category": [
          {
            "coding": [
              {
                "system": "http://terminology.hl7.org/CodeSystem/observation-category",
                "code": "laboratory"
              }
            ]
          }
        ],
        "code": {
          "coding": [
            {
              "code": "2085-9",
              "system": "http://loinc.org",
              "display": "Cholesterol in HDL [Mass/volume] in Serum or Plasma"
            }
          ],
          "text": "Cholesterol in HDL [Mass/volume] in Serum or Plasma"
        },
        "valueQuantity": {
          "system": "http://unitsofmeasure.org",
          "value": 52.1,
          "unit": "mg/dL",
          "code": "mg/dL"
        },
        "referenceRange": [
          {
            "low": {
              "value": 40,
              "code": "mg/dL",
              "system": "http://unitsofmeasure.org"
            }
          },
          {
            "high": {
              "value": 100,
              "code": "mg/dL",
              "system": "http://unitsofmeasure.org"
            }
          }
        ],
        "text": {
          "status": "generated",
          "div": "<div xmlns=\"http://www.w3.org/1999/xhtml\"><table class=\"hl7__eu__lab__report\"><tr><th>Test</th><th>02-Jun-2025</th><th>Reference&#xA0;Range</th><th>Unit</th></tr><tr><td>Cholesterol in HDL [Mass/volume] in Serum or Plasma</td><td>52.1</td><td>40 - 100</td><td></td><td>mg/dL</td></tr></table></div>"
        },
        "status": "final",
        "subject": {
          "reference": "urn:uuid:750c3a99-7327-4c54-893d-87ccdf019e67",
          "display": "Gioele Fabbri"
        },
        "effectiveDateTime": "2025-06-02T15:46:20Z",
        "specimen": {
          "reference": "urn:uuid:91d9b6f6-1616-4ab4-a759-0314938fc0b2"
        }
      }
    },
    {
      "fullUrl": "urn:uuid:698507ba-0e91-4e26-aaf6-a8346c35bc8d",
      "resource": {
        "resourceType": "Device",
        "id": "698507ba-0e91-4e26-aaf6-a8346c35bc8d",
        "deviceName": [
          {
            "name": "SYNDERAI Synthetic Generator",
            "type": "manufacturer-name"
          }
        ],
        "version": [
          {
            "value": "5.0"
          }
        ],
        "text": {
          "status": "generated",
          "div": "<div xmlns=\"http://www.w3.org/1999/xhtml\">SYNDERAI Synthetic Generator v5.0</div>"
        },
        "status": "active\"",
        "distinctIdentifier": "synderai-generator-50",
        "manufacturer": "SYNDERAI Project"
      }
    },
    {
      "fullUrl": "urn:uuid:54f199e9-b936-45a0-ab8e-c4bfb7b30acd",
      "resource": {
        "resourceType": "Provenance",
        "id": "54f199e9-b936-45a0-ab8e-c4bfb7b30acd",
        "target": [
          {
            "reference": "Patient/750c3a99-7327-4c54-893d-87ccdf019e67"
          },
          {
            "reference": "Bundle/49429210-7955-4649-9b95-3fefdf595bc7"
          },
          {
            "reference": "Composition/d7f8cbd6-3f85-49e5-a293-72d72cb8445a"
          },
          {
            "reference": "PractitionerRole/90fc736e-da1a-427c-983d-fabe1e450d19"
          },
          {
            "reference": "Practitioner/b53f4e7f-c0eb-4e31-a212-f28201c22709"
          },
          {
            "reference": "PractitionerRole/625ff1d6-da85-46d5-8978-1d1c15aa822c"
          },
          {
            "reference": "Organization/0277fd4d-e604-4df6-be0c-11cf8a33a5ea"
          }
        ],
        "activity": {
          "text": "Synthetic Example Data Generation"
        },
        "policy": [
          "https://synderai.net/synderai-synthetic-data-policy"
        ],
        "agent": [
          {
            "type": {
              "text": "author"
            },
            "who": {
              "reference": "Device/698507ba-0e91-4e26-aaf6-a8346c35bc8d"
            }
          }
        ],
        "reason": [
          {
            "text": "Interoperability Testing and Training (non-clinical use)"
          }
        ],
        "text": {
          "status": "generated",
          "div": "<div xmlns=\"http://www.w3.org/1999/xhtml\">Provenance for SYNDERAI Synthetic Example Data Resource</div>"
        },
        "recorded": "2025-06-02T17:46:20Z"
      }
    },
    {
      "fullUrl": "urn:uuid:90fc736e-da1a-427c-983d-fabe1e450d19",
      "resource": {
        "resourceType": "PractitionerRole",
        "id": "90fc736e-da1a-427c-983d-fabe1e450d19",
        "meta": {
          "profile": [
            "http://hl7.eu/fhir/base/StructureDefinition/practitionerRole-eu"
          ]
        },
        "text": {
          "status": "generated",
          "div": "<div xmlns=\"http://www.w3.org/1999/xhtml\">Laboratory Role Id: 90fc736e-da1a-427c-983d-fabe1e450d19</div>"
        },
        "practitioner": {
          "reference": "urn:uuid:b53f4e7f-c0eb-4e31-a212-f28201c22709"
        }
      }
    },
    {
      "fullUrl": "urn:uuid:b53f4e7f-c0eb-4e31-a212-f28201c22709",
      "resource": {
        "resourceType": "Practitioner",
        "id": "b53f4e7f-c0eb-4e31-a212-f28201c22709",
        "meta": {
          "profile": [
            "http://hl7.eu/fhir/base/StructureDefinition/practitioner-eu"
          ]
        },
        "identifier": [
          {
            "assigner": {
              "display": "HL7 Europe"
            },
            "system": "urn:oid:2.16.840.1.113883.2.51.999",
            "value": "7da0510a-1493-46b3-b732-f05c9ae97d88"
          }
        ],
        "name": [
          {
            "prefix": [
              "dr"
            ],
            "given": [
              "Ex"
            ],
            "family": "Ample"
          }
        ],
        "address": [
          {
            "line": [
              "Laboratoire Central Européenne",
              "Boulevard du Jardin Botanique 32"
            ],
            "postalCode": "1000",
            "city": "Brussels",
            "country": "Belgium"
          }
        ],
        "text": {
          "status": "generated",
          "div": "<div xmlns=\"http://www.w3.org/1999/xhtml\">Laboratory: Laboratoire Central Européenne, 1000 Brussels, Belgium</div>"
        }
      }
    }
  ],
  "type": "document",
  "timestamp": "2025-06-02T17:46:20Z"
}
