{
  "resourceType": "Bundle",
  "id": "9b508f57-60e7-44ed-b505-b57eb203d700",
  "meta": {
    "profile": [
      "http://hl7.eu/fhir/laboratory/StructureDefinition/Bundle-eu-lab"
    ]
  },
  "identifier": {
    "assigner": {
      "display": "HL7 Europe"
    },
    "system": "urn:oid:2.16.840.1.113883.2.51.999",
    "value": "51bede4a-472e-42a4-8577-09385ce60137"
  },
  "entry": [
    {
      "fullUrl": "urn:uuid:5e368641-c9f8-4fb1-9577-38beaaf0dac5",
      "resource": {
        "resourceType": "Composition",
        "id": "5e368641-c9f8-4fb1-9577-38beaaf0dac5",
        "meta": {
          "profile": [
            "http://hl7.eu/fhir/laboratory/StructureDefinition/Composition-eu-lab"
          ]
        },
        "identifier": {
          "assigner": {
            "display": "HL7 Europe"
          },
          "system": "urn:oid:2.16.840.1.113883.2.51.999",
          "value": "f1cac226-fbe3-48f4-bbfa-b0604f1669f9"
        },
        "author": [
          {
            "reference": "urn:uuid:b765a90d-7486-42c7-a4e2-5a23a775b0fd"
          }
        ],
        "category": [
          {
            "coding": [
              {
                "code": "26436-6",
                "system": "http://loinc.org",
                "display": "Laboratory studies (set)"
              }
            ]
          }
        ],
        "type": {
          "coding": [
            {
              "code": "11502-2",
              "system": "http://loinc.org",
              "display": "Laboratory report"
            }
          ],
          "text": "Laboratory Report"
        },
        "section": [
          {
            "code": {
              "coding": [
                {
                  "code": "26436-6",
                  "system": "http://loinc.org",
                  "display": "Laboratory studies (set)"
                }
              ],
              "text": "Laboratory studies"
            },
            "section": [
              {
                "code": {
                  "coding": [
                    {
                      "code": "$18719-5",
                      "system": "http://loinc.org",
                      "display": "Chemistry studies (set)"
                    }
                  ],
                  "text": "Chemistry"
                },
                "entry": [
                  {
                    "reference": "urn:uuid:1eb3704c-e5f6-44d9-acdb-335fd07db9d2"
                  },
                  {
                    "reference": "urn:uuid:40aef905-c246-4824-9ec7-6939ecd712d6"
                  },
                  {
                    "reference": "urn:uuid:faba3cc6-f110-42b1-b378-01f9836cbf8c"
                  },
                  {
                    "reference": "urn:uuid:b24f12c2-7b19-468f-a475-7d9441bd08f3"
                  },
                  {
                    "reference": "urn:uuid:22814d5d-d8bf-4fae-bf96-483f48eb1f82"
                  },
                  {
                    "reference": "urn:uuid:142c2b76-523d-45c9-a25a-5c2521f7e719"
                  },
                  {
                    "reference": "urn:uuid:46cabb11-c2ef-41ad-a78c-324dad1db531"
                  },
                  {
                    "reference": "urn:uuid:6d5b0229-ee9e-4905-aac1-ac7c5b6dbf33"
                  },
                  {
                    "reference": "urn:uuid:e1dc1271-7707-4607-b9a1-355623a7ae00"
                  },
                  {
                    "reference": "urn:uuid:0a59ece8-5e54-4f23-aee5-2dd7657bf979"
                  },
                  {
                    "reference": "urn:uuid:5be236d6-5a7b-4163-bdad-0f581a0e8295"
                  },
                  {
                    "reference": "urn:uuid:b8f6a27c-1bc1-423f-b696-3c68a05a322f"
                  },
                  {
                    "reference": "urn:uuid:1960fdce-02f3-489e-8d59-eef457b11486"
                  },
                  {
                    "reference": "urn:uuid:8e897c12-b4be-49f6-a4c7-4ae80eb464b1"
                  },
                  {
                    "reference": "urn:uuid:379704e8-a915-4970-b309-bc4bdb562f8f"
                  },
                  {
                    "reference": "urn:uuid:c7d0c489-8a61-4e8d-a5b6-afa69f85ba27"
                  },
                  {
                    "reference": "urn:uuid:f76eac33-5b4a-4238-8c22-4f75a4384dfc"
                  },
                  {
                    "reference": "urn:uuid:df0fafd5-e024-4f28-8ff9-6956180def59"
                  }
                ],
                "text": {
                  "status": "generated",
                  "div": "<div xmlns=\"http://www.w3.org/1999/xhtml\"><h3>Chemistry</h3><table class=\"hl7__eu__lab__report\"><thead><tr><th>Test</th><th>18-DEC-2024</th><th>Reference&#xA0;Range</th><th>Unit</th></tr></thead><tbody><tr><td>Glucose [Mass/volume] in Serum or Plasma</td><td>71.0</td><td>70 - 140</td><td>mg/dL</td></tr><tr><td>Urea nitrogen [Mass/volume] in Serum or Plasma</td><td>15.0</td><td>7 - 20</td><td>mg/dL</td></tr><tr><td>Creatinine [Mass/volume] in Serum or Plasma</td><td><strong>2.1 H</strong></td><td>0.9 - 1.3</td><td>mg/dL</td></tr><tr><td>Calcium [Mass/volume] in Serum or Plasma</td><td>9.0</td><td>8.5 - 10.5</td><td>mg/dL</td></tr><tr><td>Sodium [Moles/volume] in Serum or Plasma</td><td>143.3</td><td>135 - 145</td><td>mmol/L</td></tr><tr><td>Potassium [Moles/volume] in Serum or Plasma</td><td>3.8</td><td>3.5 - 5</td><td>mmol/L</td></tr><tr><td>Chloride [Moles/volume] in Serum or Plasma</td><td><strong>108.5 H</strong></td><td>98 - 108</td><td>mmol/L</td></tr><tr><td>Carbon dioxide, total [Moles/volume] in Serum or Plasma</td><td>25.1</td><td>22 - 29</td><td>mmol/L</td></tr><tr><td>Ketones [Presence] in Urine by Test strip</td><td>Urine ketone test = ++</td><td></td><td></td></tr><tr><td>Hemoglobin A1c/Hemoglobin.total in Blood</td><td><strong>3.1 L</strong></td><td>4.3 - 6.4</td><td>%</td></tr><tr><td>Glucose [Mass/volume] in Blood</td><td>71.0</td><td>70 - 140</td><td>mg/dL</td></tr><tr><td>Urea nitrogen [Mass/volume] in Blood</td><td>15.0</td><td>7 - 20</td><td>mg/dL</td></tr><tr><td>Creatinine [Mass/volume] in Blood</td><td><strong>5.4 H</strong></td><td>0.6 - 1.3</td><td>mg/dL</td></tr><tr><td>Calcium [Mass/volume] in Blood</td><td>9.0</td><td>8.5 - 10.5</td><td>mg/dL</td></tr><tr><td>Sodium [Moles/volume] in Blood</td><td>143.3</td><td>135 - 145</td><td>mmol/L</td></tr><tr><td>Potassium [Moles/volume] in Blood</td><td>3.8</td><td>3.5 - 5.3</td><td>mmol/L</td></tr><tr><td>Chloride [Moles/volume] in Blood</td><td>108.5</td><td>98 - 110</td><td>mmol/L</td></tr><tr><td>Carbon dioxide, total [Moles/volume] in Blood</td><td>25.1</td><td>22 - 29</td><td>mmol/L</td></tr></tbody></table></div>"
                },
                "title": "Chemistry"
              },
              {
                "code": {
                  "coding": [
                    {
                      "code": "$18729-4",
                      "system": "http://loinc.org",
                      "display": "Urinalysis studies (set)"
                    }
                  ],
                  "text": "Urinalysis"
                },
                "entry": [
                  {
                    "reference": "urn:uuid:e26676a0-6fd6-4651-b917-dd476ef12fac"
                  },
                  {
                    "reference": "urn:uuid:ebc74303-31a1-4a76-b510-a92e8d4adf97"
                  },
                  {
                    "reference": "urn:uuid:b60340b1-8e6f-449e-af7a-b0c9f1cb3461"
                  },
                  {
                    "reference": "urn:uuid:46621aac-5209-4250-84df-5e60b7c9934c"
                  },
                  {
                    "reference": "urn:uuid:66e350e7-dd3c-446d-8997-602c8d5d41e7"
                  },
                  {
                    "reference": "urn:uuid:14d992be-f6aa-4ef5-b68d-dd2af7b492ae"
                  },
                  {
                    "reference": "urn:uuid:b553392b-1ba6-484d-946d-b2268e7d128c"
                  },
                  {
                    "reference": "urn:uuid:0d3d26e6-ddd6-4f43-8f8e-68955dc51bd3"
                  },
                  {
                    "reference": "urn:uuid:26dd372a-42df-4f50-ac5b-415de15564a2"
                  },
                  {
                    "reference": "urn:uuid:8552b8d5-d6f3-4120-8c68-c8631a9706ec"
                  },
                  {
                    "reference": "urn:uuid:592c83a6-6f1d-482a-a7e4-56613f7514ee"
                  },
                  {
                    "reference": "urn:uuid:f9294e03-472e-433e-a5bb-56041f580c51"
                  }
                ],
                "text": {
                  "status": "generated",
                  "div": "<div xmlns=\"http://www.w3.org/1999/xhtml\"><h3>Urinalysis</h3><table class=\"hl7__eu__lab__report\"><thead><tr><th>Test</th><th>18-DEC-2024</th><th>Reference&#xA0;Range</th><th>Unit</th></tr></thead><tbody><tr><td>Glucose [Mass/volume] in Urine by Test strip</td><td>0.6</td><td>0 - 0.8</td><td>mg/dL</td></tr><tr><td>Glucose [Presence] in Urine by Test strip</td><td>++</td><td></td><td></td></tr><tr><td>Bilirubin.total [Mass/volume] in Urine by Test strip</td><td>1.0</td><td>0.2 - 1</td><td>mg/dL</td></tr><tr><td>Bilirubin.total [Presence] in Urine by Test strip</td><td>Finding of bilirubin in urine</td><td></td><td></td></tr><tr><td>Ketones [Mass/volume] in Urine by Test strip</td><td><strong>5.6 H</strong></td><td>0 - 5</td><td>mg/dL</td></tr><tr><td>Specific gravity of Urine by Test strip</td><td><strong>1.0 L</strong></td><td>1.005 - 1.03</td><td>{nominal}</td></tr><tr><td>pH of Urine by Test strip</td><td>6.7</td><td>4.6 - 7</td><td>pH</td></tr><tr><td>Protein [Mass/volume] in Urine by Test strip</td><td><strong>288.2 H</strong></td><td>0 - 150</td><td>mg/dL</td></tr><tr><td>Protein [Presence] in Urine by Test strip</td><td>Urine protein test = ++</td><td></td><td></td></tr><tr><td>Nitrite [Presence] in Urine by Test strip</td><td>Urine nitrite negative</td><td></td><td></td></tr><tr><td>Hemoglobin [Presence] in Urine by Test strip</td><td>Urine blood test = negative</td><td></td><td></td></tr><tr><td>Leukocyte esterase [Presence] in Urine by Test strip</td><td>Urine leukocyte test negative</td><td></td><td></td></tr></tbody></table></div>"
                },
                "title": "Urinalysis"
              },
              {
                "code": {
                  "coding": [
                    {
                      "code": "$LP7846-1",
                      "system": "http://loinc.org",
                      "display": "Specimen information"
                    }
                  ],
                  "text": "Specimen information"
                },
                "entry": [
                  {
                    "reference": "urn:uuid:74855456-09ff-45d8-b4ee-dfcf6ebe62ce"
                  },
                  {
                    "reference": "urn:uuid:e09d24eb-ca04-4f20-ac24-54040f843875"
                  },
                  {
                    "reference": "urn:uuid:3406abf6-8425-42dd-8a33-a07cd1584663"
                  },
                  {
                    "reference": "urn:uuid:0c9134d5-2b6d-4160-8754-3717543c84f1"
                  }
                ],
                "text": {
                  "status": "generated",
                  "div": "<div xmlns=\"http://www.w3.org/1999/xhtml\"><h3>Specimen information</h3><table class=\"hl7__eu__lab__report\"><thead><tr><th>Test</th><th>18-DEC-2024</th><th>Specimen</th><th></th></tr></thead><tbody><tr><td>Appearance of Urine</td><td>Cloudy urine</td><td>Urine</td><td></td></tr><tr><td>Odor of Urine</td><td>Urine smell ammoniacal</td><td>Urine</td><td></td></tr><tr><td>Clarity of Urine</td><td>Translucent</td><td>Urine</td><td></td></tr><tr><td>Color of Urine</td><td>Brown color</td><td>Urine</td><td></td></tr></tbody></table></div>"
                },
                "title": "Specimen information"
              }
            ],
            "title": "Laboratory Report"
          },
          {
            "text": {
              "status": "generated",
              "div": "<div xmlns=\"http://www.w3.org/1999/xhtml\"><h3>Annotation</h3><table class=\"hl7__eu__lab__report\"><tr><th>Conclusion and Recommendations based on this report and previous findings known to us</th></tr><tr><td>The patient shows markedly elevated creatinine, proteinuria, and abnormal urine findings (cloudy, brown, low specific gravity, ketonuria, bilirubinuria), suggesting significant renal dysfunction, possibly acute or chronic kidney disease. Low HbA1c and normal glucose argue against diabetes. No evidence of urinary tract infection. Recommend urgent nephrology evaluation and further workup for underlying renal pathology.</td></tr></table></div>"
            },
            "code": {
              "coding": [
                {
                  "system": "http://loinc.org",
                  "code": "48767-8",
                  "display": "Annotation comment"
                }
              ]
            },
            "title": "Annotation comment"
          }
        ],
        "status": "final",
        "subject": {
          "reference": "urn:uuid:bfdfd106-086e-45c5-93b4-3f5aece79940",
          "display": "Θεμιστοκλής Λιναρδάκη"
        },
        "date": "2024-12-18T07:16:00Z",
        "title": "Laboratory Report",
        "confidentiality": "N"
      }
    },
    {
      "fullUrl": "urn:uuid:8442e850-860e-43ba-a946-38eba0b931a3",
      "resource": {
        "resourceType": "DiagnosticReport",
        "id": "8442e850-860e-43ba-a946-38eba0b931a3",
        "meta": {
          "profile": [
            "http://hl7.eu/fhir/laboratory/StructureDefinition/DiagnosticReport-eu-lab"
          ]
        },
        "identifier": [
          {
            "assigner": {
              "display": "HL7 Europe"
            },
            "system": "urn:oid:2.16.840.1.113883.2.51.999",
            "value": "4b018175-959d-4d53-991a-3fea4ca044da"
          }
        ],
        "extension": [
          {
            "url": "http://hl7.org/fhir/5.0/StructureDefinition/extension-DiagnosticReport.composition",
            "valueReference": {
              "reference": "urn:uuid:f1cac226-fbe3-48f4-bbfa-b0604f1669f9"
            }
          }
        ],
        "category": [
          {
            "coding": [
              {
                "code": "26436-6",
                "system": "http://loinc.org",
                "display": "Laboratory studies (set)"
              }
            ]
          }
        ],
        "specimen": [
          {
            "reference": "urn:uuid:db4f7081-e1af-419d-bf19-30325d138c78"
          },
          {
            "reference": "urn:uuid:f4063095-58fb-4445-8cd0-db8027c62c01"
          },
          {
            "reference": "urn:uuid:a04c801d-57d7-4b4a-be69-4b0bf04eff5e"
          }
        ],
        "result": [
          {
            "reference": "urn:uuid:1eb3704c-e5f6-44d9-acdb-335fd07db9d2"
          },
          {
            "reference": "urn:uuid:40aef905-c246-4824-9ec7-6939ecd712d6"
          },
          {
            "reference": "urn:uuid:faba3cc6-f110-42b1-b378-01f9836cbf8c"
          },
          {
            "reference": "urn:uuid:b24f12c2-7b19-468f-a475-7d9441bd08f3"
          },
          {
            "reference": "urn:uuid:22814d5d-d8bf-4fae-bf96-483f48eb1f82"
          },
          {
            "reference": "urn:uuid:142c2b76-523d-45c9-a25a-5c2521f7e719"
          },
          {
            "reference": "urn:uuid:46cabb11-c2ef-41ad-a78c-324dad1db531"
          },
          {
            "reference": "urn:uuid:6d5b0229-ee9e-4905-aac1-ac7c5b6dbf33"
          },
          {
            "reference": "urn:uuid:74855456-09ff-45d8-b4ee-dfcf6ebe62ce"
          },
          {
            "reference": "urn:uuid:e09d24eb-ca04-4f20-ac24-54040f843875"
          },
          {
            "reference": "urn:uuid:3406abf6-8425-42dd-8a33-a07cd1584663"
          },
          {
            "reference": "urn:uuid:0c9134d5-2b6d-4160-8754-3717543c84f1"
          },
          {
            "reference": "urn:uuid:e26676a0-6fd6-4651-b917-dd476ef12fac"
          },
          {
            "reference": "urn:uuid:ebc74303-31a1-4a76-b510-a92e8d4adf97"
          },
          {
            "reference": "urn:uuid:b60340b1-8e6f-449e-af7a-b0c9f1cb3461"
          },
          {
            "reference": "urn:uuid:46621aac-5209-4250-84df-5e60b7c9934c"
          },
          {
            "reference": "urn:uuid:66e350e7-dd3c-446d-8997-602c8d5d41e7"
          },
          {
            "reference": "urn:uuid:e1dc1271-7707-4607-b9a1-355623a7ae00"
          },
          {
            "reference": "urn:uuid:14d992be-f6aa-4ef5-b68d-dd2af7b492ae"
          },
          {
            "reference": "urn:uuid:b553392b-1ba6-484d-946d-b2268e7d128c"
          },
          {
            "reference": "urn:uuid:0d3d26e6-ddd6-4f43-8f8e-68955dc51bd3"
          },
          {
            "reference": "urn:uuid:26dd372a-42df-4f50-ac5b-415de15564a2"
          },
          {
            "reference": "urn:uuid:8552b8d5-d6f3-4120-8c68-c8631a9706ec"
          },
          {
            "reference": "urn:uuid:592c83a6-6f1d-482a-a7e4-56613f7514ee"
          },
          {
            "reference": "urn:uuid:f9294e03-472e-433e-a5bb-56041f580c51"
          },
          {
            "reference": "urn:uuid:0a59ece8-5e54-4f23-aee5-2dd7657bf979"
          },
          {
            "reference": "urn:uuid:5be236d6-5a7b-4163-bdad-0f581a0e8295"
          },
          {
            "reference": "urn:uuid:b8f6a27c-1bc1-423f-b696-3c68a05a322f"
          },
          {
            "reference": "urn:uuid:1960fdce-02f3-489e-8d59-eef457b11486"
          },
          {
            "reference": "urn:uuid:8e897c12-b4be-49f6-a4c7-4ae80eb464b1"
          },
          {
            "reference": "urn:uuid:379704e8-a915-4970-b309-bc4bdb562f8f"
          },
          {
            "reference": "urn:uuid:c7d0c489-8a61-4e8d-a5b6-afa69f85ba27"
          },
          {
            "reference": "urn:uuid:f76eac33-5b4a-4238-8c22-4f75a4384dfc"
          },
          {
            "reference": "urn:uuid:df0fafd5-e024-4f28-8ff9-6956180def59"
          }
        ],
        "status": "registered",
        "code": {
          "coding": [
            {
              "code": "11502-2",
              "system": "http://loinc.org",
              "display": "Laboratory report"
            }
          ]
        },
        "subject": {
          "reference": "urn:uuid:bfdfd106-086e-45c5-93b4-3f5aece79940",
          "display": "Θεμιστοκλής Λιναρδάκη"
        }
      }
    },
    {
      "fullUrl": "urn:uuid:bfdfd106-086e-45c5-93b4-3f5aece79940",
      "resource": {
        "resourceType": "Patient",
        "id": "bfdfd106-086e-45c5-93b4-3f5aece79940",
        "meta": {
          "security": [
            {
              "system": "http://terminology.hl7.org/CodeSystem/v3-ActReason",
              "code": "HTEST"
            },
            {
              "system": "http://terminology.hl7.org/CodeSystem/v3-ActReason",
              "code": "TRAIN"
            }
          ],
          "tag": [
            {
              "system": "https://synderai.net/fhir/CodeSystem/tags",
              "code": "synthetic",
              "display": "SYNDERAI Synthetic data"
            }
          ],
          "profile": [
            "http://hl7.eu/fhir/base/StructureDefinition/patient-eu-core"
          ]
        },
        "identifier": [
          {
            "type": {
              "coding": [
                {
                  "code": "PT",
                  "system": "http://terminology.hl7.org/CodeSystem/v2-0203"
                }
              ]
            },
            "system": "http://ec.europa.eu/identifier/eci",
            "value": "5962-476889-7"
          },
          {
            "type": {
              "coding": [
                {
                  "code": "MR",
                  "system": "http://terminology.hl7.org/CodeSystem/v2-0203"
                }
              ]
            },
            "system": "http://local.setting.eu/identifier",
            "value": "925e2603-2ef9-6bdf-1330-2ebf526636c4"
          }
        ],
        "name": [
          {
            "family": "Λιναρδάκη"
          },
          {
            "given": [
              "Θεμιστοκλής"
            ]
          },
          {
            "text": "Θεμιστοκλής Λιναρδάκη"
          }
        ],
        "address": [
          {
            "line": [
              "Αμαρύνθου 54-58"
            ],
            "use": "home",
            "type": "physical",
            "postalCode": "262 21",
            "city": "Πάτρα",
            "country": "Greece"
          }
        ],
        "telecom": [
          {
            "system": "phone",
            "value": "+302226364480"
          }
        ],
        "extension": [
          {
            "url": "http://hl7.org/fhir/StructureDefinition/patient-nationality",
            "valueCodeableConcept": {
              "coding": [
                {
                  "code": "GR",
                  "system": "http://hl7.org/fhir/ValueSet/country"
                }
              ]
            }
          }
        ],
        "text": {
          "status": "generated",
          "div": "<div xmlns=\"http://www.w3.org/1999/xhtml\"><table class=\"hl7__ips\"><tr><td>Θεμιστοκλής Λιναρδάκη</td><td>male</td><td>21-Jan-1974</td></tr></table></div>"
        },
        "gender": "male",
        "birthDate": "1974-01-21"
      }
    },
    {
      "fullUrl": "urn:uuid:56387aa1-6096-4c4e-9da8-2223470761f5",
      "resource": {
        "resourceType": "ServiceRequest",
        "id": "56387aa1-6096-4c4e-9da8-2223470761f5",
        "meta": {
          "profile": [
            "http://hl7.eu/fhir/laboratory/StructureDefinition/ServiceRequest-eu-lab"
          ]
        },
        "identifier": [
          {
            "system": "http://example.org",
            "value": "7392b8bd-29ed-4b55-bd35-630ffccd40d4"
          }
        ],
        "specimen": [
          {
            "reference": "urn:uuid:db4f7081-e1af-419d-bf19-30325d138c78"
          },
          {
            "reference": "urn:uuid:f4063095-58fb-4445-8cd0-db8027c62c01"
          },
          {
            "reference": "urn:uuid:a04c801d-57d7-4b4a-be69-4b0bf04eff5e"
          }
        ],
        "reasonCode": [
          {
            "coding": [
              {
                "code": "237602007",
                "system": "http://snomed.info/sct",
                "display": "Metabolic syndrome X"
              }
            ]
          },
          {
            "coding": [
              {
                "code": "433144002",
                "system": "http://snomed.info/sct",
                "display": "Chronic kidney disease stage 3"
              }
            ]
          },
          {
            "coding": [
              {
                "code": "157141000119108",
                "system": "http://snomed.info/sct",
                "display": "Proteinuria due to type 2 diabetes mellitus"
              }
            ]
          },
          {
            "coding": [
              {
                "code": "431856006",
                "system": "http://snomed.info/sct",
                "display": "Chronic kidney disease stage 2"
              }
            ]
          },
          {
            "coding": [
              {
                "code": "90781000119102",
                "system": "http://snomed.info/sct",
                "display": "Microalbuminuria due to type 2 diabetes mellitus"
              }
            ]
          },
          {
            "coding": [
              {
                "code": "127013003",
                "system": "http://snomed.info/sct",
                "display": "Disorder of kidney due to diabetes mellitus"
              }
            ]
          },
          {
            "coding": [
              {
                "code": "431855005",
                "system": "http://snomed.info/sct",
                "display": "Chronic kidney disease stage 1"
              }
            ]
          },
          {
            "coding": [
              {
                "code": "59621000",
                "system": "http://snomed.info/sct",
                "display": "Essential hypertension"
              }
            ]
          },
          {
            "coding": [
              {
                "code": "15777000",
                "system": "http://snomed.info/sct",
                "display": "Prediabetes"
              }
            ]
          },
          {
            "coding": [
              {
                "code": "271737000",
                "system": "http://snomed.info/sct",
                "display": "Anemia"
              }
            ]
          }
        ],
        "status": "active",
        "intent": "order",
        "code": {
          "coding": [
            {
              "code": "108252007",
              "system": "http://snomed.info/sct",
              "display": "Laboratory procedure"
            }
          ]
        },
        "subject": {
          "reference": "urn:uuid:bfdfd106-086e-45c5-93b4-3f5aece79940",
          "display": "Θεμιστοκλής Λιναρδάκη"
        },
        "requester": {
          "reference": "urn:uuid:7d73a630-cbb4-4473-a378-5546ad2b1e80"
        }
      }
    },
    {
      "fullUrl": "urn:uuid:7d73a630-cbb4-4473-a378-5546ad2b1e80",
      "resource": {
        "resourceType": "PractitionerRole",
        "id": "7d73a630-cbb4-4473-a378-5546ad2b1e80",
        "meta": {
          "profile": [
            "http://hl7.eu/fhir/base/StructureDefinition/practitionerRole-eu"
          ]
        },
        "text": {
          "status": "generated",
          "div": "<div xmlns=\"http://www.w3.org/1999/xhtml\">Provider Role Id: 7d73a630-cbb4-4473-a378-5546ad2b1e80</div>"
        },
        "organization": {
          "reference": "urn:uuid:d3c10bfd-67e8-4353-acc9-31c88f2ec542"
        }
      }
    },
    {
      "fullUrl": "urn:uuid:d3c10bfd-67e8-4353-acc9-31c88f2ec542",
      "resource": {
        "resourceType": "Organization",
        "id": "d3c10bfd-67e8-4353-acc9-31c88f2ec542",
        "meta": {
          "profile": [
            "http://hl7.eu/fhir/base/StructureDefinition/organization-eu"
          ]
        },
        "identifier": [
          {
            "assigner": {
              "display": "HL7 Europe"
            },
            "system": "urn:oid:2.16.840.1.113883.2.51.999",
            "value": "e0c077a4-993b-4ecd-b20a-9bae384d1c00"
          }
        ],
        "address": [
          {
            "line": [
              "211 Odós Filellinon"
            ],
            "city": "Patras",
            "postalCode": "262 21",
            "country": "Greece"
          }
        ],
        "text": {
          "status": "generated",
          "div": "<div xmlns=\"http://www.w3.org/1999/xhtml\">Provider Organization: Dr. Dimitris Economou</div>"
        },
        "name": "Dr. Dimitris Economou"
      }
    },
    {
      "fullUrl": "urn:uuid:db4f7081-e1af-419d-bf19-30325d138c78",
      "resource": {
        "resourceType": "Specimen",
        "id": "db4f7081-e1af-419d-bf19-30325d138c78",
        "meta": {
          "profile": [
            "http://hl7.eu/fhir/laboratory/StructureDefinition/Specimen-eu-lab"
          ]
        },
        "collection": {
          "collectedDateTime": "2024-12-18"
        },
        "text": {
          "status": "generated",
          "div": "<div xmlns=\"http://www.w3.org/1999/xhtml\"><table class=\"hl7__eu__lab__report\"><tr><th>Specimen</th><th>Collection Date</th></tr><tr><td>Acellular blood (serum or plasma) specimen</td><td><span class=\"nb\">18-Dec-2024</span></td></tr></table></div>"
        },
        "type": {
          "coding": [
            {
              "code": "122592007",
              "system": "http://snomed.info/sct",
              "display": "Acellular blood (serum or plasma) specimen"
            }
          ]
        }
      }
    },
    {
      "fullUrl": "urn:uuid:f4063095-58fb-4445-8cd0-db8027c62c01",
      "resource": {
        "resourceType": "Specimen",
        "id": "f4063095-58fb-4445-8cd0-db8027c62c01",
        "meta": {
          "profile": [
            "http://hl7.eu/fhir/laboratory/StructureDefinition/Specimen-eu-lab"
          ]
        },
        "collection": {
          "collectedDateTime": "2024-12-18"
        },
        "text": {
          "status": "generated",
          "div": "<div xmlns=\"http://www.w3.org/1999/xhtml\"><table class=\"hl7__eu__lab__report\"><tr><th>Specimen</th><th>Collection Date</th></tr><tr><td>Urine specimen</td><td><span class=\"nb\">18-Dec-2024</span></td></tr></table></div>"
        },
        "type": {
          "coding": [
            {
              "code": "122575003",
              "system": "http://snomed.info/sct",
              "display": "Urine specimen"
            }
          ]
        }
      }
    },
    {
      "fullUrl": "urn:uuid:a04c801d-57d7-4b4a-be69-4b0bf04eff5e",
      "resource": {
        "resourceType": "Specimen",
        "id": "a04c801d-57d7-4b4a-be69-4b0bf04eff5e",
        "meta": {
          "profile": [
            "http://hl7.eu/fhir/laboratory/StructureDefinition/Specimen-eu-lab"
          ]
        },
        "collection": {
          "collectedDateTime": "2024-12-18"
        },
        "text": {
          "status": "generated",
          "div": "<div xmlns=\"http://www.w3.org/1999/xhtml\"><table class=\"hl7__eu__lab__report\"><tr><th>Specimen</th><th>Collection Date</th></tr><tr><td>Whole blood specimen (specimen)</td><td><span class=\"nb\">18-Dec-2024</span></td></tr></table></div>"
        },
        "type": {
          "coding": [
            {
              "code": "258580003",
              "system": "http://snomed.info/sct",
              "display": "Whole blood specimen (specimen)"
            }
          ]
        }
      }
    },
    {
      "fullUrl": "urn:uuid:1eb3704c-e5f6-44d9-acdb-335fd07db9d2",
      "resource": {
        "resourceType": "Observation",
        "id": "1eb3704c-e5f6-44d9-acdb-335fd07db9d2",
        "meta": {
          "profile": [
            "http://hl7.eu/fhir/laboratory/StructureDefinition/Observation-resultslab-eu-lab"
          ]
        },
        "performer": [
          {
            "display": "The Central European Lab"
          }
        ],
        "category": [
          {
            "coding": [
              {
                "system": "http://terminology.hl7.org/CodeSystem/observation-category",
                "code": "laboratory"
              }
            ]
          }
        ],
        "code": {
          "coding": [
            {
              "code": "2345-7",
              "system": "http://loinc.org",
              "display": "Glucose [Mass/volume] in Serum or Plasma"
            }
          ],
          "text": "Glucose [Mass/volume] in Serum or Plasma"
        },
        "valueQuantity": {
          "system": "http://unitsofmeasure.org",
          "value": 71,
          "unit": "mg/dL",
          "code": "mg/dL"
        },
        "referenceRange": [
          {
            "low": {
              "value": 70,
              "code": "mg/dL",
              "system": "http://unitsofmeasure.org"
            }
          },
          {
            "high": {
              "value": 140,
              "code": "mg/dL",
              "system": "http://unitsofmeasure.org"
            }
          }
        ],
        "text": {
          "status": "generated",
          "div": "<div xmlns=\"http://www.w3.org/1999/xhtml\"><table class=\"hl7__eu__lab__report\"><tr><th>Test</th><th>18-Dec-2024</th><th>Reference&#xA0;Range</th><th>Unit</th></tr><tr><td>Glucose [Mass/volume] in Serum or Plasma</td><td>71.0</td><td>70 - 140</td><td></td><td>mg/dL</td></tr></table></div>"
        },
        "status": "final",
        "subject": {
          "reference": "urn:uuid:bfdfd106-086e-45c5-93b4-3f5aece79940",
          "display": "Θεμιστοκλής Λιναρδάκη"
        },
        "effectiveDateTime": "2024-12-18T06:16:00Z",
        "specimen": {
          "reference": "urn:uuid:db4f7081-e1af-419d-bf19-30325d138c78"
        }
      }
    },
    {
      "fullUrl": "urn:uuid:40aef905-c246-4824-9ec7-6939ecd712d6",
      "resource": {
        "resourceType": "Observation",
        "id": "40aef905-c246-4824-9ec7-6939ecd712d6",
        "meta": {
          "profile": [
            "http://hl7.eu/fhir/laboratory/StructureDefinition/Observation-resultslab-eu-lab"
          ]
        },
        "performer": [
          {
            "display": "The Central European Lab"
          }
        ],
        "category": [
          {
            "coding": [
              {
                "system": "http://terminology.hl7.org/CodeSystem/observation-category",
                "code": "laboratory"
              }
            ]
          }
        ],
        "code": {
          "coding": [
            {
              "code": "3094-0",
              "system": "http://loinc.org",
              "display": "Urea nitrogen [Mass/volume] in Serum or Plasma"
            }
          ],
          "text": "Urea nitrogen [Mass/volume] in Serum or Plasma"
        },
        "valueQuantity": {
          "system": "http://unitsofmeasure.org",
          "value": 15,
          "unit": "mg/dL",
          "code": "mg/dL"
        },
        "referenceRange": [
          {
            "low": {
              "value": 7,
              "code": "mg/dL",
              "system": "http://unitsofmeasure.org"
            }
          },
          {
            "high": {
              "value": 20,
              "code": "mg/dL",
              "system": "http://unitsofmeasure.org"
            }
          }
        ],
        "text": {
          "status": "generated",
          "div": "<div xmlns=\"http://www.w3.org/1999/xhtml\"><table class=\"hl7__eu__lab__report\"><tr><th>Test</th><th>18-Dec-2024</th><th>Reference&#xA0;Range</th><th>Unit</th></tr><tr><td>Urea nitrogen [Mass/volume] in Serum or Plasma</td><td>15.0</td><td>7 - 20</td><td></td><td>mg/dL</td></tr></table></div>"
        },
        "status": "final",
        "subject": {
          "reference": "urn:uuid:bfdfd106-086e-45c5-93b4-3f5aece79940",
          "display": "Θεμιστοκλής Λιναρδάκη"
        },
        "effectiveDateTime": "2024-12-18T06:16:00Z",
        "specimen": {
          "reference": "urn:uuid:db4f7081-e1af-419d-bf19-30325d138c78"
        }
      }
    },
    {
      "fullUrl": "urn:uuid:faba3cc6-f110-42b1-b378-01f9836cbf8c",
      "resource": {
        "resourceType": "Observation",
        "id": "faba3cc6-f110-42b1-b378-01f9836cbf8c",
        "meta": {
          "profile": [
            "http://hl7.eu/fhir/laboratory/StructureDefinition/Observation-resultslab-eu-lab"
          ]
        },
        "performer": [
          {
            "display": "The Central European Lab"
          }
        ],
        "category": [
          {
            "coding": [
              {
                "system": "http://terminology.hl7.org/CodeSystem/observation-category",
                "code": "laboratory"
              }
            ]
          }
        ],
        "code": {
          "coding": [
            {
              "code": "2160-0",
              "system": "http://loinc.org",
              "display": "Creatinine [Mass/volume] in Serum or Plasma"
            }
          ],
          "text": "Creatinine [Mass/volume] in Serum or Plasma"
        },
        "valueQuantity": {
          "system": "http://unitsofmeasure.org",
          "value": 2.1,
          "unit": "mg/dL",
          "code": "mg/dL"
        },
        "referenceRange": [
          {
            "low": {
              "value": 0.9,
              "code": "mg/dL",
              "system": "http://unitsofmeasure.org"
            }
          },
          {
            "high": {
              "value": 1.3,
              "code": "mg/dL",
              "system": "http://unitsofmeasure.org"
            }
          }
        ],
        "interpretation": [
          {
            "coding": [
              {
                "code": "H",
                "system": "http://terminology.hl7.org/CodeSystem/v3-ObservationInterpretation",
                "display": "High"
              }
            ]
          }
        ],
        "text": {
          "status": "generated",
          "div": "<div xmlns=\"http://www.w3.org/1999/xhtml\"><table class=\"hl7__eu__lab__report\"><tr><th>Test</th><th>18-Dec-2024</th><th>Reference&#xA0;Range</th><th>Unit</th></tr><tr><td>Creatinine [Mass/volume] in Serum or Plasma</td><td>2.1</td><td>0.9 - 1.3</td><td>H</td><td>mg/dL</td></tr></table></div>"
        },
        "status": "final",
        "subject": {
          "reference": "urn:uuid:bfdfd106-086e-45c5-93b4-3f5aece79940",
          "display": "Θεμιστοκλής Λιναρδάκη"
        },
        "effectiveDateTime": "2024-12-18T06:16:00Z",
        "specimen": {
          "reference": "urn:uuid:db4f7081-e1af-419d-bf19-30325d138c78"
        }
      }
    },
    {
      "fullUrl": "urn:uuid:b24f12c2-7b19-468f-a475-7d9441bd08f3",
      "resource": {
        "resourceType": "Observation",
        "id": "b24f12c2-7b19-468f-a475-7d9441bd08f3",
        "meta": {
          "profile": [
            "http://hl7.eu/fhir/laboratory/StructureDefinition/Observation-resultslab-eu-lab"
          ]
        },
        "performer": [
          {
            "display": "The Central European Lab"
          }
        ],
        "category": [
          {
            "coding": [
              {
                "system": "http://terminology.hl7.org/CodeSystem/observation-category",
                "code": "laboratory"
              }
            ]
          }
        ],
        "code": {
          "coding": [
            {
              "code": "17861-6",
              "system": "http://loinc.org",
              "display": "Calcium [Mass/volume] in Serum or Plasma"
            }
          ],
          "text": "Calcium [Mass/volume] in Serum or Plasma"
        },
        "valueQuantity": {
          "system": "http://unitsofmeasure.org",
          "value": 9,
          "unit": "mg/dL",
          "code": "mg/dL"
        },
        "referenceRange": [
          {
            "low": {
              "value": 8.5,
              "code": "mg/dL",
              "system": "http://unitsofmeasure.org"
            }
          },
          {
            "high": {
              "value": 10.5,
              "code": "mg/dL",
              "system": "http://unitsofmeasure.org"
            }
          }
        ],
        "text": {
          "status": "generated",
          "div": "<div xmlns=\"http://www.w3.org/1999/xhtml\"><table class=\"hl7__eu__lab__report\"><tr><th>Test</th><th>18-Dec-2024</th><th>Reference&#xA0;Range</th><th>Unit</th></tr><tr><td>Calcium [Mass/volume] in Serum or Plasma</td><td>9.0</td><td>8.5 - 10.5</td><td></td><td>mg/dL</td></tr></table></div>"
        },
        "status": "final",
        "subject": {
          "reference": "urn:uuid:bfdfd106-086e-45c5-93b4-3f5aece79940",
          "display": "Θεμιστοκλής Λιναρδάκη"
        },
        "effectiveDateTime": "2024-12-18T06:16:00Z",
        "specimen": {
          "reference": "urn:uuid:db4f7081-e1af-419d-bf19-30325d138c78"
        }
      }
    },
    {
      "fullUrl": "urn:uuid:22814d5d-d8bf-4fae-bf96-483f48eb1f82",
      "resource": {
        "resourceType": "Observation",
        "id": "22814d5d-d8bf-4fae-bf96-483f48eb1f82",
        "meta": {
          "profile": [
            "http://hl7.eu/fhir/laboratory/StructureDefinition/Observation-resultslab-eu-lab"
          ]
        },
        "performer": [
          {
            "display": "The Central European Lab"
          }
        ],
        "category": [
          {
            "coding": [
              {
                "system": "http://terminology.hl7.org/CodeSystem/observation-category",
                "code": "laboratory"
              }
            ]
          }
        ],
        "code": {
          "coding": [
            {
              "code": "2951-2",
              "system": "http://loinc.org",
              "display": "Sodium [Moles/volume] in Serum or Plasma"
            }
          ],
          "text": "Sodium [Moles/volume] in Serum or Plasma"
        },
        "valueQuantity": {
          "system": "http://unitsofmeasure.org",
          "value": 143.3,
          "unit": "mmol/L",
          "code": "mmol/L"
        },
        "referenceRange": [
          {
            "low": {
              "value": 135,
              "code": "mmol/L",
              "system": "http://unitsofmeasure.org"
            }
          },
          {
            "high": {
              "value": 145,
              "code": "mmol/L",
              "system": "http://unitsofmeasure.org"
            }
          }
        ],
        "text": {
          "status": "generated",
          "div": "<div xmlns=\"http://www.w3.org/1999/xhtml\"><table class=\"hl7__eu__lab__report\"><tr><th>Test</th><th>18-Dec-2024</th><th>Reference&#xA0;Range</th><th>Unit</th></tr><tr><td>Sodium [Moles/volume] in Serum or Plasma</td><td>143.3</td><td>135 - 145</td><td></td><td>mmol/L</td></tr></table></div>"
        },
        "status": "final",
        "subject": {
          "reference": "urn:uuid:bfdfd106-086e-45c5-93b4-3f5aece79940",
          "display": "Θεμιστοκλής Λιναρδάκη"
        },
        "effectiveDateTime": "2024-12-18T06:16:00Z",
        "specimen": {
          "reference": "urn:uuid:db4f7081-e1af-419d-bf19-30325d138c78"
        }
      }
    },
    {
      "fullUrl": "urn:uuid:142c2b76-523d-45c9-a25a-5c2521f7e719",
      "resource": {
        "resourceType": "Observation",
        "id": "142c2b76-523d-45c9-a25a-5c2521f7e719",
        "meta": {
          "profile": [
            "http://hl7.eu/fhir/laboratory/StructureDefinition/Observation-resultslab-eu-lab"
          ]
        },
        "performer": [
          {
            "display": "The Central European Lab"
          }
        ],
        "category": [
          {
            "coding": [
              {
                "system": "http://terminology.hl7.org/CodeSystem/observation-category",
                "code": "laboratory"
              }
            ]
          }
        ],
        "code": {
          "coding": [
            {
              "code": "2823-3",
              "system": "http://loinc.org",
              "display": "Potassium [Moles/volume] in Serum or Plasma"
            }
          ],
          "text": "Potassium [Moles/volume] in Serum or Plasma"
        },
        "valueQuantity": {
          "system": "http://unitsofmeasure.org",
          "value": 3.8,
          "unit": "mmol/L",
          "code": "mmol/L"
        },
        "referenceRange": [
          {
            "low": {
              "value": 3.5,
              "code": "mmol/L",
              "system": "http://unitsofmeasure.org"
            }
          },
          {
            "high": {
              "value": 5,
              "code": "mmol/L",
              "system": "http://unitsofmeasure.org"
            }
          }
        ],
        "text": {
          "status": "generated",
          "div": "<div xmlns=\"http://www.w3.org/1999/xhtml\"><table class=\"hl7__eu__lab__report\"><tr><th>Test</th><th>18-Dec-2024</th><th>Reference&#xA0;Range</th><th>Unit</th></tr><tr><td>Potassium [Moles/volume] in Serum or Plasma</td><td>3.8</td><td>3.5 - 5</td><td></td><td>mmol/L</td></tr></table></div>"
        },
        "status": "final",
        "subject": {
          "reference": "urn:uuid:bfdfd106-086e-45c5-93b4-3f5aece79940",
          "display": "Θεμιστοκλής Λιναρδάκη"
        },
        "effectiveDateTime": "2024-12-18T06:16:00Z",
        "specimen": {
          "reference": "urn:uuid:db4f7081-e1af-419d-bf19-30325d138c78"
        }
      }
    },
    {
      "fullUrl": "urn:uuid:46cabb11-c2ef-41ad-a78c-324dad1db531",
      "resource": {
        "resourceType": "Observation",
        "id": "46cabb11-c2ef-41ad-a78c-324dad1db531",
        "meta": {
          "profile": [
            "http://hl7.eu/fhir/laboratory/StructureDefinition/Observation-resultslab-eu-lab"
          ]
        },
        "performer": [
          {
            "display": "The Central European Lab"
          }
        ],
        "category": [
          {
            "coding": [
              {
                "system": "http://terminology.hl7.org/CodeSystem/observation-category",
                "code": "laboratory"
              }
            ]
          }
        ],
        "code": {
          "coding": [
            {
              "code": "2075-0",
              "system": "http://loinc.org",
              "display": "Chloride [Moles/volume] in Serum or Plasma"
            }
          ],
          "text": "Chloride [Moles/volume] in Serum or Plasma"
        },
        "valueQuantity": {
          "system": "http://unitsofmeasure.org",
          "value": 108.5,
          "unit": "mmol/L",
          "code": "mmol/L"
        },
        "referenceRange": [
          {
            "low": {
              "value": 98,
              "code": "mmol/L",
              "system": "http://unitsofmeasure.org"
            }
          },
          {
            "high": {
              "value": 108,
              "code": "mmol/L",
              "system": "http://unitsofmeasure.org"
            }
          }
        ],
        "interpretation": [
          {
            "coding": [
              {
                "code": "H",
                "system": "http://terminology.hl7.org/CodeSystem/v3-ObservationInterpretation",
                "display": "High"
              }
            ]
          }
        ],
        "text": {
          "status": "generated",
          "div": "<div xmlns=\"http://www.w3.org/1999/xhtml\"><table class=\"hl7__eu__lab__report\"><tr><th>Test</th><th>18-Dec-2024</th><th>Reference&#xA0;Range</th><th>Unit</th></tr><tr><td>Chloride [Moles/volume] in Serum or Plasma</td><td>108.5</td><td>98 - 108</td><td>H</td><td>mmol/L</td></tr></table></div>"
        },
        "status": "final",
        "subject": {
          "reference": "urn:uuid:bfdfd106-086e-45c5-93b4-3f5aece79940",
          "display": "Θεμιστοκλής Λιναρδάκη"
        },
        "effectiveDateTime": "2024-12-18T06:16:00Z",
        "specimen": {
          "reference": "urn:uuid:db4f7081-e1af-419d-bf19-30325d138c78"
        }
      }
    },
    {
      "fullUrl": "urn:uuid:6d5b0229-ee9e-4905-aac1-ac7c5b6dbf33",
      "resource": {
        "resourceType": "Observation",
        "id": "6d5b0229-ee9e-4905-aac1-ac7c5b6dbf33",
        "meta": {
          "profile": [
            "http://hl7.eu/fhir/laboratory/StructureDefinition/Observation-resultslab-eu-lab"
          ]
        },
        "performer": [
          {
            "display": "The Central European Lab"
          }
        ],
        "category": [
          {
            "coding": [
              {
                "system": "http://terminology.hl7.org/CodeSystem/observation-category",
                "code": "laboratory"
              }
            ]
          }
        ],
        "code": {
          "coding": [
            {
              "code": "2028-9",
              "system": "http://loinc.org",
              "display": "Carbon dioxide, total [Moles/volume] in Serum or Plasma"
            }
          ],
          "text": "Carbon dioxide, total [Moles/volume] in Serum or Plasma"
        },
        "valueQuantity": {
          "system": "http://unitsofmeasure.org",
          "value": 25.1,
          "unit": "mmol/L",
          "code": "mmol/L"
        },
        "referenceRange": [
          {
            "low": {
              "value": 22,
              "code": "mmol/L",
              "system": "http://unitsofmeasure.org"
            }
          },
          {
            "high": {
              "value": 29,
              "code": "mmol/L",
              "system": "http://unitsofmeasure.org"
            }
          }
        ],
        "text": {
          "status": "generated",
          "div": "<div xmlns=\"http://www.w3.org/1999/xhtml\"><table class=\"hl7__eu__lab__report\"><tr><th>Test</th><th>18-Dec-2024</th><th>Reference&#xA0;Range</th><th>Unit</th></tr><tr><td>Carbon dioxide, total [Moles/volume] in Serum or Plasma</td><td>25.1</td><td>22 - 29</td><td></td><td>mmol/L</td></tr></table></div>"
        },
        "status": "final",
        "subject": {
          "reference": "urn:uuid:bfdfd106-086e-45c5-93b4-3f5aece79940",
          "display": "Θεμιστοκλής Λιναρδάκη"
        },
        "effectiveDateTime": "2024-12-18T06:16:00Z",
        "specimen": {
          "reference": "urn:uuid:db4f7081-e1af-419d-bf19-30325d138c78"
        }
      }
    },
    {
      "fullUrl": "urn:uuid:74855456-09ff-45d8-b4ee-dfcf6ebe62ce",
      "resource": {
        "resourceType": "Observation",
        "id": "74855456-09ff-45d8-b4ee-dfcf6ebe62ce",
        "meta": {
          "profile": [
            "http://hl7.eu/fhir/laboratory/StructureDefinition/Observation-resultslab-eu-lab"
          ]
        },
        "performer": [
          {
            "display": "The Central European Lab"
          }
        ],
        "category": [
          {
            "coding": [
              {
                "system": "http://terminology.hl7.org/CodeSystem/observation-category",
                "code": "laboratory"
              }
            ]
          }
        ],
        "code": {
          "coding": [
            {
              "code": "5767-9",
              "system": "http://loinc.org",
              "display": "Appearance of Urine"
            }
          ],
          "text": "Appearance of Urine"
        },
        "text": {
          "status": "generated",
          "div": "<div xmlns=\"http://www.w3.org/1999/xhtml\"><table class=\"hl7__eu__lab__report\"><tr><th>Test</th><th>18-Dec-2024</th><th>Reference&#xA0;Range</th><th>Unit</th></tr><tr><td>Appearance of Urine</td></tr></table></div>"
        },
        "status": "final",
        "subject": {
          "reference": "urn:uuid:bfdfd106-086e-45c5-93b4-3f5aece79940",
          "display": "Θεμιστοκλής Λιναρδάκη"
        },
        "effectiveDateTime": "2024-12-18T06:16:00Z",
        "specimen": {
          "reference": "urn:uuid:f4063095-58fb-4445-8cd0-db8027c62c01"
        }
      }
    },
    {
      "fullUrl": "urn:uuid:e09d24eb-ca04-4f20-ac24-54040f843875",
      "resource": {
        "resourceType": "Observation",
        "id": "e09d24eb-ca04-4f20-ac24-54040f843875",
        "meta": {
          "profile": [
            "http://hl7.eu/fhir/laboratory/StructureDefinition/Observation-resultslab-eu-lab"
          ]
        },
        "performer": [
          {
            "display": "The Central European Lab"
          }
        ],
        "category": [
          {
            "coding": [
              {
                "system": "http://terminology.hl7.org/CodeSystem/observation-category",
                "code": "laboratory"
              }
            ]
          }
        ],
        "code": {
          "coding": [
            {
              "code": "34533-0",
              "system": "http://loinc.org",
              "display": "Odor of Urine"
            }
          ],
          "text": "Odor of Urine"
        },
        "text": {
          "status": "generated",
          "div": "<div xmlns=\"http://www.w3.org/1999/xhtml\"><table class=\"hl7__eu__lab__report\"><tr><th>Test</th><th>18-Dec-2024</th><th>Reference&#xA0;Range</th><th>Unit</th></tr><tr><td>Odor of Urine</td></tr></table></div>"
        },
        "status": "final",
        "subject": {
          "reference": "urn:uuid:bfdfd106-086e-45c5-93b4-3f5aece79940",
          "display": "Θεμιστοκλής Λιναρδάκη"
        },
        "effectiveDateTime": "2024-12-18T06:16:00Z",
        "specimen": {
          "reference": "urn:uuid:f4063095-58fb-4445-8cd0-db8027c62c01"
        }
      }
    },
    {
      "fullUrl": "urn:uuid:3406abf6-8425-42dd-8a33-a07cd1584663",
      "resource": {
        "resourceType": "Observation",
        "id": "3406abf6-8425-42dd-8a33-a07cd1584663",
        "meta": {
          "profile": [
            "http://hl7.eu/fhir/laboratory/StructureDefinition/Observation-resultslab-eu-lab"
          ]
        },
        "performer": [
          {
            "display": "The Central European Lab"
          }
        ],
        "category": [
          {
            "coding": [
              {
                "system": "http://terminology.hl7.org/CodeSystem/observation-category",
                "code": "laboratory"
              }
            ]
          }
        ],
        "code": {
          "coding": [
            {
              "code": "32167-9",
              "system": "http://loinc.org",
              "display": "Clarity of Urine"
            }
          ],
          "text": "Clarity of Urine"
        },
        "text": {
          "status": "generated",
          "div": "<div xmlns=\"http://www.w3.org/1999/xhtml\"><table class=\"hl7__eu__lab__report\"><tr><th>Test</th><th>18-Dec-2024</th><th>Reference&#xA0;Range</th><th>Unit</th></tr><tr><td>Clarity of Urine</td></tr></table></div>"
        },
        "status": "final",
        "subject": {
          "reference": "urn:uuid:bfdfd106-086e-45c5-93b4-3f5aece79940",
          "display": "Θεμιστοκλής Λιναρδάκη"
        },
        "effectiveDateTime": "2024-12-18T06:16:00Z",
        "specimen": {
          "reference": "urn:uuid:f4063095-58fb-4445-8cd0-db8027c62c01"
        }
      }
    },
    {
      "fullUrl": "urn:uuid:0c9134d5-2b6d-4160-8754-3717543c84f1",
      "resource": {
        "resourceType": "Observation",
        "id": "0c9134d5-2b6d-4160-8754-3717543c84f1",
        "meta": {
          "profile": [
            "http://hl7.eu/fhir/laboratory/StructureDefinition/Observation-resultslab-eu-lab"
          ]
        },
        "performer": [
          {
            "display": "The Central European Lab"
          }
        ],
        "category": [
          {
            "coding": [
              {
                "system": "http://terminology.hl7.org/CodeSystem/observation-category",
                "code": "laboratory"
              }
            ]
          }
        ],
        "code": {
          "coding": [
            {
              "code": "5778-6",
              "system": "http://loinc.org",
              "display": "Color of Urine"
            }
          ],
          "text": "Color of Urine"
        },
        "text": {
          "status": "generated",
          "div": "<div xmlns=\"http://www.w3.org/1999/xhtml\"><table class=\"hl7__eu__lab__report\"><tr><th>Test</th><th>18-Dec-2024</th><th>Reference&#xA0;Range</th><th>Unit</th></tr><tr><td>Color of Urine</td></tr></table></div>"
        },
        "status": "final",
        "subject": {
          "reference": "urn:uuid:bfdfd106-086e-45c5-93b4-3f5aece79940",
          "display": "Θεμιστοκλής Λιναρδάκη"
        },
        "effectiveDateTime": "2024-12-18T06:16:00Z",
        "specimen": {
          "reference": "urn:uuid:f4063095-58fb-4445-8cd0-db8027c62c01"
        }
      }
    },
    {
      "fullUrl": "urn:uuid:e26676a0-6fd6-4651-b917-dd476ef12fac",
      "resource": {
        "resourceType": "Observation",
        "id": "e26676a0-6fd6-4651-b917-dd476ef12fac",
        "meta": {
          "profile": [
            "http://hl7.eu/fhir/laboratory/StructureDefinition/Observation-resultslab-eu-lab"
          ]
        },
        "performer": [
          {
            "display": "The Central European Lab"
          }
        ],
        "category": [
          {
            "coding": [
              {
                "system": "http://terminology.hl7.org/CodeSystem/observation-category",
                "code": "laboratory"
              }
            ]
          }
        ],
        "code": {
          "coding": [
            {
              "code": "5792-7",
              "system": "http://loinc.org",
              "display": "Glucose [Mass/volume] in Urine by Test strip"
            }
          ],
          "text": "Glucose [Mass/volume] in Urine by Test strip"
        },
        "valueQuantity": {
          "system": "http://unitsofmeasure.org",
          "value": 0.6,
          "unit": "mg/dL",
          "code": "mg/dL"
        },
        "referenceRange": [
          {
            "low": {
              "value": 0,
              "code": "mg/dL",
              "system": "http://unitsofmeasure.org"
            }
          },
          {
            "high": {
              "value": 0.8,
              "code": "mg/dL",
              "system": "http://unitsofmeasure.org"
            }
          }
        ],
        "text": {
          "status": "generated",
          "div": "<div xmlns=\"http://www.w3.org/1999/xhtml\"><table class=\"hl7__eu__lab__report\"><tr><th>Test</th><th>18-Dec-2024</th><th>Reference&#xA0;Range</th><th>Unit</th></tr><tr><td>Glucose [Mass/volume] in Urine by Test strip</td><td>0.6</td><td>0 - 0.8</td><td></td><td>mg/dL</td></tr></table></div>"
        },
        "status": "final",
        "subject": {
          "reference": "urn:uuid:bfdfd106-086e-45c5-93b4-3f5aece79940",
          "display": "Θεμιστοκλής Λιναρδάκη"
        },
        "effectiveDateTime": "2024-12-18T06:16:00Z",
        "specimen": {
          "reference": "urn:uuid:f4063095-58fb-4445-8cd0-db8027c62c01"
        }
      }
    },
    {
      "fullUrl": "urn:uuid:ebc74303-31a1-4a76-b510-a92e8d4adf97",
      "resource": {
        "resourceType": "Observation",
        "id": "ebc74303-31a1-4a76-b510-a92e8d4adf97",
        "meta": {
          "profile": [
            "http://hl7.eu/fhir/laboratory/StructureDefinition/Observation-resultslab-eu-lab"
          ]
        },
        "performer": [
          {
            "display": "The Central European Lab"
          }
        ],
        "category": [
          {
            "coding": [
              {
                "system": "http://terminology.hl7.org/CodeSystem/observation-category",
                "code": "laboratory"
              }
            ]
          }
        ],
        "code": {
          "coding": [
            {
              "code": "25428-4",
              "system": "http://loinc.org",
              "display": "Glucose [Presence] in Urine by Test strip"
            }
          ],
          "text": "Glucose [Presence] in Urine by Test strip"
        },
        "text": {
          "status": "generated",
          "div": "<div xmlns=\"http://www.w3.org/1999/xhtml\"><table class=\"hl7__eu__lab__report\"><tr><th>Test</th><th>18-Dec-2024</th><th>Reference&#xA0;Range</th><th>Unit</th></tr><tr><td>Glucose [Presence] in Urine by Test strip</td></tr></table></div>"
        },
        "status": "final",
        "subject": {
          "reference": "urn:uuid:bfdfd106-086e-45c5-93b4-3f5aece79940",
          "display": "Θεμιστοκλής Λιναρδάκη"
        },
        "effectiveDateTime": "2024-12-18T06:16:00Z",
        "specimen": {
          "reference": "urn:uuid:f4063095-58fb-4445-8cd0-db8027c62c01"
        }
      }
    },
    {
      "fullUrl": "urn:uuid:b60340b1-8e6f-449e-af7a-b0c9f1cb3461",
      "resource": {
        "resourceType": "Observation",
        "id": "b60340b1-8e6f-449e-af7a-b0c9f1cb3461",
        "meta": {
          "profile": [
            "http://hl7.eu/fhir/laboratory/StructureDefinition/Observation-resultslab-eu-lab"
          ]
        },
        "performer": [
          {
            "display": "The Central European Lab"
          }
        ],
        "category": [
          {
            "coding": [
              {
                "system": "http://terminology.hl7.org/CodeSystem/observation-category",
                "code": "laboratory"
              }
            ]
          }
        ],
        "code": {
          "coding": [
            {
              "code": "20505-4",
              "system": "http://loinc.org",
              "display": "Bilirubin.total [Mass/volume] in Urine by Test strip"
            }
          ],
          "text": "Bilirubin.total [Mass/volume] in Urine by Test strip"
        },
        "valueQuantity": {
          "system": "http://unitsofmeasure.org",
          "value": 1,
          "unit": "mg/dL",
          "code": "mg/dL"
        },
        "referenceRange": [
          {
            "low": {
              "value": 0.2,
              "code": "mg/dL",
              "system": "http://unitsofmeasure.org"
            }
          },
          {
            "high": {
              "value": 1,
              "code": "mg/dL",
              "system": "http://unitsofmeasure.org"
            }
          }
        ],
        "text": {
          "status": "generated",
          "div": "<div xmlns=\"http://www.w3.org/1999/xhtml\"><table class=\"hl7__eu__lab__report\"><tr><th>Test</th><th>18-Dec-2024</th><th>Reference&#xA0;Range</th><th>Unit</th></tr><tr><td>Bilirubin.total [Mass/volume] in Urine by Test strip</td><td>1.0</td><td>0.2 - 1</td><td></td><td>mg/dL</td></tr></table></div>"
        },
        "status": "final",
        "subject": {
          "reference": "urn:uuid:bfdfd106-086e-45c5-93b4-3f5aece79940",
          "display": "Θεμιστοκλής Λιναρδάκη"
        },
        "effectiveDateTime": "2024-12-18T06:16:00Z",
        "specimen": {
          "reference": "urn:uuid:f4063095-58fb-4445-8cd0-db8027c62c01"
        }
      }
    },
    {
      "fullUrl": "urn:uuid:46621aac-5209-4250-84df-5e60b7c9934c",
      "resource": {
        "resourceType": "Observation",
        "id": "46621aac-5209-4250-84df-5e60b7c9934c",
        "meta": {
          "profile": [
            "http://hl7.eu/fhir/laboratory/StructureDefinition/Observation-resultslab-eu-lab"
          ]
        },
        "performer": [
          {
            "display": "The Central European Lab"
          }
        ],
        "category": [
          {
            "coding": [
              {
                "system": "http://terminology.hl7.org/CodeSystem/observation-category",
                "code": "laboratory"
              }
            ]
          }
        ],
        "code": {
          "coding": [
            {
              "code": "5770-3",
              "system": "http://loinc.org",
              "display": "Bilirubin.total [Presence] in Urine by Test strip"
            }
          ],
          "text": "Bilirubin.total [Presence] in Urine by Test strip"
        },
        "text": {
          "status": "generated",
          "div": "<div xmlns=\"http://www.w3.org/1999/xhtml\"><table class=\"hl7__eu__lab__report\"><tr><th>Test</th><th>18-Dec-2024</th><th>Reference&#xA0;Range</th><th>Unit</th></tr><tr><td>Bilirubin.total [Presence] in Urine by Test strip</td></tr></table></div>"
        },
        "status": "final",
        "subject": {
          "reference": "urn:uuid:bfdfd106-086e-45c5-93b4-3f5aece79940",
          "display": "Θεμιστοκλής Λιναρδάκη"
        },
        "effectiveDateTime": "2024-12-18T06:16:00Z",
        "specimen": {
          "reference": "urn:uuid:f4063095-58fb-4445-8cd0-db8027c62c01"
        }
      }
    },
    {
      "fullUrl": "urn:uuid:66e350e7-dd3c-446d-8997-602c8d5d41e7",
      "resource": {
        "resourceType": "Observation",
        "id": "66e350e7-dd3c-446d-8997-602c8d5d41e7",
        "meta": {
          "profile": [
            "http://hl7.eu/fhir/laboratory/StructureDefinition/Observation-resultslab-eu-lab"
          ]
        },
        "performer": [
          {
            "display": "The Central European Lab"
          }
        ],
        "category": [
          {
            "coding": [
              {
                "system": "http://terminology.hl7.org/CodeSystem/observation-category",
                "code": "laboratory"
              }
            ]
          }
        ],
        "code": {
          "coding": [
            {
              "code": "5797-6",
              "system": "http://loinc.org",
              "display": "Ketones [Mass/volume] in Urine by Test strip"
            }
          ],
          "text": "Ketones [Mass/volume] in Urine by Test strip"
        },
        "valueQuantity": {
          "system": "http://unitsofmeasure.org",
          "value": 5.6,
          "unit": "mg/dL",
          "code": "mg/dL"
        },
        "referenceRange": [
          {
            "low": {
              "value": 0,
              "code": "mg/dL",
              "system": "http://unitsofmeasure.org"
            }
          },
          {
            "high": {
              "value": 5,
              "code": "mg/dL",
              "system": "http://unitsofmeasure.org"
            }
          }
        ],
        "interpretation": [
          {
            "coding": [
              {
                "code": "H",
                "system": "http://terminology.hl7.org/CodeSystem/v3-ObservationInterpretation",
                "display": "High"
              }
            ]
          }
        ],
        "text": {
          "status": "generated",
          "div": "<div xmlns=\"http://www.w3.org/1999/xhtml\"><table class=\"hl7__eu__lab__report\"><tr><th>Test</th><th>18-Dec-2024</th><th>Reference&#xA0;Range</th><th>Unit</th></tr><tr><td>Ketones [Mass/volume] in Urine by Test strip</td><td>5.6</td><td>0 - 5</td><td>H</td><td>mg/dL</td></tr></table></div>"
        },
        "status": "final",
        "subject": {
          "reference": "urn:uuid:bfdfd106-086e-45c5-93b4-3f5aece79940",
          "display": "Θεμιστοκλής Λιναρδάκη"
        },
        "effectiveDateTime": "2024-12-18T06:16:00Z",
        "specimen": {
          "reference": "urn:uuid:f4063095-58fb-4445-8cd0-db8027c62c01"
        }
      }
    },
    {
      "fullUrl": "urn:uuid:e1dc1271-7707-4607-b9a1-355623a7ae00",
      "resource": {
        "resourceType": "Observation",
        "id": "e1dc1271-7707-4607-b9a1-355623a7ae00",
        "meta": {
          "profile": [
            "http://hl7.eu/fhir/laboratory/StructureDefinition/Observation-resultslab-eu-lab"
          ]
        },
        "performer": [
          {
            "display": "The Central European Lab"
          }
        ],
        "category": [
          {
            "coding": [
              {
                "system": "http://terminology.hl7.org/CodeSystem/observation-category",
                "code": "laboratory"
              }
            ]
          }
        ],
        "code": {
          "coding": [
            {
              "code": "2514-8",
              "system": "http://loinc.org",
              "display": "Ketones [Presence] in Urine by Test strip"
            }
          ],
          "text": "Ketones [Presence] in Urine by Test strip"
        },
        "text": {
          "status": "generated",
          "div": "<div xmlns=\"http://www.w3.org/1999/xhtml\"><table class=\"hl7__eu__lab__report\"><tr><th>Test</th><th>18-Dec-2024</th><th>Reference&#xA0;Range</th><th>Unit</th></tr><tr><td>Ketones [Presence] in Urine by Test strip</td></tr></table></div>"
        },
        "status": "final",
        "subject": {
          "reference": "urn:uuid:bfdfd106-086e-45c5-93b4-3f5aece79940",
          "display": "Θεμιστοκλής Λιναρδάκη"
        },
        "effectiveDateTime": "2024-12-18T06:16:00Z",
        "specimen": {
          "reference": "urn:uuid:f4063095-58fb-4445-8cd0-db8027c62c01"
        }
      }
    },
    {
      "fullUrl": "urn:uuid:14d992be-f6aa-4ef5-b68d-dd2af7b492ae",
      "resource": {
        "resourceType": "Observation",
        "id": "14d992be-f6aa-4ef5-b68d-dd2af7b492ae",
        "meta": {
          "profile": [
            "http://hl7.eu/fhir/laboratory/StructureDefinition/Observation-resultslab-eu-lab"
          ]
        },
        "performer": [
          {
            "display": "The Central European Lab"
          }
        ],
        "category": [
          {
            "coding": [
              {
                "system": "http://terminology.hl7.org/CodeSystem/observation-category",
                "code": "laboratory"
              }
            ]
          }
        ],
        "code": {
          "coding": [
            {
              "code": "5811-5",
              "system": "http://loinc.org",
              "display": "Specific gravity of Urine by Test strip"
            }
          ],
          "text": "Specific gravity of Urine by Test strip"
        },
        "valueQuantity": {
          "system": "http://unitsofmeasure.org",
          "value": 1,
          "unit": "{nominal}",
          "code": "{nominal}"
        },
        "referenceRange": [
          {
            "low": {
              "value": 1.005,
              "code": "g/mL",
              "system": "http://unitsofmeasure.org"
            }
          },
          {
            "high": {
              "value": 1.03,
              "code": "g/mL",
              "system": "http://unitsofmeasure.org"
            }
          }
        ],
        "interpretation": [
          {
            "coding": [
              {
                "code": "L",
                "system": "http://terminology.hl7.org/CodeSystem/v3-ObservationInterpretation",
                "display": "Low"
              }
            ]
          }
        ],
        "text": {
          "status": "generated",
          "div": "<div xmlns=\"http://www.w3.org/1999/xhtml\"><table class=\"hl7__eu__lab__report\"><tr><th>Test</th><th>18-Dec-2024</th><th>Reference&#xA0;Range</th><th>Unit</th></tr><tr><td>Specific gravity of Urine by Test strip</td><td>1.0</td><td>1.005 - 1.03</td><td>L</td><td>{nominal}</td></tr></table></div>"
        },
        "status": "final",
        "subject": {
          "reference": "urn:uuid:bfdfd106-086e-45c5-93b4-3f5aece79940",
          "display": "Θεμιστοκλής Λιναρδάκη"
        },
        "effectiveDateTime": "2024-12-18T06:16:00Z",
        "specimen": {
          "reference": "urn:uuid:f4063095-58fb-4445-8cd0-db8027c62c01"
        }
      }
    },
    {
      "fullUrl": "urn:uuid:b553392b-1ba6-484d-946d-b2268e7d128c",
      "resource": {
        "resourceType": "Observation",
        "id": "b553392b-1ba6-484d-946d-b2268e7d128c",
        "meta": {
          "profile": [
            "http://hl7.eu/fhir/laboratory/StructureDefinition/Observation-resultslab-eu-lab"
          ]
        },
        "performer": [
          {
            "display": "The Central European Lab"
          }
        ],
        "category": [
          {
            "coding": [
              {
                "system": "http://terminology.hl7.org/CodeSystem/observation-category",
                "code": "laboratory"
              }
            ]
          }
        ],
        "code": {
          "coding": [
            {
              "code": "5803-2",
              "system": "http://loinc.org",
              "display": "pH of Urine by Test strip"
            }
          ],
          "text": "pH of Urine by Test strip"
        },
        "valueQuantity": {
          "system": "http://unitsofmeasure.org",
          "value": 6.7,
          "unit": "pH",
          "code": "pH"
        },
        "referenceRange": [
          {
            "low": {
              "value": 4.6,
              "code": "pH",
              "system": "http://unitsofmeasure.org"
            }
          },
          {
            "high": {
              "value": 7,
              "code": "pH",
              "system": "http://unitsofmeasure.org"
            }
          }
        ],
        "text": {
          "status": "generated",
          "div": "<div xmlns=\"http://www.w3.org/1999/xhtml\"><table class=\"hl7__eu__lab__report\"><tr><th>Test</th><th>18-Dec-2024</th><th>Reference&#xA0;Range</th><th>Unit</th></tr><tr><td>pH of Urine by Test strip</td><td>6.7</td><td>4.6 - 7</td><td></td><td>pH</td></tr></table></div>"
        },
        "status": "final",
        "subject": {
          "reference": "urn:uuid:bfdfd106-086e-45c5-93b4-3f5aece79940",
          "display": "Θεμιστοκλής Λιναρδάκη"
        },
        "effectiveDateTime": "2024-12-18T06:16:00Z",
        "specimen": {
          "reference": "urn:uuid:f4063095-58fb-4445-8cd0-db8027c62c01"
        }
      }
    },
    {
      "fullUrl": "urn:uuid:0d3d26e6-ddd6-4f43-8f8e-68955dc51bd3",
      "resource": {
        "resourceType": "Observation",
        "id": "0d3d26e6-ddd6-4f43-8f8e-68955dc51bd3",
        "meta": {
          "profile": [
            "http://hl7.eu/fhir/laboratory/StructureDefinition/Observation-resultslab-eu-lab"
          ]
        },
        "performer": [
          {
            "display": "The Central European Lab"
          }
        ],
        "category": [
          {
            "coding": [
              {
                "system": "http://terminology.hl7.org/CodeSystem/observation-category",
                "code": "laboratory"
              }
            ]
          }
        ],
        "code": {
          "coding": [
            {
              "code": "5804-0",
              "system": "http://loinc.org",
              "display": "Protein [Mass/volume] in Urine by Test strip"
            }
          ],
          "text": "Protein [Mass/volume] in Urine by Test strip"
        },
        "valueQuantity": {
          "system": "http://unitsofmeasure.org",
          "value": 288.2,
          "unit": "mg/dL",
          "code": "mg/dL"
        },
        "referenceRange": [
          {
            "low": {
              "value": 0,
              "code": "mg/dL",
              "system": "http://unitsofmeasure.org"
            }
          },
          {
            "high": {
              "value": 150,
              "code": "mg/dL",
              "system": "http://unitsofmeasure.org"
            }
          }
        ],
        "interpretation": [
          {
            "coding": [
              {
                "code": "H",
                "system": "http://terminology.hl7.org/CodeSystem/v3-ObservationInterpretation",
                "display": "High"
              }
            ]
          }
        ],
        "text": {
          "status": "generated",
          "div": "<div xmlns=\"http://www.w3.org/1999/xhtml\"><table class=\"hl7__eu__lab__report\"><tr><th>Test</th><th>18-Dec-2024</th><th>Reference&#xA0;Range</th><th>Unit</th></tr><tr><td>Protein [Mass/volume] in Urine by Test strip</td><td>288.2</td><td>0 - 150</td><td>H</td><td>mg/dL</td></tr></table></div>"
        },
        "status": "final",
        "subject": {
          "reference": "urn:uuid:bfdfd106-086e-45c5-93b4-3f5aece79940",
          "display": "Θεμιστοκλής Λιναρδάκη"
        },
        "effectiveDateTime": "2024-12-18T06:16:00Z",
        "specimen": {
          "reference": "urn:uuid:f4063095-58fb-4445-8cd0-db8027c62c01"
        }
      }
    },
    {
      "fullUrl": "urn:uuid:26dd372a-42df-4f50-ac5b-415de15564a2",
      "resource": {
        "resourceType": "Observation",
        "id": "26dd372a-42df-4f50-ac5b-415de15564a2",
        "meta": {
          "profile": [
            "http://hl7.eu/fhir/laboratory/StructureDefinition/Observation-resultslab-eu-lab"
          ]
        },
        "performer": [
          {
            "display": "The Central European Lab"
          }
        ],
        "category": [
          {
            "coding": [
              {
                "system": "http://terminology.hl7.org/CodeSystem/observation-category",
                "code": "laboratory"
              }
            ]
          }
        ],
        "code": {
          "coding": [
            {
              "code": "20454-5",
              "system": "http://loinc.org",
              "display": "Protein [Presence] in Urine by Test strip"
            }
          ],
          "text": "Protein [Presence] in Urine by Test strip"
        },
        "text": {
          "status": "generated",
          "div": "<div xmlns=\"http://www.w3.org/1999/xhtml\"><table class=\"hl7__eu__lab__report\"><tr><th>Test</th><th>18-Dec-2024</th><th>Reference&#xA0;Range</th><th>Unit</th></tr><tr><td>Protein [Presence] in Urine by Test strip</td></tr></table></div>"
        },
        "status": "final",
        "subject": {
          "reference": "urn:uuid:bfdfd106-086e-45c5-93b4-3f5aece79940",
          "display": "Θεμιστοκλής Λιναρδάκη"
        },
        "effectiveDateTime": "2024-12-18T06:16:00Z",
        "specimen": {
          "reference": "urn:uuid:f4063095-58fb-4445-8cd0-db8027c62c01"
        }
      }
    },
    {
      "fullUrl": "urn:uuid:8552b8d5-d6f3-4120-8c68-c8631a9706ec",
      "resource": {
        "resourceType": "Observation",
        "id": "8552b8d5-d6f3-4120-8c68-c8631a9706ec",
        "meta": {
          "profile": [
            "http://hl7.eu/fhir/laboratory/StructureDefinition/Observation-resultslab-eu-lab"
          ]
        },
        "performer": [
          {
            "display": "The Central European Lab"
          }
        ],
        "category": [
          {
            "coding": [
              {
                "system": "http://terminology.hl7.org/CodeSystem/observation-category",
                "code": "laboratory"
              }
            ]
          }
        ],
        "code": {
          "coding": [
            {
              "code": "5802-4",
              "system": "http://loinc.org",
              "display": "Nitrite [Presence] in Urine by Test strip"
            }
          ],
          "text": "Nitrite [Presence] in Urine by Test strip"
        },
        "text": {
          "status": "generated",
          "div": "<div xmlns=\"http://www.w3.org/1999/xhtml\"><table class=\"hl7__eu__lab__report\"><tr><th>Test</th><th>18-Dec-2024</th><th>Reference&#xA0;Range</th><th>Unit</th></tr><tr><td>Nitrite [Presence] in Urine by Test strip</td></tr></table></div>"
        },
        "status": "final",
        "subject": {
          "reference": "urn:uuid:bfdfd106-086e-45c5-93b4-3f5aece79940",
          "display": "Θεμιστοκλής Λιναρδάκη"
        },
        "effectiveDateTime": "2024-12-18T06:16:00Z",
        "specimen": {
          "reference": "urn:uuid:f4063095-58fb-4445-8cd0-db8027c62c01"
        }
      }
    },
    {
      "fullUrl": "urn:uuid:592c83a6-6f1d-482a-a7e4-56613f7514ee",
      "resource": {
        "resourceType": "Observation",
        "id": "592c83a6-6f1d-482a-a7e4-56613f7514ee",
        "meta": {
          "profile": [
            "http://hl7.eu/fhir/laboratory/StructureDefinition/Observation-resultslab-eu-lab"
          ]
        },
        "performer": [
          {
            "display": "The Central European Lab"
          }
        ],
        "category": [
          {
            "coding": [
              {
                "system": "http://terminology.hl7.org/CodeSystem/observation-category",
                "code": "laboratory"
              }
            ]
          }
        ],
        "code": {
          "coding": [
            {
              "code": "5794-3",
              "system": "http://loinc.org",
              "display": "Hemoglobin [Presence] in Urine by Test strip"
            }
          ],
          "text": "Hemoglobin [Presence] in Urine by Test strip"
        },
        "text": {
          "status": "generated",
          "div": "<div xmlns=\"http://www.w3.org/1999/xhtml\"><table class=\"hl7__eu__lab__report\"><tr><th>Test</th><th>18-Dec-2024</th><th>Reference&#xA0;Range</th><th>Unit</th></tr><tr><td>Hemoglobin [Presence] in Urine by Test strip</td></tr></table></div>"
        },
        "status": "final",
        "subject": {
          "reference": "urn:uuid:bfdfd106-086e-45c5-93b4-3f5aece79940",
          "display": "Θεμιστοκλής Λιναρδάκη"
        },
        "effectiveDateTime": "2024-12-18T06:16:00Z",
        "specimen": {
          "reference": "urn:uuid:f4063095-58fb-4445-8cd0-db8027c62c01"
        }
      }
    },
    {
      "fullUrl": "urn:uuid:f9294e03-472e-433e-a5bb-56041f580c51",
      "resource": {
        "resourceType": "Observation",
        "id": "f9294e03-472e-433e-a5bb-56041f580c51",
        "meta": {
          "profile": [
            "http://hl7.eu/fhir/laboratory/StructureDefinition/Observation-resultslab-eu-lab"
          ]
        },
        "performer": [
          {
            "display": "The Central European Lab"
          }
        ],
        "category": [
          {
            "coding": [
              {
                "system": "http://terminology.hl7.org/CodeSystem/observation-category",
                "code": "laboratory"
              }
            ]
          }
        ],
        "code": {
          "coding": [
            {
              "code": "5799-2",
              "system": "http://loinc.org",
              "display": "Leukocyte esterase [Presence] in Urine by Test strip"
            }
          ],
          "text": "Leukocyte esterase [Presence] in Urine by Test strip"
        },
        "text": {
          "status": "generated",
          "div": "<div xmlns=\"http://www.w3.org/1999/xhtml\"><table class=\"hl7__eu__lab__report\"><tr><th>Test</th><th>18-Dec-2024</th><th>Reference&#xA0;Range</th><th>Unit</th></tr><tr><td>Leukocyte esterase [Presence] in Urine by Test strip</td></tr></table></div>"
        },
        "status": "final",
        "subject": {
          "reference": "urn:uuid:bfdfd106-086e-45c5-93b4-3f5aece79940",
          "display": "Θεμιστοκλής Λιναρδάκη"
        },
        "effectiveDateTime": "2024-12-18T06:16:00Z",
        "specimen": {
          "reference": "urn:uuid:f4063095-58fb-4445-8cd0-db8027c62c01"
        }
      }
    },
    {
      "fullUrl": "urn:uuid:0a59ece8-5e54-4f23-aee5-2dd7657bf979",
      "resource": {
        "resourceType": "Observation",
        "id": "0a59ece8-5e54-4f23-aee5-2dd7657bf979",
        "meta": {
          "profile": [
            "http://hl7.eu/fhir/laboratory/StructureDefinition/Observation-resultslab-eu-lab"
          ]
        },
        "performer": [
          {
            "display": "The Central European Lab"
          }
        ],
        "category": [
          {
            "coding": [
              {
                "system": "http://terminology.hl7.org/CodeSystem/observation-category",
                "code": "laboratory"
              }
            ]
          }
        ],
        "code": {
          "coding": [
            {
              "code": "4548-4",
              "system": "http://loinc.org",
              "display": "Hemoglobin A1c/Hemoglobin.total in Blood"
            }
          ],
          "text": "Hemoglobin A1c/Hemoglobin.total in Blood"
        },
        "valueQuantity": {
          "system": "http://unitsofmeasure.org",
          "value": 3.1,
          "unit": "%",
          "code": "%"
        },
        "referenceRange": [
          {
            "low": {
              "value": 4.3,
              "code": "%",
              "system": "http://unitsofmeasure.org"
            }
          },
          {
            "high": {
              "value": 6.4,
              "code": "%",
              "system": "http://unitsofmeasure.org"
            }
          }
        ],
        "interpretation": [
          {
            "coding": [
              {
                "code": "L",
                "system": "http://terminology.hl7.org/CodeSystem/v3-ObservationInterpretation",
                "display": "Low"
              }
            ]
          }
        ],
        "text": {
          "status": "generated",
          "div": "<div xmlns=\"http://www.w3.org/1999/xhtml\"><table class=\"hl7__eu__lab__report\"><tr><th>Test</th><th>18-Dec-2024</th><th>Reference&#xA0;Range</th><th>Unit</th></tr><tr><td>Hemoglobin A1c/Hemoglobin.total in Blood</td><td>3.1</td><td>4.3 - 6.4</td><td>L</td><td>%</td></tr></table></div>"
        },
        "status": "final",
        "subject": {
          "reference": "urn:uuid:bfdfd106-086e-45c5-93b4-3f5aece79940",
          "display": "Θεμιστοκλής Λιναρδάκη"
        },
        "effectiveDateTime": "2024-12-18T06:16:00Z",
        "specimen": {
          "reference": "urn:uuid:a04c801d-57d7-4b4a-be69-4b0bf04eff5e"
        }
      }
    },
    {
      "fullUrl": "urn:uuid:5be236d6-5a7b-4163-bdad-0f581a0e8295",
      "resource": {
        "resourceType": "Observation",
        "id": "5be236d6-5a7b-4163-bdad-0f581a0e8295",
        "meta": {
          "profile": [
            "http://hl7.eu/fhir/laboratory/StructureDefinition/Observation-resultslab-eu-lab"
          ]
        },
        "performer": [
          {
            "display": "The Central European Lab"
          }
        ],
        "category": [
          {
            "coding": [
              {
                "system": "http://terminology.hl7.org/CodeSystem/observation-category",
                "code": "laboratory"
              }
            ]
          }
        ],
        "code": {
          "coding": [
            {
              "code": "2339-0",
              "system": "http://loinc.org",
              "display": "Glucose [Mass/volume] in Blood"
            }
          ],
          "text": "Glucose [Mass/volume] in Blood"
        },
        "valueQuantity": {
          "system": "http://unitsofmeasure.org",
          "value": 71,
          "unit": "mg/dL",
          "code": "mg/dL"
        },
        "referenceRange": [
          {
            "low": {
              "value": 70,
              "code": "mg/dL",
              "system": "http://unitsofmeasure.org"
            }
          },
          {
            "high": {
              "value": 140,
              "code": "mg/dL",
              "system": "http://unitsofmeasure.org"
            }
          }
        ],
        "text": {
          "status": "generated",
          "div": "<div xmlns=\"http://www.w3.org/1999/xhtml\"><table class=\"hl7__eu__lab__report\"><tr><th>Test</th><th>18-Dec-2024</th><th>Reference&#xA0;Range</th><th>Unit</th></tr><tr><td>Glucose [Mass/volume] in Blood</td><td>71.0</td><td>70 - 140</td><td></td><td>mg/dL</td></tr></table></div>"
        },
        "status": "final",
        "subject": {
          "reference": "urn:uuid:bfdfd106-086e-45c5-93b4-3f5aece79940",
          "display": "Θεμιστοκλής Λιναρδάκη"
        },
        "effectiveDateTime": "2024-12-18T06:16:00Z",
        "specimen": {
          "reference": "urn:uuid:a04c801d-57d7-4b4a-be69-4b0bf04eff5e"
        }
      }
    },
    {
      "fullUrl": "urn:uuid:b8f6a27c-1bc1-423f-b696-3c68a05a322f",
      "resource": {
        "resourceType": "Observation",
        "id": "b8f6a27c-1bc1-423f-b696-3c68a05a322f",
        "meta": {
          "profile": [
            "http://hl7.eu/fhir/laboratory/StructureDefinition/Observation-resultslab-eu-lab"
          ]
        },
        "performer": [
          {
            "display": "The Central European Lab"
          }
        ],
        "category": [
          {
            "coding": [
              {
                "system": "http://terminology.hl7.org/CodeSystem/observation-category",
                "code": "laboratory"
              }
            ]
          }
        ],
        "code": {
          "coding": [
            {
              "code": "6299-2",
              "system": "http://loinc.org",
              "display": "Urea nitrogen [Mass/volume] in Blood"
            }
          ],
          "text": "Urea nitrogen [Mass/volume] in Blood"
        },
        "valueQuantity": {
          "system": "http://unitsofmeasure.org",
          "value": 15,
          "unit": "mg/dL",
          "code": "mg/dL"
        },
        "referenceRange": [
          {
            "low": {
              "value": 7,
              "code": "mg/dL",
              "system": "http://unitsofmeasure.org"
            }
          },
          {
            "high": {
              "value": 20,
              "code": "mg/dL",
              "system": "http://unitsofmeasure.org"
            }
          }
        ],
        "text": {
          "status": "generated",
          "div": "<div xmlns=\"http://www.w3.org/1999/xhtml\"><table class=\"hl7__eu__lab__report\"><tr><th>Test</th><th>18-Dec-2024</th><th>Reference&#xA0;Range</th><th>Unit</th></tr><tr><td>Urea nitrogen [Mass/volume] in Blood</td><td>15.0</td><td>7 - 20</td><td></td><td>mg/dL</td></tr></table></div>"
        },
        "status": "final",
        "subject": {
          "reference": "urn:uuid:bfdfd106-086e-45c5-93b4-3f5aece79940",
          "display": "Θεμιστοκλής Λιναρδάκη"
        },
        "effectiveDateTime": "2024-12-18T06:16:00Z",
        "specimen": {
          "reference": "urn:uuid:a04c801d-57d7-4b4a-be69-4b0bf04eff5e"
        }
      }
    },
    {
      "fullUrl": "urn:uuid:1960fdce-02f3-489e-8d59-eef457b11486",
      "resource": {
        "resourceType": "Observation",
        "id": "1960fdce-02f3-489e-8d59-eef457b11486",
        "meta": {
          "profile": [
            "http://hl7.eu/fhir/laboratory/StructureDefinition/Observation-resultslab-eu-lab"
          ]
        },
        "performer": [
          {
            "display": "The Central European Lab"
          }
        ],
        "category": [
          {
            "coding": [
              {
                "system": "http://terminology.hl7.org/CodeSystem/observation-category",
                "code": "laboratory"
              }
            ]
          }
        ],
        "code": {
          "coding": [
            {
              "code": "38483-4",
              "system": "http://loinc.org",
              "display": "Creatinine [Mass/volume] in Blood"
            }
          ],
          "text": "Creatinine [Mass/volume] in Blood"
        },
        "valueQuantity": {
          "system": "http://unitsofmeasure.org",
          "value": 5.4,
          "unit": "mg/dL",
          "code": "mg/dL"
        },
        "referenceRange": [
          {
            "low": {
              "value": 0.6,
              "code": "mg/dL",
              "system": "http://unitsofmeasure.org"
            }
          },
          {
            "high": {
              "value": 1.3,
              "code": "mg/dL",
              "system": "http://unitsofmeasure.org"
            }
          }
        ],
        "interpretation": [
          {
            "coding": [
              {
                "code": "H",
                "system": "http://terminology.hl7.org/CodeSystem/v3-ObservationInterpretation",
                "display": "High"
              }
            ]
          }
        ],
        "text": {
          "status": "generated",
          "div": "<div xmlns=\"http://www.w3.org/1999/xhtml\"><table class=\"hl7__eu__lab__report\"><tr><th>Test</th><th>18-Dec-2024</th><th>Reference&#xA0;Range</th><th>Unit</th></tr><tr><td>Creatinine [Mass/volume] in Blood</td><td>5.4</td><td>0.6 - 1.3</td><td>H</td><td>mg/dL</td></tr></table></div>"
        },
        "status": "final",
        "subject": {
          "reference": "urn:uuid:bfdfd106-086e-45c5-93b4-3f5aece79940",
          "display": "Θεμιστοκλής Λιναρδάκη"
        },
        "effectiveDateTime": "2024-12-18T06:16:00Z",
        "specimen": {
          "reference": "urn:uuid:a04c801d-57d7-4b4a-be69-4b0bf04eff5e"
        }
      }
    },
    {
      "fullUrl": "urn:uuid:8e897c12-b4be-49f6-a4c7-4ae80eb464b1",
      "resource": {
        "resourceType": "Observation",
        "id": "8e897c12-b4be-49f6-a4c7-4ae80eb464b1",
        "meta": {
          "profile": [
            "http://hl7.eu/fhir/laboratory/StructureDefinition/Observation-resultslab-eu-lab"
          ]
        },
        "performer": [
          {
            "display": "The Central European Lab"
          }
        ],
        "category": [
          {
            "coding": [
              {
                "system": "http://terminology.hl7.org/CodeSystem/observation-category",
                "code": "laboratory"
              }
            ]
          }
        ],
        "code": {
          "coding": [
            {
              "code": "49765-1",
              "system": "http://loinc.org",
              "display": "Calcium [Mass/volume] in Blood"
            }
          ],
          "text": "Calcium [Mass/volume] in Blood"
        },
        "valueQuantity": {
          "system": "http://unitsofmeasure.org",
          "value": 9,
          "unit": "mg/dL",
          "code": "mg/dL"
        },
        "referenceRange": [
          {
            "low": {
              "value": 8.5,
              "code": "mg/dL",
              "system": "http://unitsofmeasure.org"
            }
          },
          {
            "high": {
              "value": 10.5,
              "code": "mg/dL",
              "system": "http://unitsofmeasure.org"
            }
          }
        ],
        "text": {
          "status": "generated",
          "div": "<div xmlns=\"http://www.w3.org/1999/xhtml\"><table class=\"hl7__eu__lab__report\"><tr><th>Test</th><th>18-Dec-2024</th><th>Reference&#xA0;Range</th><th>Unit</th></tr><tr><td>Calcium [Mass/volume] in Blood</td><td>9.0</td><td>8.5 - 10.5</td><td></td><td>mg/dL</td></tr></table></div>"
        },
        "status": "final",
        "subject": {
          "reference": "urn:uuid:bfdfd106-086e-45c5-93b4-3f5aece79940",
          "display": "Θεμιστοκλής Λιναρδάκη"
        },
        "effectiveDateTime": "2024-12-18T06:16:00Z",
        "specimen": {
          "reference": "urn:uuid:a04c801d-57d7-4b4a-be69-4b0bf04eff5e"
        }
      }
    },
    {
      "fullUrl": "urn:uuid:379704e8-a915-4970-b309-bc4bdb562f8f",
      "resource": {
        "resourceType": "Observation",
        "id": "379704e8-a915-4970-b309-bc4bdb562f8f",
        "meta": {
          "profile": [
            "http://hl7.eu/fhir/laboratory/StructureDefinition/Observation-resultslab-eu-lab"
          ]
        },
        "performer": [
          {
            "display": "The Central European Lab"
          }
        ],
        "category": [
          {
            "coding": [
              {
                "system": "http://terminology.hl7.org/CodeSystem/observation-category",
                "code": "laboratory"
              }
            ]
          }
        ],
        "code": {
          "coding": [
            {
              "code": "2947-0",
              "system": "http://loinc.org",
              "display": "Sodium [Moles/volume] in Blood"
            }
          ],
          "text": "Sodium [Moles/volume] in Blood"
        },
        "valueQuantity": {
          "system": "http://unitsofmeasure.org",
          "value": 143.3,
          "unit": "mmol/L",
          "code": "mmol/L"
        },
        "referenceRange": [
          {
            "low": {
              "value": 135,
              "code": "mmol/L",
              "system": "http://unitsofmeasure.org"
            }
          },
          {
            "high": {
              "value": 145,
              "code": "mmol/L",
              "system": "http://unitsofmeasure.org"
            }
          }
        ],
        "text": {
          "status": "generated",
          "div": "<div xmlns=\"http://www.w3.org/1999/xhtml\"><table class=\"hl7__eu__lab__report\"><tr><th>Test</th><th>18-Dec-2024</th><th>Reference&#xA0;Range</th><th>Unit</th></tr><tr><td>Sodium [Moles/volume] in Blood</td><td>143.3</td><td>135 - 145</td><td></td><td>mmol/L</td></tr></table></div>"
        },
        "status": "final",
        "subject": {
          "reference": "urn:uuid:bfdfd106-086e-45c5-93b4-3f5aece79940",
          "display": "Θεμιστοκλής Λιναρδάκη"
        },
        "effectiveDateTime": "2024-12-18T06:16:00Z",
        "specimen": {
          "reference": "urn:uuid:a04c801d-57d7-4b4a-be69-4b0bf04eff5e"
        }
      }
    },
    {
      "fullUrl": "urn:uuid:c7d0c489-8a61-4e8d-a5b6-afa69f85ba27",
      "resource": {
        "resourceType": "Observation",
        "id": "c7d0c489-8a61-4e8d-a5b6-afa69f85ba27",
        "meta": {
          "profile": [
            "http://hl7.eu/fhir/laboratory/StructureDefinition/Observation-resultslab-eu-lab"
          ]
        },
        "performer": [
          {
            "display": "The Central European Lab"
          }
        ],
        "category": [
          {
            "coding": [
              {
                "system": "http://terminology.hl7.org/CodeSystem/observation-category",
                "code": "laboratory"
              }
            ]
          }
        ],
        "code": {
          "coding": [
            {
              "code": "6298-4",
              "system": "http://loinc.org",
              "display": "Potassium [Moles/volume] in Blood"
            }
          ],
          "text": "Potassium [Moles/volume] in Blood"
        },
        "valueQuantity": {
          "system": "http://unitsofmeasure.org",
          "value": 3.8,
          "unit": "mmol/L",
          "code": "mmol/L"
        },
        "referenceRange": [
          {
            "low": {
              "value": 3.5,
              "code": "mmol/L",
              "system": "http://unitsofmeasure.org"
            }
          },
          {
            "high": {
              "value": 5.3,
              "code": "mmol/L",
              "system": "http://unitsofmeasure.org"
            }
          }
        ],
        "text": {
          "status": "generated",
          "div": "<div xmlns=\"http://www.w3.org/1999/xhtml\"><table class=\"hl7__eu__lab__report\"><tr><th>Test</th><th>18-Dec-2024</th><th>Reference&#xA0;Range</th><th>Unit</th></tr><tr><td>Potassium [Moles/volume] in Blood</td><td>3.8</td><td>3.5 - 5.3</td><td></td><td>mmol/L</td></tr></table></div>"
        },
        "status": "final",
        "subject": {
          "reference": "urn:uuid:bfdfd106-086e-45c5-93b4-3f5aece79940",
          "display": "Θεμιστοκλής Λιναρδάκη"
        },
        "effectiveDateTime": "2024-12-18T06:16:00Z",
        "specimen": {
          "reference": "urn:uuid:a04c801d-57d7-4b4a-be69-4b0bf04eff5e"
        }
      }
    },
    {
      "fullUrl": "urn:uuid:f76eac33-5b4a-4238-8c22-4f75a4384dfc",
      "resource": {
        "resourceType": "Observation",
        "id": "f76eac33-5b4a-4238-8c22-4f75a4384dfc",
        "meta": {
          "profile": [
            "http://hl7.eu/fhir/laboratory/StructureDefinition/Observation-resultslab-eu-lab"
          ]
        },
        "performer": [
          {
            "display": "The Central European Lab"
          }
        ],
        "category": [
          {
            "coding": [
              {
                "system": "http://terminology.hl7.org/CodeSystem/observation-category",
                "code": "laboratory"
              }
            ]
          }
        ],
        "code": {
          "coding": [
            {
              "code": "2069-3",
              "system": "http://loinc.org",
              "display": "Chloride [Moles/volume] in Blood"
            }
          ],
          "text": "Chloride [Moles/volume] in Blood"
        },
        "valueQuantity": {
          "system": "http://unitsofmeasure.org",
          "value": 108.5,
          "unit": "mmol/L",
          "code": "mmol/L"
        },
        "referenceRange": [
          {
            "low": {
              "value": 98,
              "code": "mmol/L",
              "system": "http://unitsofmeasure.org"
            }
          },
          {
            "high": {
              "value": 110,
              "code": "mmol/L",
              "system": "http://unitsofmeasure.org"
            }
          }
        ],
        "text": {
          "status": "generated",
          "div": "<div xmlns=\"http://www.w3.org/1999/xhtml\"><table class=\"hl7__eu__lab__report\"><tr><th>Test</th><th>18-Dec-2024</th><th>Reference&#xA0;Range</th><th>Unit</th></tr><tr><td>Chloride [Moles/volume] in Blood</td><td>108.5</td><td>98 - 110</td><td></td><td>mmol/L</td></tr></table></div>"
        },
        "status": "final",
        "subject": {
          "reference": "urn:uuid:bfdfd106-086e-45c5-93b4-3f5aece79940",
          "display": "Θεμιστοκλής Λιναρδάκη"
        },
        "effectiveDateTime": "2024-12-18T06:16:00Z",
        "specimen": {
          "reference": "urn:uuid:a04c801d-57d7-4b4a-be69-4b0bf04eff5e"
        }
      }
    },
    {
      "fullUrl": "urn:uuid:df0fafd5-e024-4f28-8ff9-6956180def59",
      "resource": {
        "resourceType": "Observation",
        "id": "df0fafd5-e024-4f28-8ff9-6956180def59",
        "meta": {
          "profile": [
            "http://hl7.eu/fhir/laboratory/StructureDefinition/Observation-resultslab-eu-lab"
          ]
        },
        "performer": [
          {
            "display": "The Central European Lab"
          }
        ],
        "category": [
          {
            "coding": [
              {
                "system": "http://terminology.hl7.org/CodeSystem/observation-category",
                "code": "laboratory"
              }
            ]
          }
        ],
        "code": {
          "coding": [
            {
              "code": "20565-8",
              "system": "http://loinc.org",
              "display": "Carbon dioxide, total [Moles/volume] in Blood"
            }
          ],
          "text": "Carbon dioxide, total [Moles/volume] in Blood"
        },
        "valueQuantity": {
          "system": "http://unitsofmeasure.org",
          "value": 25.1,
          "unit": "mmol/L",
          "code": "mmol/L"
        },
        "referenceRange": [
          {
            "low": {
              "value": 22,
              "code": "mmol/L",
              "system": "http://unitsofmeasure.org"
            }
          },
          {
            "high": {
              "value": 29,
              "code": "mmol/L",
              "system": "http://unitsofmeasure.org"
            }
          }
        ],
        "text": {
          "status": "generated",
          "div": "<div xmlns=\"http://www.w3.org/1999/xhtml\"><table class=\"hl7__eu__lab__report\"><tr><th>Test</th><th>18-Dec-2024</th><th>Reference&#xA0;Range</th><th>Unit</th></tr><tr><td>Carbon dioxide, total [Moles/volume] in Blood</td><td>25.1</td><td>22 - 29</td><td></td><td>mmol/L</td></tr></table></div>"
        },
        "status": "final",
        "subject": {
          "reference": "urn:uuid:bfdfd106-086e-45c5-93b4-3f5aece79940",
          "display": "Θεμιστοκλής Λιναρδάκη"
        },
        "effectiveDateTime": "2024-12-18T06:16:00Z",
        "specimen": {
          "reference": "urn:uuid:a04c801d-57d7-4b4a-be69-4b0bf04eff5e"
        }
      }
    },
    {
      "fullUrl": "urn:uuid:90314f64-7a32-4fb6-8041-1da1c5bcec56",
      "resource": {
        "resourceType": "Device",
        "id": "90314f64-7a32-4fb6-8041-1da1c5bcec56",
        "deviceName": [
          {
            "name": "SYNDERAI Synthetic Generator",
            "type": "manufacturer-name"
          }
        ],
        "version": [
          {
            "value": "5.0"
          }
        ],
        "text": {
          "status": "generated",
          "div": "<div xmlns=\"http://www.w3.org/1999/xhtml\">SYNDERAI Synthetic Generator v5.0</div>"
        },
        "status": "active\"",
        "distinctIdentifier": "synderai-generator-50",
        "manufacturer": "SYNDERAI Project"
      }
    },
    {
      "fullUrl": "urn:uuid:15c22f83-be22-4b56-88dc-00622320599d",
      "resource": {
        "resourceType": "Provenance",
        "id": "15c22f83-be22-4b56-88dc-00622320599d",
        "target": [
          {
            "reference": "Patient/bfdfd106-086e-45c5-93b4-3f5aece79940"
          },
          {
            "reference": "Bundle/9b508f57-60e7-44ed-b505-b57eb203d700"
          },
          {
            "reference": "Composition/5e368641-c9f8-4fb1-9577-38beaaf0dac5"
          },
          {
            "reference": "PractitionerRole/b765a90d-7486-42c7-a4e2-5a23a775b0fd"
          },
          {
            "reference": "Practitioner/615f0b03-2d43-4bf5-b0ea-dd9473f0ab1c"
          },
          {
            "reference": "PractitionerRole/7d73a630-cbb4-4473-a378-5546ad2b1e80"
          },
          {
            "reference": "Organization/d3c10bfd-67e8-4353-acc9-31c88f2ec542"
          }
        ],
        "activity": {
          "text": "Synthetic Example Data Generation"
        },
        "policy": [
          "https://synderai.net/synderai-synthetic-data-policy"
        ],
        "agent": [
          {
            "type": {
              "text": "author"
            },
            "who": {
              "reference": "Device/90314f64-7a32-4fb6-8041-1da1c5bcec56"
            }
          }
        ],
        "reason": [
          {
            "text": "Interoperability Testing and Training (non-clinical use)"
          }
        ],
        "text": {
          "status": "generated",
          "div": "<div xmlns=\"http://www.w3.org/1999/xhtml\">Provenance for SYNDERAI Synthetic Example Data Resource</div>"
        },
        "recorded": "2024-12-18T07:16:00Z"
      }
    },
    {
      "fullUrl": "urn:uuid:b765a90d-7486-42c7-a4e2-5a23a775b0fd",
      "resource": {
        "resourceType": "PractitionerRole",
        "id": "b765a90d-7486-42c7-a4e2-5a23a775b0fd",
        "meta": {
          "profile": [
            "http://hl7.eu/fhir/base/StructureDefinition/practitionerRole-eu"
          ]
        },
        "text": {
          "status": "generated",
          "div": "<div xmlns=\"http://www.w3.org/1999/xhtml\">Laboratory Role Id: b765a90d-7486-42c7-a4e2-5a23a775b0fd</div>"
        },
        "practitioner": {
          "reference": "urn:uuid:615f0b03-2d43-4bf5-b0ea-dd9473f0ab1c"
        }
      }
    },
    {
      "fullUrl": "urn:uuid:615f0b03-2d43-4bf5-b0ea-dd9473f0ab1c",
      "resource": {
        "resourceType": "Practitioner",
        "id": "615f0b03-2d43-4bf5-b0ea-dd9473f0ab1c",
        "meta": {
          "profile": [
            "http://hl7.eu/fhir/base/StructureDefinition/practitioner-eu"
          ]
        },
        "identifier": [
          {
            "assigner": {
              "display": "HL7 Europe"
            },
            "system": "urn:oid:2.16.840.1.113883.2.51.999",
            "value": "4f5e3732-29c8-43b6-abea-8eb524eb35c4"
          }
        ],
        "name": [
          {
            "prefix": [
              "dr"
            ],
            "given": [
              "Ex"
            ],
            "family": "Ample"
          }
        ],
        "address": [
          {
            "line": [
              "Laboratoire Central Européenne",
              "Boulevard du Jardin Botanique 32"
            ],
            "postalCode": "1000",
            "city": "Brussels",
            "country": "Belgium"
          }
        ],
        "text": {
          "status": "generated",
          "div": "<div xmlns=\"http://www.w3.org/1999/xhtml\">Laboratory: Laboratoire Central Européenne, 1000 Brussels, Belgium</div>"
        }
      }
    }
  ],
  "type": "document",
  "timestamp": "2024-12-18T07:16:00Z"
}
