{
  "resourceType": "Bundle",
  "id": "c2495209-8c89-41e1-a715-1da2f21302f5",
  "meta": {
    "profile": [
      "http://hl7.eu/fhir/laboratory/StructureDefinition/Bundle-eu-lab"
    ]
  },
  "identifier": {
    "assigner": {
      "display": "HL7 Europe"
    },
    "system": "urn:oid:2.16.840.1.113883.2.51.999",
    "value": "93ad7fc5-6b7a-44d2-8bf1-f2d9d1b18066"
  },
  "entry": [
    {
      "fullUrl": "urn:uuid:55c7b976-13f5-4958-82e7-4d5acd3fc7f3",
      "resource": {
        "resourceType": "Composition",
        "id": "55c7b976-13f5-4958-82e7-4d5acd3fc7f3",
        "meta": {
          "profile": [
            "http://hl7.eu/fhir/laboratory/StructureDefinition/Composition-eu-lab"
          ]
        },
        "identifier": {
          "assigner": {
            "display": "HL7 Europe"
          },
          "system": "urn:oid:2.16.840.1.113883.2.51.999",
          "value": "70eb7a19-7a4b-4674-a77d-1832a347166f"
        },
        "author": [
          {
            "reference": "urn:uuid:54e84f69-9459-43ef-9763-df0b4c46531e"
          }
        ],
        "category": [
          {
            "coding": [
              {
                "code": "26436-6",
                "system": "http://loinc.org",
                "display": "Laboratory studies (set)"
              }
            ]
          }
        ],
        "type": {
          "coding": [
            {
              "code": "11502-2",
              "system": "http://loinc.org",
              "display": "Laboratory report"
            }
          ],
          "text": "Laboratory Report"
        },
        "section": [
          {
            "code": {
              "coding": [
                {
                  "code": "26436-6",
                  "system": "http://loinc.org",
                  "display": "Laboratory studies (set)"
                }
              ],
              "text": "Laboratory studies"
            },
            "section": [
              {
                "code": {
                  "coding": [
                    {
                      "code": "$18719-5",
                      "system": "http://loinc.org",
                      "display": "Chemistry studies (set)"
                    }
                  ],
                  "text": "Chemistry"
                },
                "entry": [
                  {
                    "reference": "urn:uuid:1ba673b0-b7ed-4806-a245-cbded3d80c93"
                  },
                  {
                    "reference": "urn:uuid:7bee5344-dd1e-4963-b60c-403982aa9676"
                  },
                  {
                    "reference": "urn:uuid:68909d9c-aad5-408e-a680-e1a021b5ec55"
                  },
                  {
                    "reference": "urn:uuid:45f7c76b-cf43-45bd-872c-da67ff603751"
                  },
                  {
                    "reference": "urn:uuid:cb787b2e-7924-41db-8513-e3c5fd16c0fb"
                  },
                  {
                    "reference": "urn:uuid:1113e6a1-609d-4833-a834-41b58597f263"
                  },
                  {
                    "reference": "urn:uuid:69b95fea-389f-4194-ab20-ebd100f92795"
                  },
                  {
                    "reference": "urn:uuid:b9dc1c55-4049-4719-bfcb-14ae28a5ad26"
                  },
                  {
                    "reference": "urn:uuid:7f59823e-249b-4d13-97c9-4d2ffe357ff3"
                  }
                ],
                "text": {
                  "status": "generated",
                  "div": "<div xmlns=\"http://www.w3.org/1999/xhtml\"><h3>Chemistry</h3><table class=\"hl7__eu__lab__report\"><thead><tr><th>Test</th><th>13-DEC-2022</th><th>Reference&#xA0;Range</th><th>Unit</th></tr></thead><tbody><tr><td>Glucose [Mass/volume] in Serum or Plasma</td><td><strong>67.1 L</strong></td><td>70 - 139</td><td>mg/dL</td></tr><tr><td>Urea nitrogen [Mass/volume] in Serum or Plasma</td><td>8.0</td><td>7 - 20</td><td>mg/dL</td></tr><tr><td>Creatinine [Mass/volume] in Serum or Plasma</td><td><strong>1.7 H</strong></td><td>0.6 - 1.1</td><td>mg/dL</td></tr><tr><td>Calcium [Mass/volume] in Serum or Plasma</td><td>9.4</td><td>8.5 - 10.4</td><td>mg/dL</td></tr><tr><td>Sodium [Moles/volume] in Serum or Plasma</td><td>136.2</td><td>135 - 145</td><td>mmol/L</td></tr><tr><td>Potassium [Moles/volume] in Serum or Plasma</td><td>3.8</td><td>3.5 - 5.1</td><td>mmol/L</td></tr><tr><td>Chloride [Moles/volume] in Serum or Plasma</td><td>108.5</td><td>98 - 110</td><td>mmol/L</td></tr><tr><td>Carbon dioxide, total [Moles/volume] in Serum or Plasma</td><td>28.3</td><td>22 - 32</td><td>mmol/L</td></tr><tr><td>Ketones [Presence] in Urine by Test strip</td><td>Urine ketone test = trace</td><td></td><td></td></tr></tbody></table></div>"
                },
                "title": "Chemistry"
              },
              {
                "code": {
                  "coding": [
                    {
                      "code": "$18729-4",
                      "system": "http://loinc.org",
                      "display": "Urinalysis studies (set)"
                    }
                  ],
                  "text": "Urinalysis"
                },
                "entry": [
                  {
                    "reference": "urn:uuid:a0bce87e-d40c-4f4e-a294-2a1854b47f5f"
                  },
                  {
                    "reference": "urn:uuid:31d4f231-89ce-40b5-ac0c-111eaab074f8"
                  },
                  {
                    "reference": "urn:uuid:6e722018-b44c-4471-a5e7-e8fa024b7846"
                  },
                  {
                    "reference": "urn:uuid:b5c891be-95ae-4da0-a11e-24bb2313fdf3"
                  },
                  {
                    "reference": "urn:uuid:bb04dad9-3290-4cc2-9ede-40b019090b3a"
                  },
                  {
                    "reference": "urn:uuid:cf51752c-37ca-4e5c-83d8-b1180823d07e"
                  },
                  {
                    "reference": "urn:uuid:5e08f22a-4e64-49c1-ace5-6031f2d4c61c"
                  },
                  {
                    "reference": "urn:uuid:b3abb6e7-928a-46d0-a156-2a197ba73ed5"
                  },
                  {
                    "reference": "urn:uuid:d8bf5122-c36f-4441-9dd7-e76bbe85bb6a"
                  },
                  {
                    "reference": "urn:uuid:20db7292-38bc-4558-8c8d-dd9f257e8d53"
                  },
                  {
                    "reference": "urn:uuid:ef3e7d53-0358-4972-8591-b445b9947427"
                  },
                  {
                    "reference": "urn:uuid:c8a9952a-093d-4025-84e9-cd06572188b8"
                  }
                ],
                "text": {
                  "status": "generated",
                  "div": "<div xmlns=\"http://www.w3.org/1999/xhtml\"><h3>Urinalysis</h3><table class=\"hl7__eu__lab__report\"><thead><tr><th>Test</th><th>13-DEC-2022</th><th>Reference&#xA0;Range</th><th>Unit</th></tr></thead><tbody><tr><td>Glucose [Mass/volume] in Urine by Test strip</td><td><strong>1.2 H</strong></td><td>0 - 0</td><td>mg/dL</td></tr><tr><td>Glucose [Presence] in Urine by Test strip</td><td>++</td><td></td><td></td></tr><tr><td>Bilirubin.total [Mass/volume] in Urine by Test strip</td><td>0.3</td><td>0 - 1.6</td><td>mg/dL</td></tr><tr><td>Bilirubin.total [Presence] in Urine by Test strip</td><td>Finding of bilirubin in urine</td><td></td><td></td></tr><tr><td>Ketones [Mass/volume] in Urine by Test strip</td><td><strong>6.2 H</strong></td><td>0 - 0.5</td><td>mg/dL</td></tr><tr><td>Specific gravity of Urine by Test strip</td><td><strong>1.0 L</strong></td><td>1.005 - 1.03</td><td>{nominal}</td></tr><tr><td>pH of Urine by Test strip</td><td>6.0</td><td>4.5 - 7.5</td><td>pH</td></tr><tr><td>Protein [Mass/volume] in Urine by Test strip</td><td><strong>139.0 H</strong></td><td>0 - 15</td><td>mg/dL</td></tr><tr><td>Protein [Presence] in Urine by Test strip</td><td>Urine protein test = +</td><td></td><td></td></tr><tr><td>Nitrite [Presence] in Urine by Test strip</td><td>Urine nitrite negative</td><td></td><td></td></tr><tr><td>Hemoglobin [Presence] in Urine by Test strip</td><td>Urine blood test = negative</td><td></td><td></td></tr><tr><td>Leukocyte esterase [Presence] in Urine by Test strip</td><td>Urine leukocyte test negative</td><td></td><td></td></tr></tbody></table></div>"
                },
                "title": "Urinalysis"
              },
              {
                "code": {
                  "coding": [
                    {
                      "code": "$LP7846-1",
                      "system": "http://loinc.org",
                      "display": "Specimen information"
                    }
                  ],
                  "text": "Specimen information"
                },
                "entry": [
                  {
                    "reference": "urn:uuid:304fbb4d-fad3-4b3c-b1c0-2fa9dbf958c9"
                  },
                  {
                    "reference": "urn:uuid:cc3e6f1e-3a6d-4c43-adc3-346c8bfc8755"
                  },
                  {
                    "reference": "urn:uuid:2be9c9b8-8370-47c3-a6dd-c1e2d8e4ca2b"
                  },
                  {
                    "reference": "urn:uuid:cea44c8d-e3a8-46a3-b9a7-b0f7428bc649"
                  }
                ],
                "text": {
                  "status": "generated",
                  "div": "<div xmlns=\"http://www.w3.org/1999/xhtml\"><h3>Specimen information</h3><table class=\"hl7__eu__lab__report\"><thead><tr><th>Test</th><th>13-DEC-2022</th><th>Specimen</th><th></th></tr></thead><tbody><tr><td>Appearance of Urine</td><td>Cloudy urine</td><td>Urine</td><td></td></tr><tr><td>Odor of Urine</td><td>Urine smell ammoniacal</td><td>Urine</td><td></td></tr><tr><td>Clarity of Urine</td><td>Translucent</td><td>Urine</td><td></td></tr><tr><td>Color of Urine</td><td>Brown color</td><td>Urine</td><td></td></tr></tbody></table></div>"
                },
                "title": "Specimen information"
              }
            ],
            "title": "Laboratory Report"
          },
          {
            "text": {
              "status": "generated",
              "div": "<div xmlns=\"http://www.w3.org/1999/xhtml\"><h3>Annotation</h3><table class=\"hl7__eu__lab__report\"><tr><th>Conclusion and Recommendations based on this report and previous findings known to us</th></tr><tr><td>The patient shows mild hypoglycemia, elevated creatinine suggesting possible renal impairment, and significant proteinuria with ketonuria and glucosuria. Urine is cloudy, brown, and has low specific gravity, with bilirubin present. No evidence of urinary tract infection (negative nitrites/leukocytes). Findings are suggestive of possible diabetic nephropathy or another renal pathology; clinical correlation and further nephrological evaluation are recommended.</td></tr></table></div>"
            },
            "code": {
              "coding": [
                {
                  "system": "http://loinc.org",
                  "code": "48767-8",
                  "display": "Annotation comment"
                }
              ]
            },
            "title": "Annotation comment"
          }
        ],
        "status": "final",
        "subject": {
          "reference": "urn:uuid:c018ef3e-0a21-480a-91a6-549c0f3fd297",
          "display": "Hortense Gallet"
        },
        "date": "2022-12-13T21:16:45Z",
        "title": "Laboratory Report",
        "confidentiality": "N"
      }
    },
    {
      "fullUrl": "urn:uuid:a5e3ac13-ec1c-42a1-9575-b686a501a02d",
      "resource": {
        "resourceType": "DiagnosticReport",
        "id": "a5e3ac13-ec1c-42a1-9575-b686a501a02d",
        "meta": {
          "profile": [
            "http://hl7.eu/fhir/laboratory/StructureDefinition/DiagnosticReport-eu-lab"
          ]
        },
        "identifier": [
          {
            "assigner": {
              "display": "HL7 Europe"
            },
            "system": "urn:oid:2.16.840.1.113883.2.51.999",
            "value": "3f140eb3-8ae1-409b-99f1-5f5a012bf56f"
          }
        ],
        "extension": [
          {
            "url": "http://hl7.org/fhir/5.0/StructureDefinition/extension-DiagnosticReport.composition",
            "valueReference": {
              "reference": "urn:uuid:70eb7a19-7a4b-4674-a77d-1832a347166f"
            }
          }
        ],
        "category": [
          {
            "coding": [
              {
                "code": "26436-6",
                "system": "http://loinc.org",
                "display": "Laboratory studies (set)"
              }
            ]
          }
        ],
        "specimen": [
          {
            "reference": "urn:uuid:cb81b8b4-bb54-49ce-962d-5ea4e2da3769"
          },
          {
            "reference": "urn:uuid:a6e740a9-e14d-4199-9576-17f928aa580a"
          }
        ],
        "result": [
          {
            "reference": "urn:uuid:1ba673b0-b7ed-4806-a245-cbded3d80c93"
          },
          {
            "reference": "urn:uuid:7bee5344-dd1e-4963-b60c-403982aa9676"
          },
          {
            "reference": "urn:uuid:68909d9c-aad5-408e-a680-e1a021b5ec55"
          },
          {
            "reference": "urn:uuid:45f7c76b-cf43-45bd-872c-da67ff603751"
          },
          {
            "reference": "urn:uuid:cb787b2e-7924-41db-8513-e3c5fd16c0fb"
          },
          {
            "reference": "urn:uuid:1113e6a1-609d-4833-a834-41b58597f263"
          },
          {
            "reference": "urn:uuid:69b95fea-389f-4194-ab20-ebd100f92795"
          },
          {
            "reference": "urn:uuid:b9dc1c55-4049-4719-bfcb-14ae28a5ad26"
          },
          {
            "reference": "urn:uuid:304fbb4d-fad3-4b3c-b1c0-2fa9dbf958c9"
          },
          {
            "reference": "urn:uuid:cc3e6f1e-3a6d-4c43-adc3-346c8bfc8755"
          },
          {
            "reference": "urn:uuid:2be9c9b8-8370-47c3-a6dd-c1e2d8e4ca2b"
          },
          {
            "reference": "urn:uuid:cea44c8d-e3a8-46a3-b9a7-b0f7428bc649"
          },
          {
            "reference": "urn:uuid:a0bce87e-d40c-4f4e-a294-2a1854b47f5f"
          },
          {
            "reference": "urn:uuid:31d4f231-89ce-40b5-ac0c-111eaab074f8"
          },
          {
            "reference": "urn:uuid:6e722018-b44c-4471-a5e7-e8fa024b7846"
          },
          {
            "reference": "urn:uuid:b5c891be-95ae-4da0-a11e-24bb2313fdf3"
          },
          {
            "reference": "urn:uuid:bb04dad9-3290-4cc2-9ede-40b019090b3a"
          },
          {
            "reference": "urn:uuid:7f59823e-249b-4d13-97c9-4d2ffe357ff3"
          },
          {
            "reference": "urn:uuid:cf51752c-37ca-4e5c-83d8-b1180823d07e"
          },
          {
            "reference": "urn:uuid:5e08f22a-4e64-49c1-ace5-6031f2d4c61c"
          },
          {
            "reference": "urn:uuid:b3abb6e7-928a-46d0-a156-2a197ba73ed5"
          },
          {
            "reference": "urn:uuid:d8bf5122-c36f-4441-9dd7-e76bbe85bb6a"
          },
          {
            "reference": "urn:uuid:20db7292-38bc-4558-8c8d-dd9f257e8d53"
          },
          {
            "reference": "urn:uuid:ef3e7d53-0358-4972-8591-b445b9947427"
          },
          {
            "reference": "urn:uuid:c8a9952a-093d-4025-84e9-cd06572188b8"
          }
        ],
        "status": "registered",
        "code": {
          "coding": [
            {
              "code": "11502-2",
              "system": "http://loinc.org",
              "display": "Laboratory report"
            }
          ]
        },
        "subject": {
          "reference": "urn:uuid:c018ef3e-0a21-480a-91a6-549c0f3fd297",
          "display": "Hortense Gallet"
        }
      }
    },
    {
      "fullUrl": "urn:uuid:c018ef3e-0a21-480a-91a6-549c0f3fd297",
      "resource": {
        "resourceType": "Patient",
        "id": "c018ef3e-0a21-480a-91a6-549c0f3fd297",
        "meta": {
          "security": [
            {
              "system": "http://terminology.hl7.org/CodeSystem/v3-ActReason",
              "code": "HTEST"
            },
            {
              "system": "http://terminology.hl7.org/CodeSystem/v3-ActReason",
              "code": "TRAIN"
            }
          ],
          "tag": [
            {
              "system": "https://synderai.net/fhir/CodeSystem/tags",
              "code": "synthetic",
              "display": "SYNDERAI Synthetic data"
            }
          ],
          "profile": [
            "http://hl7.eu/fhir/base/StructureDefinition/patient-eu-core"
          ]
        },
        "identifier": [
          {
            "type": {
              "coding": [
                {
                  "code": "PT",
                  "system": "http://terminology.hl7.org/CodeSystem/v2-0203"
                }
              ]
            },
            "system": "http://ec.europa.eu/identifier/eci",
            "value": "7727-126450-7"
          },
          {
            "type": {
              "coding": [
                {
                  "code": "MR",
                  "system": "http://terminology.hl7.org/CodeSystem/v2-0203"
                }
              ]
            },
            "system": "http://local.setting.eu/identifier",
            "value": "7f40b956-404d-dd5b-92ca-442ee97c8277"
          }
        ],
        "name": [
          {
            "family": "Gallet"
          },
          {
            "given": [
              "Hortense"
            ]
          },
          {
            "text": "Hortense Gallet"
          }
        ],
        "address": [
          {
            "line": [
              "98, boulevard de Faure"
            ],
            "use": "home",
            "type": "physical",
            "postalCode": "03210",
            "city": "Besson",
            "country": "France"
          }
        ],
        "telecom": [
          {
            "system": "phone",
            "value": "03 26 87 89 04"
          }
        ],
        "extension": [
          {
            "url": "http://hl7.org/fhir/StructureDefinition/patient-nationality",
            "valueCodeableConcept": {
              "coding": [
                {
                  "code": "FR",
                  "system": "http://hl7.org/fhir/ValueSet/country"
                }
              ]
            }
          }
        ],
        "text": {
          "status": "generated",
          "div": "<div xmlns=\"http://www.w3.org/1999/xhtml\"><table class=\"hl7__ips\"><tr><td>Hortense Gallet</td><td>female</td><td>14-Feb-1967</td></tr></table></div>"
        },
        "gender": "female",
        "birthDate": "1967-02-14"
      }
    },
    {
      "fullUrl": "urn:uuid:ef88f1b7-46f8-47c3-a825-731c03c9c049",
      "resource": {
        "resourceType": "ServiceRequest",
        "id": "ef88f1b7-46f8-47c3-a825-731c03c9c049",
        "meta": {
          "profile": [
            "http://hl7.eu/fhir/laboratory/StructureDefinition/ServiceRequest-eu-lab"
          ]
        },
        "identifier": [
          {
            "system": "http://example.org",
            "value": "9dbe5d0d-bb44-4754-92d1-09f0f8a4b515"
          }
        ],
        "specimen": [
          {
            "reference": "urn:uuid:cb81b8b4-bb54-49ce-962d-5ea4e2da3769"
          },
          {
            "reference": "urn:uuid:a6e740a9-e14d-4199-9576-17f928aa580a"
          }
        ],
        "reasonCode": [
          {
            "coding": [
              {
                "code": "431856006",
                "system": "http://snomed.info/sct",
                "display": "Chronic kidney disease stage 2"
              }
            ]
          },
          {
            "coding": [
              {
                "code": "90781000119102",
                "system": "http://snomed.info/sct",
                "display": "Microalbuminuria due to type 2 diabetes mellitus"
              }
            ]
          },
          {
            "coding": [
              {
                "code": "127013003",
                "system": "http://snomed.info/sct",
                "display": "Disorder of kidney due to diabetes mellitus"
              }
            ]
          },
          {
            "coding": [
              {
                "code": "431855005",
                "system": "http://snomed.info/sct",
                "display": "Chronic kidney disease stage 1"
              }
            ]
          },
          {
            "coding": [
              {
                "code": "59621000",
                "system": "http://snomed.info/sct",
                "display": "Essential hypertension"
              }
            ]
          }
        ],
        "status": "active",
        "intent": "order",
        "code": {
          "coding": [
            {
              "code": "108252007",
              "system": "http://snomed.info/sct",
              "display": "Laboratory procedure"
            }
          ]
        },
        "subject": {
          "reference": "urn:uuid:c018ef3e-0a21-480a-91a6-549c0f3fd297",
          "display": "Hortense Gallet"
        },
        "requester": {
          "reference": "urn:uuid:e96db0c9-903b-43a0-baac-7a841cb5a562"
        }
      }
    },
    {
      "fullUrl": "urn:uuid:e96db0c9-903b-43a0-baac-7a841cb5a562",
      "resource": {
        "resourceType": "PractitionerRole",
        "id": "e96db0c9-903b-43a0-baac-7a841cb5a562",
        "meta": {
          "profile": [
            "http://hl7.eu/fhir/base/StructureDefinition/practitionerRole-eu"
          ]
        },
        "text": {
          "status": "generated",
          "div": "<div xmlns=\"http://www.w3.org/1999/xhtml\">Provider Role Id: e96db0c9-903b-43a0-baac-7a841cb5a562</div>"
        },
        "organization": {
          "reference": "urn:uuid:72556f7d-4ba6-4884-aafd-4d1cb47318d7"
        }
      }
    },
    {
      "fullUrl": "urn:uuid:72556f7d-4ba6-4884-aafd-4d1cb47318d7",
      "resource": {
        "resourceType": "Organization",
        "id": "72556f7d-4ba6-4884-aafd-4d1cb47318d7",
        "meta": {
          "profile": [
            "http://hl7.eu/fhir/base/StructureDefinition/organization-eu"
          ]
        },
        "identifier": [
          {
            "assigner": {
              "display": "HL7 Europe"
            },
            "system": "urn:oid:2.16.840.1.113883.2.51.999",
            "value": "f49f90e5-9923-493f-8012-a3669e5d3c5c"
          }
        ],
        "address": [
          {
            "line": [
              "Rue Jean Jaurès 140"
            ],
            "city": "Vichy",
            "postalCode": "03200",
            "country": "France"
          }
        ],
        "text": {
          "status": "generated",
          "div": "<div xmlns=\"http://www.w3.org/1999/xhtml\">Provider Organization: Centre La Chrysalide</div>"
        },
        "name": "Centre La Chrysalide"
      }
    },
    {
      "fullUrl": "urn:uuid:cb81b8b4-bb54-49ce-962d-5ea4e2da3769",
      "resource": {
        "resourceType": "Specimen",
        "id": "cb81b8b4-bb54-49ce-962d-5ea4e2da3769",
        "meta": {
          "profile": [
            "http://hl7.eu/fhir/laboratory/StructureDefinition/Specimen-eu-lab"
          ]
        },
        "collection": {
          "collectedDateTime": "2022-12-13"
        },
        "text": {
          "status": "generated",
          "div": "<div xmlns=\"http://www.w3.org/1999/xhtml\"><table class=\"hl7__eu__lab__report\"><tr><th>Specimen</th><th>Collection Date</th></tr><tr><td>Acellular blood (serum or plasma) specimen</td><td><span class=\"nb\">13-Dec-2022</span></td></tr></table></div>"
        },
        "type": {
          "coding": [
            {
              "code": "122592007",
              "system": "http://snomed.info/sct",
              "display": "Acellular blood (serum or plasma) specimen"
            }
          ]
        }
      }
    },
    {
      "fullUrl": "urn:uuid:a6e740a9-e14d-4199-9576-17f928aa580a",
      "resource": {
        "resourceType": "Specimen",
        "id": "a6e740a9-e14d-4199-9576-17f928aa580a",
        "meta": {
          "profile": [
            "http://hl7.eu/fhir/laboratory/StructureDefinition/Specimen-eu-lab"
          ]
        },
        "collection": {
          "collectedDateTime": "2022-12-13"
        },
        "text": {
          "status": "generated",
          "div": "<div xmlns=\"http://www.w3.org/1999/xhtml\"><table class=\"hl7__eu__lab__report\"><tr><th>Specimen</th><th>Collection Date</th></tr><tr><td>Urine specimen</td><td><span class=\"nb\">13-Dec-2022</span></td></tr></table></div>"
        },
        "type": {
          "coding": [
            {
              "code": "122575003",
              "system": "http://snomed.info/sct",
              "display": "Urine specimen"
            }
          ]
        }
      }
    },
    {
      "fullUrl": "urn:uuid:1ba673b0-b7ed-4806-a245-cbded3d80c93",
      "resource": {
        "resourceType": "Observation",
        "id": "1ba673b0-b7ed-4806-a245-cbded3d80c93",
        "meta": {
          "profile": [
            "http://hl7.eu/fhir/laboratory/StructureDefinition/Observation-resultslab-eu-lab"
          ]
        },
        "performer": [
          {
            "display": "The Central European Lab"
          }
        ],
        "category": [
          {
            "coding": [
              {
                "system": "http://terminology.hl7.org/CodeSystem/observation-category",
                "code": "laboratory"
              }
            ]
          }
        ],
        "code": {
          "coding": [
            {
              "code": "2345-7",
              "system": "http://loinc.org",
              "display": "Glucose [Mass/volume] in Serum or Plasma"
            }
          ],
          "text": "Glucose [Mass/volume] in Serum or Plasma"
        },
        "valueQuantity": {
          "system": "http://unitsofmeasure.org",
          "value": 67.1,
          "unit": "mg/dL",
          "code": "mg/dL"
        },
        "referenceRange": [
          {
            "low": {
              "value": 70,
              "code": "mg/dL",
              "system": "http://unitsofmeasure.org"
            }
          },
          {
            "high": {
              "value": 139,
              "code": "mg/dL",
              "system": "http://unitsofmeasure.org"
            }
          }
        ],
        "interpretation": [
          {
            "coding": [
              {
                "code": "L",
                "system": "http://terminology.hl7.org/CodeSystem/v3-ObservationInterpretation",
                "display": "Low"
              }
            ]
          }
        ],
        "text": {
          "status": "generated",
          "div": "<div xmlns=\"http://www.w3.org/1999/xhtml\"><table class=\"hl7__eu__lab__report\"><tr><th>Test</th><th>13-Dec-2022</th><th>Reference&#xA0;Range</th><th>Unit</th></tr><tr><td>Glucose [Mass/volume] in Serum or Plasma</td><td>67.1</td><td>70 - 139</td><td>L</td><td>mg/dL</td></tr></table></div>"
        },
        "status": "final",
        "subject": {
          "reference": "urn:uuid:c018ef3e-0a21-480a-91a6-549c0f3fd297",
          "display": "Hortense Gallet"
        },
        "effectiveDateTime": "2022-12-13T20:16:45Z",
        "specimen": {
          "reference": "urn:uuid:cb81b8b4-bb54-49ce-962d-5ea4e2da3769"
        }
      }
    },
    {
      "fullUrl": "urn:uuid:7bee5344-dd1e-4963-b60c-403982aa9676",
      "resource": {
        "resourceType": "Observation",
        "id": "7bee5344-dd1e-4963-b60c-403982aa9676",
        "meta": {
          "profile": [
            "http://hl7.eu/fhir/laboratory/StructureDefinition/Observation-resultslab-eu-lab"
          ]
        },
        "performer": [
          {
            "display": "The Central European Lab"
          }
        ],
        "category": [
          {
            "coding": [
              {
                "system": "http://terminology.hl7.org/CodeSystem/observation-category",
                "code": "laboratory"
              }
            ]
          }
        ],
        "code": {
          "coding": [
            {
              "code": "3094-0",
              "system": "http://loinc.org",
              "display": "Urea nitrogen [Mass/volume] in Serum or Plasma"
            }
          ],
          "text": "Urea nitrogen [Mass/volume] in Serum or Plasma"
        },
        "valueQuantity": {
          "system": "http://unitsofmeasure.org",
          "value": 8,
          "unit": "mg/dL",
          "code": "mg/dL"
        },
        "referenceRange": [
          {
            "low": {
              "value": 7,
              "code": "mg/dL",
              "system": "http://unitsofmeasure.org"
            }
          },
          {
            "high": {
              "value": 20,
              "code": "mg/dL",
              "system": "http://unitsofmeasure.org"
            }
          }
        ],
        "text": {
          "status": "generated",
          "div": "<div xmlns=\"http://www.w3.org/1999/xhtml\"><table class=\"hl7__eu__lab__report\"><tr><th>Test</th><th>13-Dec-2022</th><th>Reference&#xA0;Range</th><th>Unit</th></tr><tr><td>Urea nitrogen [Mass/volume] in Serum or Plasma</td><td>8.0</td><td>7 - 20</td><td></td><td>mg/dL</td></tr></table></div>"
        },
        "status": "final",
        "subject": {
          "reference": "urn:uuid:c018ef3e-0a21-480a-91a6-549c0f3fd297",
          "display": "Hortense Gallet"
        },
        "effectiveDateTime": "2022-12-13T20:16:45Z",
        "specimen": {
          "reference": "urn:uuid:cb81b8b4-bb54-49ce-962d-5ea4e2da3769"
        }
      }
    },
    {
      "fullUrl": "urn:uuid:68909d9c-aad5-408e-a680-e1a021b5ec55",
      "resource": {
        "resourceType": "Observation",
        "id": "68909d9c-aad5-408e-a680-e1a021b5ec55",
        "meta": {
          "profile": [
            "http://hl7.eu/fhir/laboratory/StructureDefinition/Observation-resultslab-eu-lab"
          ]
        },
        "performer": [
          {
            "display": "The Central European Lab"
          }
        ],
        "category": [
          {
            "coding": [
              {
                "system": "http://terminology.hl7.org/CodeSystem/observation-category",
                "code": "laboratory"
              }
            ]
          }
        ],
        "code": {
          "coding": [
            {
              "code": "2160-0",
              "system": "http://loinc.org",
              "display": "Creatinine [Mass/volume] in Serum or Plasma"
            }
          ],
          "text": "Creatinine [Mass/volume] in Serum or Plasma"
        },
        "valueQuantity": {
          "system": "http://unitsofmeasure.org",
          "value": 1.7,
          "unit": "mg/dL",
          "code": "mg/dL"
        },
        "referenceRange": [
          {
            "low": {
              "value": 0.6,
              "code": "mg/dL",
              "system": "http://unitsofmeasure.org"
            }
          },
          {
            "high": {
              "value": 1.1,
              "code": "mg/dL",
              "system": "http://unitsofmeasure.org"
            }
          }
        ],
        "interpretation": [
          {
            "coding": [
              {
                "code": "H",
                "system": "http://terminology.hl7.org/CodeSystem/v3-ObservationInterpretation",
                "display": "High"
              }
            ]
          }
        ],
        "text": {
          "status": "generated",
          "div": "<div xmlns=\"http://www.w3.org/1999/xhtml\"><table class=\"hl7__eu__lab__report\"><tr><th>Test</th><th>13-Dec-2022</th><th>Reference&#xA0;Range</th><th>Unit</th></tr><tr><td>Creatinine [Mass/volume] in Serum or Plasma</td><td>1.7</td><td>0.6 - 1.1</td><td>H</td><td>mg/dL</td></tr></table></div>"
        },
        "status": "final",
        "subject": {
          "reference": "urn:uuid:c018ef3e-0a21-480a-91a6-549c0f3fd297",
          "display": "Hortense Gallet"
        },
        "effectiveDateTime": "2022-12-13T20:16:45Z",
        "specimen": {
          "reference": "urn:uuid:cb81b8b4-bb54-49ce-962d-5ea4e2da3769"
        }
      }
    },
    {
      "fullUrl": "urn:uuid:45f7c76b-cf43-45bd-872c-da67ff603751",
      "resource": {
        "resourceType": "Observation",
        "id": "45f7c76b-cf43-45bd-872c-da67ff603751",
        "meta": {
          "profile": [
            "http://hl7.eu/fhir/laboratory/StructureDefinition/Observation-resultslab-eu-lab"
          ]
        },
        "performer": [
          {
            "display": "The Central European Lab"
          }
        ],
        "category": [
          {
            "coding": [
              {
                "system": "http://terminology.hl7.org/CodeSystem/observation-category",
                "code": "laboratory"
              }
            ]
          }
        ],
        "code": {
          "coding": [
            {
              "code": "17861-6",
              "system": "http://loinc.org",
              "display": "Calcium [Mass/volume] in Serum or Plasma"
            }
          ],
          "text": "Calcium [Mass/volume] in Serum or Plasma"
        },
        "valueQuantity": {
          "system": "http://unitsofmeasure.org",
          "value": 9.4,
          "unit": "mg/dL",
          "code": "mg/dL"
        },
        "referenceRange": [
          {
            "low": {
              "value": 8.5,
              "code": "mg/dL",
              "system": "http://unitsofmeasure.org"
            }
          },
          {
            "high": {
              "value": 10.4,
              "code": "mg/dL",
              "system": "http://unitsofmeasure.org"
            }
          }
        ],
        "text": {
          "status": "generated",
          "div": "<div xmlns=\"http://www.w3.org/1999/xhtml\"><table class=\"hl7__eu__lab__report\"><tr><th>Test</th><th>13-Dec-2022</th><th>Reference&#xA0;Range</th><th>Unit</th></tr><tr><td>Calcium [Mass/volume] in Serum or Plasma</td><td>9.4</td><td>8.5 - 10.4</td><td></td><td>mg/dL</td></tr></table></div>"
        },
        "status": "final",
        "subject": {
          "reference": "urn:uuid:c018ef3e-0a21-480a-91a6-549c0f3fd297",
          "display": "Hortense Gallet"
        },
        "effectiveDateTime": "2022-12-13T20:16:45Z",
        "specimen": {
          "reference": "urn:uuid:cb81b8b4-bb54-49ce-962d-5ea4e2da3769"
        }
      }
    },
    {
      "fullUrl": "urn:uuid:cb787b2e-7924-41db-8513-e3c5fd16c0fb",
      "resource": {
        "resourceType": "Observation",
        "id": "cb787b2e-7924-41db-8513-e3c5fd16c0fb",
        "meta": {
          "profile": [
            "http://hl7.eu/fhir/laboratory/StructureDefinition/Observation-resultslab-eu-lab"
          ]
        },
        "performer": [
          {
            "display": "The Central European Lab"
          }
        ],
        "category": [
          {
            "coding": [
              {
                "system": "http://terminology.hl7.org/CodeSystem/observation-category",
                "code": "laboratory"
              }
            ]
          }
        ],
        "code": {
          "coding": [
            {
              "code": "2951-2",
              "system": "http://loinc.org",
              "display": "Sodium [Moles/volume] in Serum or Plasma"
            }
          ],
          "text": "Sodium [Moles/volume] in Serum or Plasma"
        },
        "valueQuantity": {
          "system": "http://unitsofmeasure.org",
          "value": 136.2,
          "unit": "mmol/L",
          "code": "mmol/L"
        },
        "referenceRange": [
          {
            "low": {
              "value": 135,
              "code": "mmol/L",
              "system": "http://unitsofmeasure.org"
            }
          },
          {
            "high": {
              "value": 145,
              "code": "mmol/L",
              "system": "http://unitsofmeasure.org"
            }
          }
        ],
        "text": {
          "status": "generated",
          "div": "<div xmlns=\"http://www.w3.org/1999/xhtml\"><table class=\"hl7__eu__lab__report\"><tr><th>Test</th><th>13-Dec-2022</th><th>Reference&#xA0;Range</th><th>Unit</th></tr><tr><td>Sodium [Moles/volume] in Serum or Plasma</td><td>136.2</td><td>135 - 145</td><td></td><td>mmol/L</td></tr></table></div>"
        },
        "status": "final",
        "subject": {
          "reference": "urn:uuid:c018ef3e-0a21-480a-91a6-549c0f3fd297",
          "display": "Hortense Gallet"
        },
        "effectiveDateTime": "2022-12-13T20:16:45Z",
        "specimen": {
          "reference": "urn:uuid:cb81b8b4-bb54-49ce-962d-5ea4e2da3769"
        }
      }
    },
    {
      "fullUrl": "urn:uuid:1113e6a1-609d-4833-a834-41b58597f263",
      "resource": {
        "resourceType": "Observation",
        "id": "1113e6a1-609d-4833-a834-41b58597f263",
        "meta": {
          "profile": [
            "http://hl7.eu/fhir/laboratory/StructureDefinition/Observation-resultslab-eu-lab"
          ]
        },
        "performer": [
          {
            "display": "The Central European Lab"
          }
        ],
        "category": [
          {
            "coding": [
              {
                "system": "http://terminology.hl7.org/CodeSystem/observation-category",
                "code": "laboratory"
              }
            ]
          }
        ],
        "code": {
          "coding": [
            {
              "code": "2823-3",
              "system": "http://loinc.org",
              "display": "Potassium [Moles/volume] in Serum or Plasma"
            }
          ],
          "text": "Potassium [Moles/volume] in Serum or Plasma"
        },
        "valueQuantity": {
          "system": "http://unitsofmeasure.org",
          "value": 3.8,
          "unit": "mmol/L",
          "code": "mmol/L"
        },
        "referenceRange": [
          {
            "low": {
              "value": 3.5,
              "code": "mmol/L",
              "system": "http://unitsofmeasure.org"
            }
          },
          {
            "high": {
              "value": 5.1,
              "code": "mmol/L",
              "system": "http://unitsofmeasure.org"
            }
          }
        ],
        "text": {
          "status": "generated",
          "div": "<div xmlns=\"http://www.w3.org/1999/xhtml\"><table class=\"hl7__eu__lab__report\"><tr><th>Test</th><th>13-Dec-2022</th><th>Reference&#xA0;Range</th><th>Unit</th></tr><tr><td>Potassium [Moles/volume] in Serum or Plasma</td><td>3.8</td><td>3.5 - 5.1</td><td></td><td>mmol/L</td></tr></table></div>"
        },
        "status": "final",
        "subject": {
          "reference": "urn:uuid:c018ef3e-0a21-480a-91a6-549c0f3fd297",
          "display": "Hortense Gallet"
        },
        "effectiveDateTime": "2022-12-13T20:16:45Z",
        "specimen": {
          "reference": "urn:uuid:cb81b8b4-bb54-49ce-962d-5ea4e2da3769"
        }
      }
    },
    {
      "fullUrl": "urn:uuid:69b95fea-389f-4194-ab20-ebd100f92795",
      "resource": {
        "resourceType": "Observation",
        "id": "69b95fea-389f-4194-ab20-ebd100f92795",
        "meta": {
          "profile": [
            "http://hl7.eu/fhir/laboratory/StructureDefinition/Observation-resultslab-eu-lab"
          ]
        },
        "performer": [
          {
            "display": "The Central European Lab"
          }
        ],
        "category": [
          {
            "coding": [
              {
                "system": "http://terminology.hl7.org/CodeSystem/observation-category",
                "code": "laboratory"
              }
            ]
          }
        ],
        "code": {
          "coding": [
            {
              "code": "2075-0",
              "system": "http://loinc.org",
              "display": "Chloride [Moles/volume] in Serum or Plasma"
            }
          ],
          "text": "Chloride [Moles/volume] in Serum or Plasma"
        },
        "valueQuantity": {
          "system": "http://unitsofmeasure.org",
          "value": 108.5,
          "unit": "mmol/L",
          "code": "mmol/L"
        },
        "referenceRange": [
          {
            "low": {
              "value": 98,
              "code": "mmol/L",
              "system": "http://unitsofmeasure.org"
            }
          },
          {
            "high": {
              "value": 110,
              "code": "mmol/L",
              "system": "http://unitsofmeasure.org"
            }
          }
        ],
        "text": {
          "status": "generated",
          "div": "<div xmlns=\"http://www.w3.org/1999/xhtml\"><table class=\"hl7__eu__lab__report\"><tr><th>Test</th><th>13-Dec-2022</th><th>Reference&#xA0;Range</th><th>Unit</th></tr><tr><td>Chloride [Moles/volume] in Serum or Plasma</td><td>108.5</td><td>98 - 110</td><td></td><td>mmol/L</td></tr></table></div>"
        },
        "status": "final",
        "subject": {
          "reference": "urn:uuid:c018ef3e-0a21-480a-91a6-549c0f3fd297",
          "display": "Hortense Gallet"
        },
        "effectiveDateTime": "2022-12-13T20:16:45Z",
        "specimen": {
          "reference": "urn:uuid:cb81b8b4-bb54-49ce-962d-5ea4e2da3769"
        }
      }
    },
    {
      "fullUrl": "urn:uuid:b9dc1c55-4049-4719-bfcb-14ae28a5ad26",
      "resource": {
        "resourceType": "Observation",
        "id": "b9dc1c55-4049-4719-bfcb-14ae28a5ad26",
        "meta": {
          "profile": [
            "http://hl7.eu/fhir/laboratory/StructureDefinition/Observation-resultslab-eu-lab"
          ]
        },
        "performer": [
          {
            "display": "The Central European Lab"
          }
        ],
        "category": [
          {
            "coding": [
              {
                "system": "http://terminology.hl7.org/CodeSystem/observation-category",
                "code": "laboratory"
              }
            ]
          }
        ],
        "code": {
          "coding": [
            {
              "code": "2028-9",
              "system": "http://loinc.org",
              "display": "Carbon dioxide, total [Moles/volume] in Serum or Plasma"
            }
          ],
          "text": "Carbon dioxide, total [Moles/volume] in Serum or Plasma"
        },
        "valueQuantity": {
          "system": "http://unitsofmeasure.org",
          "value": 28.3,
          "unit": "mmol/L",
          "code": "mmol/L"
        },
        "referenceRange": [
          {
            "low": {
              "value": 22,
              "code": "mmol/L",
              "system": "http://unitsofmeasure.org"
            }
          },
          {
            "high": {
              "value": 32,
              "code": "mmol/L",
              "system": "http://unitsofmeasure.org"
            }
          }
        ],
        "text": {
          "status": "generated",
          "div": "<div xmlns=\"http://www.w3.org/1999/xhtml\"><table class=\"hl7__eu__lab__report\"><tr><th>Test</th><th>13-Dec-2022</th><th>Reference&#xA0;Range</th><th>Unit</th></tr><tr><td>Carbon dioxide, total [Moles/volume] in Serum or Plasma</td><td>28.3</td><td>22 - 32</td><td></td><td>mmol/L</td></tr></table></div>"
        },
        "status": "final",
        "subject": {
          "reference": "urn:uuid:c018ef3e-0a21-480a-91a6-549c0f3fd297",
          "display": "Hortense Gallet"
        },
        "effectiveDateTime": "2022-12-13T20:16:45Z",
        "specimen": {
          "reference": "urn:uuid:cb81b8b4-bb54-49ce-962d-5ea4e2da3769"
        }
      }
    },
    {
      "fullUrl": "urn:uuid:304fbb4d-fad3-4b3c-b1c0-2fa9dbf958c9",
      "resource": {
        "resourceType": "Observation",
        "id": "304fbb4d-fad3-4b3c-b1c0-2fa9dbf958c9",
        "meta": {
          "profile": [
            "http://hl7.eu/fhir/laboratory/StructureDefinition/Observation-resultslab-eu-lab"
          ]
        },
        "performer": [
          {
            "display": "The Central European Lab"
          }
        ],
        "category": [
          {
            "coding": [
              {
                "system": "http://terminology.hl7.org/CodeSystem/observation-category",
                "code": "laboratory"
              }
            ]
          }
        ],
        "code": {
          "coding": [
            {
              "code": "5767-9",
              "system": "http://loinc.org",
              "display": "Appearance of Urine"
            }
          ],
          "text": "Appearance of Urine"
        },
        "text": {
          "status": "generated",
          "div": "<div xmlns=\"http://www.w3.org/1999/xhtml\"><table class=\"hl7__eu__lab__report\"><tr><th>Test</th><th>13-Dec-2022</th><th>Reference&#xA0;Range</th><th>Unit</th></tr><tr><td>Appearance of Urine</td></tr></table></div>"
        },
        "status": "final",
        "subject": {
          "reference": "urn:uuid:c018ef3e-0a21-480a-91a6-549c0f3fd297",
          "display": "Hortense Gallet"
        },
        "effectiveDateTime": "2022-12-13T20:16:45Z",
        "specimen": {
          "reference": "urn:uuid:a6e740a9-e14d-4199-9576-17f928aa580a"
        }
      }
    },
    {
      "fullUrl": "urn:uuid:cc3e6f1e-3a6d-4c43-adc3-346c8bfc8755",
      "resource": {
        "resourceType": "Observation",
        "id": "cc3e6f1e-3a6d-4c43-adc3-346c8bfc8755",
        "meta": {
          "profile": [
            "http://hl7.eu/fhir/laboratory/StructureDefinition/Observation-resultslab-eu-lab"
          ]
        },
        "performer": [
          {
            "display": "The Central European Lab"
          }
        ],
        "category": [
          {
            "coding": [
              {
                "system": "http://terminology.hl7.org/CodeSystem/observation-category",
                "code": "laboratory"
              }
            ]
          }
        ],
        "code": {
          "coding": [
            {
              "code": "34533-0",
              "system": "http://loinc.org",
              "display": "Odor of Urine"
            }
          ],
          "text": "Odor of Urine"
        },
        "text": {
          "status": "generated",
          "div": "<div xmlns=\"http://www.w3.org/1999/xhtml\"><table class=\"hl7__eu__lab__report\"><tr><th>Test</th><th>13-Dec-2022</th><th>Reference&#xA0;Range</th><th>Unit</th></tr><tr><td>Odor of Urine</td></tr></table></div>"
        },
        "status": "final",
        "subject": {
          "reference": "urn:uuid:c018ef3e-0a21-480a-91a6-549c0f3fd297",
          "display": "Hortense Gallet"
        },
        "effectiveDateTime": "2022-12-13T20:16:45Z",
        "specimen": {
          "reference": "urn:uuid:a6e740a9-e14d-4199-9576-17f928aa580a"
        }
      }
    },
    {
      "fullUrl": "urn:uuid:2be9c9b8-8370-47c3-a6dd-c1e2d8e4ca2b",
      "resource": {
        "resourceType": "Observation",
        "id": "2be9c9b8-8370-47c3-a6dd-c1e2d8e4ca2b",
        "meta": {
          "profile": [
            "http://hl7.eu/fhir/laboratory/StructureDefinition/Observation-resultslab-eu-lab"
          ]
        },
        "performer": [
          {
            "display": "The Central European Lab"
          }
        ],
        "category": [
          {
            "coding": [
              {
                "system": "http://terminology.hl7.org/CodeSystem/observation-category",
                "code": "laboratory"
              }
            ]
          }
        ],
        "code": {
          "coding": [
            {
              "code": "32167-9",
              "system": "http://loinc.org",
              "display": "Clarity of Urine"
            }
          ],
          "text": "Clarity of Urine"
        },
        "text": {
          "status": "generated",
          "div": "<div xmlns=\"http://www.w3.org/1999/xhtml\"><table class=\"hl7__eu__lab__report\"><tr><th>Test</th><th>13-Dec-2022</th><th>Reference&#xA0;Range</th><th>Unit</th></tr><tr><td>Clarity of Urine</td></tr></table></div>"
        },
        "status": "final",
        "subject": {
          "reference": "urn:uuid:c018ef3e-0a21-480a-91a6-549c0f3fd297",
          "display": "Hortense Gallet"
        },
        "effectiveDateTime": "2022-12-13T20:16:45Z",
        "specimen": {
          "reference": "urn:uuid:a6e740a9-e14d-4199-9576-17f928aa580a"
        }
      }
    },
    {
      "fullUrl": "urn:uuid:cea44c8d-e3a8-46a3-b9a7-b0f7428bc649",
      "resource": {
        "resourceType": "Observation",
        "id": "cea44c8d-e3a8-46a3-b9a7-b0f7428bc649",
        "meta": {
          "profile": [
            "http://hl7.eu/fhir/laboratory/StructureDefinition/Observation-resultslab-eu-lab"
          ]
        },
        "performer": [
          {
            "display": "The Central European Lab"
          }
        ],
        "category": [
          {
            "coding": [
              {
                "system": "http://terminology.hl7.org/CodeSystem/observation-category",
                "code": "laboratory"
              }
            ]
          }
        ],
        "code": {
          "coding": [
            {
              "code": "5778-6",
              "system": "http://loinc.org",
              "display": "Color of Urine"
            }
          ],
          "text": "Color of Urine"
        },
        "text": {
          "status": "generated",
          "div": "<div xmlns=\"http://www.w3.org/1999/xhtml\"><table class=\"hl7__eu__lab__report\"><tr><th>Test</th><th>13-Dec-2022</th><th>Reference&#xA0;Range</th><th>Unit</th></tr><tr><td>Color of Urine</td></tr></table></div>"
        },
        "status": "final",
        "subject": {
          "reference": "urn:uuid:c018ef3e-0a21-480a-91a6-549c0f3fd297",
          "display": "Hortense Gallet"
        },
        "effectiveDateTime": "2022-12-13T20:16:45Z",
        "specimen": {
          "reference": "urn:uuid:a6e740a9-e14d-4199-9576-17f928aa580a"
        }
      }
    },
    {
      "fullUrl": "urn:uuid:a0bce87e-d40c-4f4e-a294-2a1854b47f5f",
      "resource": {
        "resourceType": "Observation",
        "id": "a0bce87e-d40c-4f4e-a294-2a1854b47f5f",
        "meta": {
          "profile": [
            "http://hl7.eu/fhir/laboratory/StructureDefinition/Observation-resultslab-eu-lab"
          ]
        },
        "performer": [
          {
            "display": "The Central European Lab"
          }
        ],
        "category": [
          {
            "coding": [
              {
                "system": "http://terminology.hl7.org/CodeSystem/observation-category",
                "code": "laboratory"
              }
            ]
          }
        ],
        "code": {
          "coding": [
            {
              "code": "5792-7",
              "system": "http://loinc.org",
              "display": "Glucose [Mass/volume] in Urine by Test strip"
            }
          ],
          "text": "Glucose [Mass/volume] in Urine by Test strip"
        },
        "valueQuantity": {
          "system": "http://unitsofmeasure.org",
          "value": 1.2,
          "unit": "mg/dL",
          "code": "mg/dL"
        },
        "referenceRange": [
          {
            "low": {
              "value": 0,
              "code": "mg/dL",
              "system": "http://unitsofmeasure.org"
            }
          },
          {
            "high": {
              "value": 0,
              "code": "mg/dL",
              "system": "http://unitsofmeasure.org"
            }
          }
        ],
        "interpretation": [
          {
            "coding": [
              {
                "code": "H",
                "system": "http://terminology.hl7.org/CodeSystem/v3-ObservationInterpretation",
                "display": "High"
              }
            ]
          }
        ],
        "text": {
          "status": "generated",
          "div": "<div xmlns=\"http://www.w3.org/1999/xhtml\"><table class=\"hl7__eu__lab__report\"><tr><th>Test</th><th>13-Dec-2022</th><th>Reference&#xA0;Range</th><th>Unit</th></tr><tr><td>Glucose [Mass/volume] in Urine by Test strip</td><td>1.2</td><td>0 - 0</td><td>H</td><td>mg/dL</td></tr></table></div>"
        },
        "status": "final",
        "subject": {
          "reference": "urn:uuid:c018ef3e-0a21-480a-91a6-549c0f3fd297",
          "display": "Hortense Gallet"
        },
        "effectiveDateTime": "2022-12-13T20:16:45Z",
        "specimen": {
          "reference": "urn:uuid:a6e740a9-e14d-4199-9576-17f928aa580a"
        }
      }
    },
    {
      "fullUrl": "urn:uuid:31d4f231-89ce-40b5-ac0c-111eaab074f8",
      "resource": {
        "resourceType": "Observation",
        "id": "31d4f231-89ce-40b5-ac0c-111eaab074f8",
        "meta": {
          "profile": [
            "http://hl7.eu/fhir/laboratory/StructureDefinition/Observation-resultslab-eu-lab"
          ]
        },
        "performer": [
          {
            "display": "The Central European Lab"
          }
        ],
        "category": [
          {
            "coding": [
              {
                "system": "http://terminology.hl7.org/CodeSystem/observation-category",
                "code": "laboratory"
              }
            ]
          }
        ],
        "code": {
          "coding": [
            {
              "code": "25428-4",
              "system": "http://loinc.org",
              "display": "Glucose [Presence] in Urine by Test strip"
            }
          ],
          "text": "Glucose [Presence] in Urine by Test strip"
        },
        "text": {
          "status": "generated",
          "div": "<div xmlns=\"http://www.w3.org/1999/xhtml\"><table class=\"hl7__eu__lab__report\"><tr><th>Test</th><th>13-Dec-2022</th><th>Reference&#xA0;Range</th><th>Unit</th></tr><tr><td>Glucose [Presence] in Urine by Test strip</td></tr></table></div>"
        },
        "status": "final",
        "subject": {
          "reference": "urn:uuid:c018ef3e-0a21-480a-91a6-549c0f3fd297",
          "display": "Hortense Gallet"
        },
        "effectiveDateTime": "2022-12-13T20:16:45Z",
        "specimen": {
          "reference": "urn:uuid:a6e740a9-e14d-4199-9576-17f928aa580a"
        }
      }
    },
    {
      "fullUrl": "urn:uuid:6e722018-b44c-4471-a5e7-e8fa024b7846",
      "resource": {
        "resourceType": "Observation",
        "id": "6e722018-b44c-4471-a5e7-e8fa024b7846",
        "meta": {
          "profile": [
            "http://hl7.eu/fhir/laboratory/StructureDefinition/Observation-resultslab-eu-lab"
          ]
        },
        "performer": [
          {
            "display": "The Central European Lab"
          }
        ],
        "category": [
          {
            "coding": [
              {
                "system": "http://terminology.hl7.org/CodeSystem/observation-category",
                "code": "laboratory"
              }
            ]
          }
        ],
        "code": {
          "coding": [
            {
              "code": "20505-4",
              "system": "http://loinc.org",
              "display": "Bilirubin.total [Mass/volume] in Urine by Test strip"
            }
          ],
          "text": "Bilirubin.total [Mass/volume] in Urine by Test strip"
        },
        "valueQuantity": {
          "system": "http://unitsofmeasure.org",
          "value": 0.3,
          "unit": "mg/dL",
          "code": "mg/dL"
        },
        "referenceRange": [
          {
            "low": {
              "value": 0,
              "code": "mg/dL",
              "system": "http://unitsofmeasure.org"
            }
          },
          {
            "high": {
              "value": 1.6,
              "code": "mg/dL",
              "system": "http://unitsofmeasure.org"
            }
          }
        ],
        "text": {
          "status": "generated",
          "div": "<div xmlns=\"http://www.w3.org/1999/xhtml\"><table class=\"hl7__eu__lab__report\"><tr><th>Test</th><th>13-Dec-2022</th><th>Reference&#xA0;Range</th><th>Unit</th></tr><tr><td>Bilirubin.total [Mass/volume] in Urine by Test strip</td><td>0.3</td><td>0 - 1.6</td><td></td><td>mg/dL</td></tr></table></div>"
        },
        "status": "final",
        "subject": {
          "reference": "urn:uuid:c018ef3e-0a21-480a-91a6-549c0f3fd297",
          "display": "Hortense Gallet"
        },
        "effectiveDateTime": "2022-12-13T20:16:45Z",
        "specimen": {
          "reference": "urn:uuid:a6e740a9-e14d-4199-9576-17f928aa580a"
        }
      }
    },
    {
      "fullUrl": "urn:uuid:b5c891be-95ae-4da0-a11e-24bb2313fdf3",
      "resource": {
        "resourceType": "Observation",
        "id": "b5c891be-95ae-4da0-a11e-24bb2313fdf3",
        "meta": {
          "profile": [
            "http://hl7.eu/fhir/laboratory/StructureDefinition/Observation-resultslab-eu-lab"
          ]
        },
        "performer": [
          {
            "display": "The Central European Lab"
          }
        ],
        "category": [
          {
            "coding": [
              {
                "system": "http://terminology.hl7.org/CodeSystem/observation-category",
                "code": "laboratory"
              }
            ]
          }
        ],
        "code": {
          "coding": [
            {
              "code": "5770-3",
              "system": "http://loinc.org",
              "display": "Bilirubin.total [Presence] in Urine by Test strip"
            }
          ],
          "text": "Bilirubin.total [Presence] in Urine by Test strip"
        },
        "text": {
          "status": "generated",
          "div": "<div xmlns=\"http://www.w3.org/1999/xhtml\"><table class=\"hl7__eu__lab__report\"><tr><th>Test</th><th>13-Dec-2022</th><th>Reference&#xA0;Range</th><th>Unit</th></tr><tr><td>Bilirubin.total [Presence] in Urine by Test strip</td></tr></table></div>"
        },
        "status": "final",
        "subject": {
          "reference": "urn:uuid:c018ef3e-0a21-480a-91a6-549c0f3fd297",
          "display": "Hortense Gallet"
        },
        "effectiveDateTime": "2022-12-13T20:16:45Z",
        "specimen": {
          "reference": "urn:uuid:a6e740a9-e14d-4199-9576-17f928aa580a"
        }
      }
    },
    {
      "fullUrl": "urn:uuid:bb04dad9-3290-4cc2-9ede-40b019090b3a",
      "resource": {
        "resourceType": "Observation",
        "id": "bb04dad9-3290-4cc2-9ede-40b019090b3a",
        "meta": {
          "profile": [
            "http://hl7.eu/fhir/laboratory/StructureDefinition/Observation-resultslab-eu-lab"
          ]
        },
        "performer": [
          {
            "display": "The Central European Lab"
          }
        ],
        "category": [
          {
            "coding": [
              {
                "system": "http://terminology.hl7.org/CodeSystem/observation-category",
                "code": "laboratory"
              }
            ]
          }
        ],
        "code": {
          "coding": [
            {
              "code": "5797-6",
              "system": "http://loinc.org",
              "display": "Ketones [Mass/volume] in Urine by Test strip"
            }
          ],
          "text": "Ketones [Mass/volume] in Urine by Test strip"
        },
        "valueQuantity": {
          "system": "http://unitsofmeasure.org",
          "value": 6.2,
          "unit": "mg/dL",
          "code": "mg/dL"
        },
        "referenceRange": [
          {
            "low": {
              "value": 0,
              "code": "mg/dL",
              "system": "http://unitsofmeasure.org"
            }
          },
          {
            "high": {
              "value": 0.5,
              "code": "mg/dL",
              "system": "http://unitsofmeasure.org"
            }
          }
        ],
        "interpretation": [
          {
            "coding": [
              {
                "code": "H",
                "system": "http://terminology.hl7.org/CodeSystem/v3-ObservationInterpretation",
                "display": "High"
              }
            ]
          }
        ],
        "text": {
          "status": "generated",
          "div": "<div xmlns=\"http://www.w3.org/1999/xhtml\"><table class=\"hl7__eu__lab__report\"><tr><th>Test</th><th>13-Dec-2022</th><th>Reference&#xA0;Range</th><th>Unit</th></tr><tr><td>Ketones [Mass/volume] in Urine by Test strip</td><td>6.2</td><td>0 - 0.5</td><td>H</td><td>mg/dL</td></tr></table></div>"
        },
        "status": "final",
        "subject": {
          "reference": "urn:uuid:c018ef3e-0a21-480a-91a6-549c0f3fd297",
          "display": "Hortense Gallet"
        },
        "effectiveDateTime": "2022-12-13T20:16:45Z",
        "specimen": {
          "reference": "urn:uuid:a6e740a9-e14d-4199-9576-17f928aa580a"
        }
      }
    },
    {
      "fullUrl": "urn:uuid:7f59823e-249b-4d13-97c9-4d2ffe357ff3",
      "resource": {
        "resourceType": "Observation",
        "id": "7f59823e-249b-4d13-97c9-4d2ffe357ff3",
        "meta": {
          "profile": [
            "http://hl7.eu/fhir/laboratory/StructureDefinition/Observation-resultslab-eu-lab"
          ]
        },
        "performer": [
          {
            "display": "The Central European Lab"
          }
        ],
        "category": [
          {
            "coding": [
              {
                "system": "http://terminology.hl7.org/CodeSystem/observation-category",
                "code": "laboratory"
              }
            ]
          }
        ],
        "code": {
          "coding": [
            {
              "code": "2514-8",
              "system": "http://loinc.org",
              "display": "Ketones [Presence] in Urine by Test strip"
            }
          ],
          "text": "Ketones [Presence] in Urine by Test strip"
        },
        "text": {
          "status": "generated",
          "div": "<div xmlns=\"http://www.w3.org/1999/xhtml\"><table class=\"hl7__eu__lab__report\"><tr><th>Test</th><th>13-Dec-2022</th><th>Reference&#xA0;Range</th><th>Unit</th></tr><tr><td>Ketones [Presence] in Urine by Test strip</td></tr></table></div>"
        },
        "status": "final",
        "subject": {
          "reference": "urn:uuid:c018ef3e-0a21-480a-91a6-549c0f3fd297",
          "display": "Hortense Gallet"
        },
        "effectiveDateTime": "2022-12-13T20:16:45Z",
        "specimen": {
          "reference": "urn:uuid:a6e740a9-e14d-4199-9576-17f928aa580a"
        }
      }
    },
    {
      "fullUrl": "urn:uuid:cf51752c-37ca-4e5c-83d8-b1180823d07e",
      "resource": {
        "resourceType": "Observation",
        "id": "cf51752c-37ca-4e5c-83d8-b1180823d07e",
        "meta": {
          "profile": [
            "http://hl7.eu/fhir/laboratory/StructureDefinition/Observation-resultslab-eu-lab"
          ]
        },
        "performer": [
          {
            "display": "The Central European Lab"
          }
        ],
        "category": [
          {
            "coding": [
              {
                "system": "http://terminology.hl7.org/CodeSystem/observation-category",
                "code": "laboratory"
              }
            ]
          }
        ],
        "code": {
          "coding": [
            {
              "code": "5811-5",
              "system": "http://loinc.org",
              "display": "Specific gravity of Urine by Test strip"
            }
          ],
          "text": "Specific gravity of Urine by Test strip"
        },
        "valueQuantity": {
          "system": "http://unitsofmeasure.org",
          "value": 1,
          "unit": "{nominal}",
          "code": "{nominal}"
        },
        "referenceRange": [
          {
            "low": {
              "value": 1.005,
              "code": "g/mL",
              "system": "http://unitsofmeasure.org"
            }
          },
          {
            "high": {
              "value": 1.03,
              "code": "g/mL",
              "system": "http://unitsofmeasure.org"
            }
          }
        ],
        "interpretation": [
          {
            "coding": [
              {
                "code": "L",
                "system": "http://terminology.hl7.org/CodeSystem/v3-ObservationInterpretation",
                "display": "Low"
              }
            ]
          }
        ],
        "text": {
          "status": "generated",
          "div": "<div xmlns=\"http://www.w3.org/1999/xhtml\"><table class=\"hl7__eu__lab__report\"><tr><th>Test</th><th>13-Dec-2022</th><th>Reference&#xA0;Range</th><th>Unit</th></tr><tr><td>Specific gravity of Urine by Test strip</td><td>1.0</td><td>1.005 - 1.03</td><td>L</td><td>{nominal}</td></tr></table></div>"
        },
        "status": "final",
        "subject": {
          "reference": "urn:uuid:c018ef3e-0a21-480a-91a6-549c0f3fd297",
          "display": "Hortense Gallet"
        },
        "effectiveDateTime": "2022-12-13T20:16:45Z",
        "specimen": {
          "reference": "urn:uuid:a6e740a9-e14d-4199-9576-17f928aa580a"
        }
      }
    },
    {
      "fullUrl": "urn:uuid:5e08f22a-4e64-49c1-ace5-6031f2d4c61c",
      "resource": {
        "resourceType": "Observation",
        "id": "5e08f22a-4e64-49c1-ace5-6031f2d4c61c",
        "meta": {
          "profile": [
            "http://hl7.eu/fhir/laboratory/StructureDefinition/Observation-resultslab-eu-lab"
          ]
        },
        "performer": [
          {
            "display": "The Central European Lab"
          }
        ],
        "category": [
          {
            "coding": [
              {
                "system": "http://terminology.hl7.org/CodeSystem/observation-category",
                "code": "laboratory"
              }
            ]
          }
        ],
        "code": {
          "coding": [
            {
              "code": "5803-2",
              "system": "http://loinc.org",
              "display": "pH of Urine by Test strip"
            }
          ],
          "text": "pH of Urine by Test strip"
        },
        "valueQuantity": {
          "system": "http://unitsofmeasure.org",
          "value": 6,
          "unit": "pH",
          "code": "pH"
        },
        "referenceRange": [
          {
            "low": {
              "value": 4.5,
              "code": "pH",
              "system": "http://unitsofmeasure.org"
            }
          },
          {
            "high": {
              "value": 7.5,
              "code": "pH",
              "system": "http://unitsofmeasure.org"
            }
          }
        ],
        "text": {
          "status": "generated",
          "div": "<div xmlns=\"http://www.w3.org/1999/xhtml\"><table class=\"hl7__eu__lab__report\"><tr><th>Test</th><th>13-Dec-2022</th><th>Reference&#xA0;Range</th><th>Unit</th></tr><tr><td>pH of Urine by Test strip</td><td>6.0</td><td>4.5 - 7.5</td><td></td><td>pH</td></tr></table></div>"
        },
        "status": "final",
        "subject": {
          "reference": "urn:uuid:c018ef3e-0a21-480a-91a6-549c0f3fd297",
          "display": "Hortense Gallet"
        },
        "effectiveDateTime": "2022-12-13T20:16:45Z",
        "specimen": {
          "reference": "urn:uuid:a6e740a9-e14d-4199-9576-17f928aa580a"
        }
      }
    },
    {
      "fullUrl": "urn:uuid:b3abb6e7-928a-46d0-a156-2a197ba73ed5",
      "resource": {
        "resourceType": "Observation",
        "id": "b3abb6e7-928a-46d0-a156-2a197ba73ed5",
        "meta": {
          "profile": [
            "http://hl7.eu/fhir/laboratory/StructureDefinition/Observation-resultslab-eu-lab"
          ]
        },
        "performer": [
          {
            "display": "The Central European Lab"
          }
        ],
        "category": [
          {
            "coding": [
              {
                "system": "http://terminology.hl7.org/CodeSystem/observation-category",
                "code": "laboratory"
              }
            ]
          }
        ],
        "code": {
          "coding": [
            {
              "code": "5804-0",
              "system": "http://loinc.org",
              "display": "Protein [Mass/volume] in Urine by Test strip"
            }
          ],
          "text": "Protein [Mass/volume] in Urine by Test strip"
        },
        "valueQuantity": {
          "system": "http://unitsofmeasure.org",
          "value": 139,
          "unit": "mg/dL",
          "code": "mg/dL"
        },
        "referenceRange": [
          {
            "low": {
              "value": 0,
              "code": "mg/dL",
              "system": "http://unitsofmeasure.org"
            }
          },
          {
            "high": {
              "value": 15,
              "code": "mg/dL",
              "system": "http://unitsofmeasure.org"
            }
          }
        ],
        "interpretation": [
          {
            "coding": [
              {
                "code": "H",
                "system": "http://terminology.hl7.org/CodeSystem/v3-ObservationInterpretation",
                "display": "High"
              }
            ]
          }
        ],
        "text": {
          "status": "generated",
          "div": "<div xmlns=\"http://www.w3.org/1999/xhtml\"><table class=\"hl7__eu__lab__report\"><tr><th>Test</th><th>13-Dec-2022</th><th>Reference&#xA0;Range</th><th>Unit</th></tr><tr><td>Protein [Mass/volume] in Urine by Test strip</td><td>139.0</td><td>0 - 15</td><td>H</td><td>mg/dL</td></tr></table></div>"
        },
        "status": "final",
        "subject": {
          "reference": "urn:uuid:c018ef3e-0a21-480a-91a6-549c0f3fd297",
          "display": "Hortense Gallet"
        },
        "effectiveDateTime": "2022-12-13T20:16:45Z",
        "specimen": {
          "reference": "urn:uuid:a6e740a9-e14d-4199-9576-17f928aa580a"
        }
      }
    },
    {
      "fullUrl": "urn:uuid:d8bf5122-c36f-4441-9dd7-e76bbe85bb6a",
      "resource": {
        "resourceType": "Observation",
        "id": "d8bf5122-c36f-4441-9dd7-e76bbe85bb6a",
        "meta": {
          "profile": [
            "http://hl7.eu/fhir/laboratory/StructureDefinition/Observation-resultslab-eu-lab"
          ]
        },
        "performer": [
          {
            "display": "The Central European Lab"
          }
        ],
        "category": [
          {
            "coding": [
              {
                "system": "http://terminology.hl7.org/CodeSystem/observation-category",
                "code": "laboratory"
              }
            ]
          }
        ],
        "code": {
          "coding": [
            {
              "code": "20454-5",
              "system": "http://loinc.org",
              "display": "Protein [Presence] in Urine by Test strip"
            }
          ],
          "text": "Protein [Presence] in Urine by Test strip"
        },
        "text": {
          "status": "generated",
          "div": "<div xmlns=\"http://www.w3.org/1999/xhtml\"><table class=\"hl7__eu__lab__report\"><tr><th>Test</th><th>13-Dec-2022</th><th>Reference&#xA0;Range</th><th>Unit</th></tr><tr><td>Protein [Presence] in Urine by Test strip</td></tr></table></div>"
        },
        "status": "final",
        "subject": {
          "reference": "urn:uuid:c018ef3e-0a21-480a-91a6-549c0f3fd297",
          "display": "Hortense Gallet"
        },
        "effectiveDateTime": "2022-12-13T20:16:45Z",
        "specimen": {
          "reference": "urn:uuid:a6e740a9-e14d-4199-9576-17f928aa580a"
        }
      }
    },
    {
      "fullUrl": "urn:uuid:20db7292-38bc-4558-8c8d-dd9f257e8d53",
      "resource": {
        "resourceType": "Observation",
        "id": "20db7292-38bc-4558-8c8d-dd9f257e8d53",
        "meta": {
          "profile": [
            "http://hl7.eu/fhir/laboratory/StructureDefinition/Observation-resultslab-eu-lab"
          ]
        },
        "performer": [
          {
            "display": "The Central European Lab"
          }
        ],
        "category": [
          {
            "coding": [
              {
                "system": "http://terminology.hl7.org/CodeSystem/observation-category",
                "code": "laboratory"
              }
            ]
          }
        ],
        "code": {
          "coding": [
            {
              "code": "5802-4",
              "system": "http://loinc.org",
              "display": "Nitrite [Presence] in Urine by Test strip"
            }
          ],
          "text": "Nitrite [Presence] in Urine by Test strip"
        },
        "text": {
          "status": "generated",
          "div": "<div xmlns=\"http://www.w3.org/1999/xhtml\"><table class=\"hl7__eu__lab__report\"><tr><th>Test</th><th>13-Dec-2022</th><th>Reference&#xA0;Range</th><th>Unit</th></tr><tr><td>Nitrite [Presence] in Urine by Test strip</td></tr></table></div>"
        },
        "status": "final",
        "subject": {
          "reference": "urn:uuid:c018ef3e-0a21-480a-91a6-549c0f3fd297",
          "display": "Hortense Gallet"
        },
        "effectiveDateTime": "2022-12-13T20:16:45Z",
        "specimen": {
          "reference": "urn:uuid:a6e740a9-e14d-4199-9576-17f928aa580a"
        }
      }
    },
    {
      "fullUrl": "urn:uuid:ef3e7d53-0358-4972-8591-b445b9947427",
      "resource": {
        "resourceType": "Observation",
        "id": "ef3e7d53-0358-4972-8591-b445b9947427",
        "meta": {
          "profile": [
            "http://hl7.eu/fhir/laboratory/StructureDefinition/Observation-resultslab-eu-lab"
          ]
        },
        "performer": [
          {
            "display": "The Central European Lab"
          }
        ],
        "category": [
          {
            "coding": [
              {
                "system": "http://terminology.hl7.org/CodeSystem/observation-category",
                "code": "laboratory"
              }
            ]
          }
        ],
        "code": {
          "coding": [
            {
              "code": "5794-3",
              "system": "http://loinc.org",
              "display": "Hemoglobin [Presence] in Urine by Test strip"
            }
          ],
          "text": "Hemoglobin [Presence] in Urine by Test strip"
        },
        "text": {
          "status": "generated",
          "div": "<div xmlns=\"http://www.w3.org/1999/xhtml\"><table class=\"hl7__eu__lab__report\"><tr><th>Test</th><th>13-Dec-2022</th><th>Reference&#xA0;Range</th><th>Unit</th></tr><tr><td>Hemoglobin [Presence] in Urine by Test strip</td></tr></table></div>"
        },
        "status": "final",
        "subject": {
          "reference": "urn:uuid:c018ef3e-0a21-480a-91a6-549c0f3fd297",
          "display": "Hortense Gallet"
        },
        "effectiveDateTime": "2022-12-13T20:16:45Z",
        "specimen": {
          "reference": "urn:uuid:a6e740a9-e14d-4199-9576-17f928aa580a"
        }
      }
    },
    {
      "fullUrl": "urn:uuid:c8a9952a-093d-4025-84e9-cd06572188b8",
      "resource": {
        "resourceType": "Observation",
        "id": "c8a9952a-093d-4025-84e9-cd06572188b8",
        "meta": {
          "profile": [
            "http://hl7.eu/fhir/laboratory/StructureDefinition/Observation-resultslab-eu-lab"
          ]
        },
        "performer": [
          {
            "display": "The Central European Lab"
          }
        ],
        "category": [
          {
            "coding": [
              {
                "system": "http://terminology.hl7.org/CodeSystem/observation-category",
                "code": "laboratory"
              }
            ]
          }
        ],
        "code": {
          "coding": [
            {
              "code": "5799-2",
              "system": "http://loinc.org",
              "display": "Leukocyte esterase [Presence] in Urine by Test strip"
            }
          ],
          "text": "Leukocyte esterase [Presence] in Urine by Test strip"
        },
        "text": {
          "status": "generated",
          "div": "<div xmlns=\"http://www.w3.org/1999/xhtml\"><table class=\"hl7__eu__lab__report\"><tr><th>Test</th><th>13-Dec-2022</th><th>Reference&#xA0;Range</th><th>Unit</th></tr><tr><td>Leukocyte esterase [Presence] in Urine by Test strip</td></tr></table></div>"
        },
        "status": "final",
        "subject": {
          "reference": "urn:uuid:c018ef3e-0a21-480a-91a6-549c0f3fd297",
          "display": "Hortense Gallet"
        },
        "effectiveDateTime": "2022-12-13T20:16:45Z",
        "specimen": {
          "reference": "urn:uuid:a6e740a9-e14d-4199-9576-17f928aa580a"
        }
      }
    },
    {
      "fullUrl": "urn:uuid:12bde0ae-dc7f-4c2b-82f0-055d4816bbb8",
      "resource": {
        "resourceType": "Device",
        "id": "12bde0ae-dc7f-4c2b-82f0-055d4816bbb8",
        "deviceName": [
          {
            "name": "SYNDERAI Synthetic Generator",
            "type": "manufacturer-name"
          }
        ],
        "version": [
          {
            "value": "5.0"
          }
        ],
        "text": {
          "status": "generated",
          "div": "<div xmlns=\"http://www.w3.org/1999/xhtml\">SYNDERAI Synthetic Generator v5.0</div>"
        },
        "status": "active\"",
        "distinctIdentifier": "synderai-generator-50",
        "manufacturer": "SYNDERAI Project"
      }
    },
    {
      "fullUrl": "urn:uuid:4fd60350-7783-4e02-80b1-8976e4a1275c",
      "resource": {
        "resourceType": "Provenance",
        "id": "4fd60350-7783-4e02-80b1-8976e4a1275c",
        "target": [
          {
            "reference": "Patient/c018ef3e-0a21-480a-91a6-549c0f3fd297"
          },
          {
            "reference": "Bundle/c2495209-8c89-41e1-a715-1da2f21302f5"
          },
          {
            "reference": "Composition/55c7b976-13f5-4958-82e7-4d5acd3fc7f3"
          },
          {
            "reference": "PractitionerRole/54e84f69-9459-43ef-9763-df0b4c46531e"
          },
          {
            "reference": "Practitioner/6e9f0ea0-eadb-4472-8e1b-04d077a22d4c"
          },
          {
            "reference": "PractitionerRole/e96db0c9-903b-43a0-baac-7a841cb5a562"
          },
          {
            "reference": "Organization/72556f7d-4ba6-4884-aafd-4d1cb47318d7"
          }
        ],
        "activity": {
          "text": "Synthetic Example Data Generation"
        },
        "policy": [
          "https://synderai.net/synderai-synthetic-data-policy"
        ],
        "agent": [
          {
            "type": {
              "text": "author"
            },
            "who": {
              "reference": "Device/12bde0ae-dc7f-4c2b-82f0-055d4816bbb8"
            }
          }
        ],
        "reason": [
          {
            "text": "Interoperability Testing and Training (non-clinical use)"
          }
        ],
        "text": {
          "status": "generated",
          "div": "<div xmlns=\"http://www.w3.org/1999/xhtml\">Provenance for SYNDERAI Synthetic Example Data Resource</div>"
        },
        "recorded": "2022-12-13T21:16:45Z"
      }
    },
    {
      "fullUrl": "urn:uuid:54e84f69-9459-43ef-9763-df0b4c46531e",
      "resource": {
        "resourceType": "PractitionerRole",
        "id": "54e84f69-9459-43ef-9763-df0b4c46531e",
        "meta": {
          "profile": [
            "http://hl7.eu/fhir/base/StructureDefinition/practitionerRole-eu"
          ]
        },
        "text": {
          "status": "generated",
          "div": "<div xmlns=\"http://www.w3.org/1999/xhtml\">Laboratory Role Id: 54e84f69-9459-43ef-9763-df0b4c46531e</div>"
        },
        "practitioner": {
          "reference": "urn:uuid:6e9f0ea0-eadb-4472-8e1b-04d077a22d4c"
        }
      }
    },
    {
      "fullUrl": "urn:uuid:6e9f0ea0-eadb-4472-8e1b-04d077a22d4c",
      "resource": {
        "resourceType": "Practitioner",
        "id": "6e9f0ea0-eadb-4472-8e1b-04d077a22d4c",
        "meta": {
          "profile": [
            "http://hl7.eu/fhir/base/StructureDefinition/practitioner-eu"
          ]
        },
        "identifier": [
          {
            "assigner": {
              "display": "HL7 Europe"
            },
            "system": "urn:oid:2.16.840.1.113883.2.51.999",
            "value": "7d452496-b112-4b3a-8ca8-81cd1ec129fb"
          }
        ],
        "name": [
          {
            "prefix": [
              "dr"
            ],
            "given": [
              "Ex"
            ],
            "family": "Ample"
          }
        ],
        "address": [
          {
            "line": [
              "Laboratoire Central Européenne",
              "Boulevard du Jardin Botanique 32"
            ],
            "postalCode": "1000",
            "city": "Brussels",
            "country": "Belgium"
          }
        ],
        "text": {
          "status": "generated",
          "div": "<div xmlns=\"http://www.w3.org/1999/xhtml\">Laboratory: Laboratoire Central Européenne, 1000 Brussels, Belgium</div>"
        }
      }
    }
  ],
  "type": "document",
  "timestamp": "2022-12-13T21:16:45Z"
}
