{
  "resourceType": "Bundle",
  "id": "9bf81f0f-b8b6-4c2a-9e95-717c52ae708f",
  "meta": {
    "profile": [
      "http://hl7.eu/fhir/laboratory/StructureDefinition/Bundle-eu-lab"
    ]
  },
  "identifier": {
    "assigner": {
      "display": "HL7 Europe"
    },
    "system": "urn:oid:2.16.840.1.113883.2.51.999",
    "value": "f1d790a0-60f0-4dd5-81d5-bd9e1fa042e3"
  },
  "entry": [
    {
      "fullUrl": "urn:uuid:9b721e10-6805-4454-92b6-63a665db8501",
      "resource": {
        "resourceType": "Composition",
        "id": "9b721e10-6805-4454-92b6-63a665db8501",
        "meta": {
          "profile": [
            "http://hl7.eu/fhir/laboratory/StructureDefinition/Composition-eu-lab"
          ]
        },
        "identifier": {
          "assigner": {
            "display": "HL7 Europe"
          },
          "system": "urn:oid:2.16.840.1.113883.2.51.999",
          "value": "1eea1cf2-0771-4b41-9665-fb52151d1276"
        },
        "author": [
          {
            "reference": "urn:uuid:f8df185d-c64b-43ad-a8b9-0d74e2fc3d30"
          }
        ],
        "category": [
          {
            "coding": [
              {
                "code": "26436-6",
                "system": "http://loinc.org",
                "display": "Laboratory studies (set)"
              }
            ]
          }
        ],
        "type": {
          "coding": [
            {
              "code": "11502-2",
              "system": "http://loinc.org",
              "display": "Laboratory report"
            }
          ],
          "text": "Laboratory Report"
        },
        "section": [
          {
            "code": {
              "coding": [
                {
                  "code": "26436-6",
                  "system": "http://loinc.org",
                  "display": "Laboratory studies (set)"
                }
              ],
              "text": "Laboratory studies"
            },
            "section": [
              {
                "code": {
                  "coding": [
                    {
                      "code": "$18723-7",
                      "system": "http://loinc.org",
                      "display": "Hematology studies (set)"
                    }
                  ],
                  "text": "Hematology"
                },
                "entry": [
                  {
                    "reference": "urn:uuid:ef1e6031-194e-465a-b11e-b2131d8fa800"
                  },
                  {
                    "reference": "urn:uuid:dc827c5f-6dd5-4c36-9435-2072605e5c14"
                  },
                  {
                    "reference": "urn:uuid:79bceb3c-563d-4f78-9035-350c5b4af37d"
                  },
                  {
                    "reference": "urn:uuid:0904f7a5-e5bd-41b0-be9e-c9ce1c10057f"
                  },
                  {
                    "reference": "urn:uuid:0b05f118-9a21-4e8c-ab55-7e2e29914328"
                  },
                  {
                    "reference": "urn:uuid:55a27e03-5965-4cc5-913c-e06a2fe1729e"
                  },
                  {
                    "reference": "urn:uuid:4454c5d3-c5c3-48ca-847c-d31a829c1d90"
                  },
                  {
                    "reference": "urn:uuid:698d485a-9ae6-45be-81c0-6e86023b0ed0"
                  },
                  {
                    "reference": "urn:uuid:db99e3f0-3d28-445a-9d5e-d0913959ccf1"
                  },
                  {
                    "reference": "urn:uuid:cfec780c-d415-41cc-a20e-ae6f31479fec"
                  },
                  {
                    "reference": "urn:uuid:603aee5e-47e9-4dfa-86f0-00ab2bf4f938"
                  }
                ],
                "text": {
                  "status": "generated",
                  "div": "<div xmlns=\"http://www.w3.org/1999/xhtml\"><h3>Hematology</h3><table class=\"hl7__eu__lab__report\"><thead><tr><th>Test</th><th>07-JAN-2025</th><th>Reference&#xA0;Range</th><th>Unit</th></tr></thead><tbody><tr><td>Leukocytes [#/volume] in Blood by Automated count</td><td>5.2</td><td>3.4 - 10.6</td><td>10*3/uL</td></tr><tr><td>Erythrocytes [#/volume] in Blood by Automated count</td><td><strong>4.0 L</strong></td><td>4.2 - 5.2</td><td>10*6/uL</td></tr><tr><td>Hemoglobin [Mass/volume] in Blood</td><td>15.5</td><td>12 - 16</td><td>g/dL</td></tr><tr><td>Hematocrit [Volume Fraction] of Blood by Automated count</td><td>42.6</td><td>37 - 46</td><td>%</td></tr><tr><td>MCV [Entitic volume] by Automated count</td><td>83.4</td><td>80 - 105</td><td>fL</td></tr><tr><td>MCH [Entitic mass] by Automated count</td><td>30.9</td><td>27 - 34</td><td>pg</td></tr><tr><td>MCHC [Mass/volume] by Automated count</td><td>34.5</td><td>31 - 35</td><td>g/dL</td></tr><tr><td>Erythrocyte distribution width [Entitic volume] by Automated count</td><td>44.2</td><td>36 - 46</td><td>fL</td></tr><tr><td>Platelets [#/volume] in Blood by Automated count</td><td>343.7</td><td>150 - 415</td><td>10*3/uL</td></tr><tr><td>Platelet distribution width [Entitic volume] in Blood by Automated count</td><td><strong>451.4 H</strong></td><td>11.6 - 17.4</td><td>fL</td></tr><tr><td>Platelet mean volume [Entitic volume] in Blood by Automated count</td><td>10.8</td><td>7.2 - 13.8</td><td>fL</td></tr></tbody></table></div>"
                },
                "title": "Hematology"
              },
              {
                "code": {
                  "coding": [
                    {
                      "code": "$18719-5",
                      "system": "http://loinc.org",
                      "display": "Chemistry studies (set)"
                    }
                  ],
                  "text": "Chemistry"
                },
                "entry": [
                  {
                    "reference": "urn:uuid:ac270ad1-d55a-4465-8dc4-4cf10f396f3e"
                  },
                  {
                    "reference": "urn:uuid:f564a730-3b92-4483-b400-433041f33279"
                  },
                  {
                    "reference": "urn:uuid:50affdbb-8301-4457-8a1c-047182abd008"
                  },
                  {
                    "reference": "urn:uuid:841551d5-2f92-4842-a30b-6d1c1d605f45"
                  },
                  {
                    "reference": "urn:uuid:9791a6bb-8218-4e2d-a364-aff08258d61a"
                  },
                  {
                    "reference": "urn:uuid:69cfba82-9774-4299-81f9-a586829b75b4"
                  },
                  {
                    "reference": "urn:uuid:66b6a9d5-da8c-412c-a734-87023d3ba9ea"
                  },
                  {
                    "reference": "urn:uuid:8c306645-76f5-4aea-af99-11c8bee67b80"
                  },
                  {
                    "reference": "urn:uuid:6ab38a88-2d7b-4b48-aba2-6290f4763e4c"
                  }
                ],
                "text": {
                  "status": "generated",
                  "div": "<div xmlns=\"http://www.w3.org/1999/xhtml\"><h3>Chemistry</h3><table class=\"hl7__eu__lab__report\"><thead><tr><th>Test</th><th>07-JAN-2025</th><th>Reference&#xA0;Range</th><th>Unit</th></tr></thead><tbody><tr><td>Hemoglobin A1c/Hemoglobin.total in Blood</td><td><strong>6.2 H</strong></td><td>4.8 - 5.7</td><td>%</td></tr><tr><td>Glucose [Mass/volume] in Blood</td><td>76.8</td><td>70 - 99</td><td>mg/dL</td></tr><tr><td>Urea nitrogen [Mass/volume] in Blood</td><td>10.1</td><td>7 - 20</td><td>mg/dL</td></tr><tr><td>Creatinine [Mass/volume] in Blood</td><td>0.7</td><td>0.6 - 1.1</td><td>mg/dL</td></tr><tr><td>Calcium [Mass/volume] in Blood</td><td>9.8</td><td>8.5 - 10.5</td><td>mg/dL</td></tr><tr><td>Sodium [Moles/volume] in Blood</td><td>142.9</td><td>135 - 145</td><td>mmol/L</td></tr><tr><td>Potassium [Moles/volume] in Blood</td><td>4.1</td><td>3.5 - 5.3</td><td>mmol/L</td></tr><tr><td>Chloride [Moles/volume] in Blood</td><td>109.6</td><td>98 - 114</td><td>mmol/L</td></tr><tr><td>Carbon dioxide, total [Moles/volume] in Blood</td><td>23.5</td><td>22 - 29</td><td>mmol/L</td></tr></tbody></table></div>"
                },
                "title": "Chemistry"
              }
            ],
            "title": "Laboratory Report"
          },
          {
            "text": {
              "status": "generated",
              "div": "<div xmlns=\"http://www.w3.org/1999/xhtml\"><h3>Annotation</h3><table class=\"hl7__eu__lab__report\"><tr><th>Conclusion and Recommendations based on this report and previous findings known to us</th></tr><tr><td>The patient shows elevated HbA1c (6.2%), indicating impaired glucose metabolism or possible diabetes, despite normal fasting glucose. Erythrocyte count is slightly low, but other red cell indices and hemoglobin are normal, suggesting no significant anemia. Platelet distribution width is elevated, which may reflect increased platelet size variability but with normal platelet count. Renal and electrolyte parameters are within normal limits. Recommend clinical correlation for glycemic control and monitoring of hematological parameters.</td></tr></table></div>"
            },
            "code": {
              "coding": [
                {
                  "system": "http://loinc.org",
                  "code": "48767-8",
                  "display": "Annotation comment"
                }
              ]
            },
            "title": "Annotation comment"
          }
        ],
        "status": "final",
        "subject": {
          "reference": "urn:uuid:66394877-5b69-4ac8-b6ce-1a28270015dc",
          "display": "Aniela Sacharczuk"
        },
        "date": "2025-01-07T06:26:59Z",
        "title": "Laboratory Report",
        "confidentiality": "N"
      }
    },
    {
      "fullUrl": "urn:uuid:730e2173-6b49-4dba-b41a-73fdef5871ab",
      "resource": {
        "resourceType": "DiagnosticReport",
        "id": "730e2173-6b49-4dba-b41a-73fdef5871ab",
        "meta": {
          "profile": [
            "http://hl7.eu/fhir/laboratory/StructureDefinition/DiagnosticReport-eu-lab"
          ]
        },
        "identifier": [
          {
            "assigner": {
              "display": "HL7 Europe"
            },
            "system": "urn:oid:2.16.840.1.113883.2.51.999",
            "value": "fb22143d-7a61-4457-8d2a-451105626503"
          }
        ],
        "extension": [
          {
            "url": "http://hl7.org/fhir/5.0/StructureDefinition/extension-DiagnosticReport.composition",
            "valueReference": {
              "reference": "urn:uuid:1eea1cf2-0771-4b41-9665-fb52151d1276"
            }
          }
        ],
        "category": [
          {
            "coding": [
              {
                "code": "26436-6",
                "system": "http://loinc.org",
                "display": "Laboratory studies (set)"
              }
            ]
          }
        ],
        "specimen": [
          {
            "reference": "urn:uuid:f70be677-88b7-4ef0-af5a-8e652f0d5000"
          },
          {
            "reference": "urn:uuid:f70be677-88b7-4ef0-af5a-8e652f0d5000"
          }
        ],
        "result": [
          {
            "reference": "urn:uuid:ac270ad1-d55a-4465-8dc4-4cf10f396f3e"
          },
          {
            "reference": "urn:uuid:f564a730-3b92-4483-b400-433041f33279"
          },
          {
            "reference": "urn:uuid:50affdbb-8301-4457-8a1c-047182abd008"
          },
          {
            "reference": "urn:uuid:841551d5-2f92-4842-a30b-6d1c1d605f45"
          },
          {
            "reference": "urn:uuid:9791a6bb-8218-4e2d-a364-aff08258d61a"
          },
          {
            "reference": "urn:uuid:69cfba82-9774-4299-81f9-a586829b75b4"
          },
          {
            "reference": "urn:uuid:66b6a9d5-da8c-412c-a734-87023d3ba9ea"
          },
          {
            "reference": "urn:uuid:8c306645-76f5-4aea-af99-11c8bee67b80"
          },
          {
            "reference": "urn:uuid:6ab38a88-2d7b-4b48-aba2-6290f4763e4c"
          },
          {
            "reference": "urn:uuid:ef1e6031-194e-465a-b11e-b2131d8fa800"
          },
          {
            "reference": "urn:uuid:dc827c5f-6dd5-4c36-9435-2072605e5c14"
          },
          {
            "reference": "urn:uuid:79bceb3c-563d-4f78-9035-350c5b4af37d"
          },
          {
            "reference": "urn:uuid:0904f7a5-e5bd-41b0-be9e-c9ce1c10057f"
          },
          {
            "reference": "urn:uuid:0b05f118-9a21-4e8c-ab55-7e2e29914328"
          },
          {
            "reference": "urn:uuid:55a27e03-5965-4cc5-913c-e06a2fe1729e"
          },
          {
            "reference": "urn:uuid:4454c5d3-c5c3-48ca-847c-d31a829c1d90"
          },
          {
            "reference": "urn:uuid:698d485a-9ae6-45be-81c0-6e86023b0ed0"
          },
          {
            "reference": "urn:uuid:db99e3f0-3d28-445a-9d5e-d0913959ccf1"
          },
          {
            "reference": "urn:uuid:cfec780c-d415-41cc-a20e-ae6f31479fec"
          },
          {
            "reference": "urn:uuid:603aee5e-47e9-4dfa-86f0-00ab2bf4f938"
          }
        ],
        "status": "registered",
        "code": {
          "coding": [
            {
              "code": "11502-2",
              "system": "http://loinc.org",
              "display": "Laboratory report"
            }
          ]
        },
        "subject": {
          "reference": "urn:uuid:66394877-5b69-4ac8-b6ce-1a28270015dc",
          "display": "Aniela Sacharczuk"
        }
      }
    },
    {
      "fullUrl": "urn:uuid:66394877-5b69-4ac8-b6ce-1a28270015dc",
      "resource": {
        "resourceType": "Patient",
        "id": "66394877-5b69-4ac8-b6ce-1a28270015dc",
        "meta": {
          "security": [
            {
              "system": "http://terminology.hl7.org/CodeSystem/v3-ActReason",
              "code": "HTEST"
            },
            {
              "system": "http://terminology.hl7.org/CodeSystem/v3-ActReason",
              "code": "TRAIN"
            }
          ],
          "tag": [
            {
              "system": "https://synderai.net/fhir/CodeSystem/tags",
              "code": "synthetic",
              "display": "SYNDERAI Synthetic data"
            }
          ],
          "profile": [
            "http://hl7.eu/fhir/base/StructureDefinition/patient-eu-core"
          ]
        },
        "identifier": [
          {
            "type": {
              "coding": [
                {
                  "code": "PT",
                  "system": "http://terminology.hl7.org/CodeSystem/v2-0203"
                }
              ]
            },
            "system": "http://ec.europa.eu/identifier/eci",
            "value": "3843-787162-7"
          },
          {
            "type": {
              "coding": [
                {
                  "code": "MR",
                  "system": "http://terminology.hl7.org/CodeSystem/v2-0203"
                }
              ]
            },
            "system": "http://local.setting.eu/identifier",
            "value": "cd2e7aac-e2c0-8306-b862-9ed4c443c8b5"
          }
        ],
        "name": [
          {
            "family": "Sacharczuk"
          },
          {
            "given": [
              "Aniela"
            ]
          },
          {
            "text": "Aniela Sacharczuk"
          }
        ],
        "address": [
          {
            "line": [
              "plac Szpitalna 13"
            ],
            "use": "home",
            "type": "physical",
            "postalCode": "27-600",
            "city": "Sandomierz",
            "country": "Poland"
          }
        ],
        "telecom": [
          {
            "system": "phone",
            "value": "+48 536 227 035"
          }
        ],
        "extension": [
          {
            "url": "http://hl7.org/fhir/StructureDefinition/patient-nationality",
            "valueCodeableConcept": {
              "coding": [
                {
                  "code": "PL",
                  "system": "http://hl7.org/fhir/ValueSet/country"
                }
              ]
            }
          }
        ],
        "text": {
          "status": "generated",
          "div": "<div xmlns=\"http://www.w3.org/1999/xhtml\"><table class=\"hl7__ips\"><tr><td>Aniela Sacharczuk</td><td>female</td><td>02-Nov-1970</td></tr></table></div>"
        },
        "gender": "female",
        "birthDate": "1970-11-02"
      }
    },
    {
      "fullUrl": "urn:uuid:876ad399-0cb5-4e30-ac2b-f962f53e7f70",
      "resource": {
        "resourceType": "ServiceRequest",
        "id": "876ad399-0cb5-4e30-ac2b-f962f53e7f70",
        "meta": {
          "profile": [
            "http://hl7.eu/fhir/laboratory/StructureDefinition/ServiceRequest-eu-lab"
          ]
        },
        "identifier": [
          {
            "system": "http://example.org",
            "value": "e366ff43-ed0b-4f0a-9876-bee9b7f66cfe"
          }
        ],
        "specimen": [
          {
            "reference": "urn:uuid:f70be677-88b7-4ef0-af5a-8e652f0d5000"
          }
        ],
        "reasonCode": [
          {
            "coding": [
              {
                "code": "237602007",
                "system": "http://snomed.info/sct",
                "display": "Metabolic syndrome X"
              }
            ]
          },
          {
            "coding": [
              {
                "code": "15777000",
                "system": "http://snomed.info/sct",
                "display": "Prediabetes"
              }
            ]
          },
          {
            "coding": [
              {
                "code": "59621000",
                "system": "http://snomed.info/sct",
                "display": "Essential hypertension"
              }
            ]
          }
        ],
        "status": "active",
        "intent": "order",
        "code": {
          "coding": [
            {
              "code": "108252007",
              "system": "http://snomed.info/sct",
              "display": "Laboratory procedure"
            }
          ]
        },
        "subject": {
          "reference": "urn:uuid:66394877-5b69-4ac8-b6ce-1a28270015dc",
          "display": "Aniela Sacharczuk"
        },
        "requester": {
          "reference": "urn:uuid:0d8c72fe-22af-4ff6-bbf3-8ed51c30a71b"
        }
      }
    },
    {
      "fullUrl": "urn:uuid:0d8c72fe-22af-4ff6-bbf3-8ed51c30a71b",
      "resource": {
        "resourceType": "PractitionerRole",
        "id": "0d8c72fe-22af-4ff6-bbf3-8ed51c30a71b",
        "meta": {
          "profile": [
            "http://hl7.eu/fhir/base/StructureDefinition/practitionerRole-eu"
          ]
        },
        "text": {
          "status": "generated",
          "div": "<div xmlns=\"http://www.w3.org/1999/xhtml\">Provider Role Id: 0d8c72fe-22af-4ff6-bbf3-8ed51c30a71b</div>"
        },
        "organization": {
          "reference": "urn:uuid:3a6ee1b5-7cdc-48e3-bf3d-0020b67c5b74"
        }
      }
    },
    {
      "fullUrl": "urn:uuid:3a6ee1b5-7cdc-48e3-bf3d-0020b67c5b74",
      "resource": {
        "resourceType": "Organization",
        "id": "3a6ee1b5-7cdc-48e3-bf3d-0020b67c5b74",
        "meta": {
          "profile": [
            "http://hl7.eu/fhir/base/StructureDefinition/organization-eu"
          ]
        },
        "identifier": [
          {
            "assigner": {
              "display": "HL7 Europe"
            },
            "system": "urn:oid:2.16.840.1.113883.2.51.999",
            "value": "e16e85a2-7019-4b97-8180-bb0b44cf8d78"
          }
        ],
        "address": [
          {
            "line": [
              "Józefa Piłsudskiego 17"
            ],
            "city": "Gorzyce",
            "postalCode": "39-432",
            "country": "Poland"
          }
        ],
        "text": {
          "status": "generated",
          "div": "<div xmlns=\"http://www.w3.org/1999/xhtml\">Provider Organization: Ośrodek Zdrowia</div>"
        },
        "name": "Ośrodek Zdrowia"
      }
    },
    {
      "fullUrl": "urn:uuid:f70be677-88b7-4ef0-af5a-8e652f0d5000",
      "resource": {
        "resourceType": "Specimen",
        "id": "f70be677-88b7-4ef0-af5a-8e652f0d5000",
        "meta": {
          "profile": [
            "http://hl7.eu/fhir/laboratory/StructureDefinition/Specimen-eu-lab"
          ]
        },
        "collection": {
          "collectedDateTime": "2025-01-07"
        },
        "text": {
          "status": "generated",
          "div": "<div xmlns=\"http://www.w3.org/1999/xhtml\"><table class=\"hl7__eu__lab__report\"><tr><th>Specimen</th><th>Collection Date</th></tr><tr><td>Whole blood specimen (specimen)</td><td><span class=\"nb\">07-Jan-2025</span></td></tr></table></div>"
        },
        "type": {
          "coding": [
            {
              "code": "258580003",
              "system": "http://snomed.info/sct",
              "display": "Whole blood specimen (specimen)"
            }
          ]
        }
      }
    },
    {
      "fullUrl": "urn:uuid:f70be677-88b7-4ef0-af5a-8e652f0d5000",
      "resource": {
        "resourceType": "Specimen",
        "id": "f70be677-88b7-4ef0-af5a-8e652f0d5000",
        "meta": {
          "profile": [
            "http://hl7.eu/fhir/laboratory/StructureDefinition/Specimen-eu-lab"
          ]
        },
        "collection": {
          "collectedDateTime": "2025-01-07"
        },
        "text": {
          "status": "generated",
          "div": "<div xmlns=\"http://www.w3.org/1999/xhtml\"><table class=\"hl7__eu__lab__report\"><tr><th>Specimen</th><th>Collection Date</th></tr><tr><td>Whole blood specimen (specimen)</td><td><span class=\"nb\">07-Jan-2025</span></td></tr></table></div>"
        },
        "type": {
          "coding": [
            {
              "code": "258580003",
              "system": "http://snomed.info/sct",
              "display": "Whole blood specimen (specimen)"
            }
          ]
        }
      }
    },
    {
      "fullUrl": "urn:uuid:ac270ad1-d55a-4465-8dc4-4cf10f396f3e",
      "resource": {
        "resourceType": "Observation",
        "id": "ac270ad1-d55a-4465-8dc4-4cf10f396f3e",
        "meta": {
          "profile": [
            "http://hl7.eu/fhir/laboratory/StructureDefinition/Observation-resultslab-eu-lab"
          ]
        },
        "performer": [
          {
            "display": "The Central European Lab"
          }
        ],
        "category": [
          {
            "coding": [
              {
                "system": "http://terminology.hl7.org/CodeSystem/observation-category",
                "code": "laboratory"
              }
            ]
          }
        ],
        "code": {
          "coding": [
            {
              "code": "4548-4",
              "system": "http://loinc.org",
              "display": "Hemoglobin A1c/Hemoglobin.total in Blood"
            }
          ],
          "text": "Hemoglobin A1c/Hemoglobin.total in Blood"
        },
        "valueQuantity": {
          "system": "http://unitsofmeasure.org",
          "value": 6.2,
          "unit": "%",
          "code": "%"
        },
        "referenceRange": [
          {
            "low": {
              "value": 4.8,
              "code": "%",
              "system": "http://unitsofmeasure.org"
            }
          },
          {
            "high": {
              "value": 5.7,
              "code": "%",
              "system": "http://unitsofmeasure.org"
            }
          }
        ],
        "interpretation": [
          {
            "coding": [
              {
                "code": "H",
                "system": "http://terminology.hl7.org/CodeSystem/v3-ObservationInterpretation",
                "display": "High"
              }
            ]
          }
        ],
        "text": {
          "status": "generated",
          "div": "<div xmlns=\"http://www.w3.org/1999/xhtml\"><table class=\"hl7__eu__lab__report\"><tr><th>Test</th><th>07-Jan-2025</th><th>Reference&#xA0;Range</th><th>Unit</th></tr><tr><td>Hemoglobin A1c/Hemoglobin.total in Blood</td><td>6.2</td><td>4.8 - 5.7</td><td>H</td><td>%</td></tr></table></div>"
        },
        "status": "final",
        "subject": {
          "reference": "urn:uuid:66394877-5b69-4ac8-b6ce-1a28270015dc",
          "display": "Aniela Sacharczuk"
        },
        "effectiveDateTime": "2025-01-07T05:26:59Z",
        "specimen": {
          "reference": "urn:uuid:f70be677-88b7-4ef0-af5a-8e652f0d5000"
        }
      }
    },
    {
      "fullUrl": "urn:uuid:f564a730-3b92-4483-b400-433041f33279",
      "resource": {
        "resourceType": "Observation",
        "id": "f564a730-3b92-4483-b400-433041f33279",
        "meta": {
          "profile": [
            "http://hl7.eu/fhir/laboratory/StructureDefinition/Observation-resultslab-eu-lab"
          ]
        },
        "performer": [
          {
            "display": "The Central European Lab"
          }
        ],
        "category": [
          {
            "coding": [
              {
                "system": "http://terminology.hl7.org/CodeSystem/observation-category",
                "code": "laboratory"
              }
            ]
          }
        ],
        "code": {
          "coding": [
            {
              "code": "2339-0",
              "system": "http://loinc.org",
              "display": "Glucose [Mass/volume] in Blood"
            }
          ],
          "text": "Glucose [Mass/volume] in Blood"
        },
        "valueQuantity": {
          "system": "http://unitsofmeasure.org",
          "value": 76.8,
          "unit": "mg/dL",
          "code": "mg/dL"
        },
        "referenceRange": [
          {
            "low": {
              "value": 70,
              "code": "mg/dL",
              "system": "http://unitsofmeasure.org"
            }
          },
          {
            "high": {
              "value": 99,
              "code": "mg/dL",
              "system": "http://unitsofmeasure.org"
            }
          }
        ],
        "text": {
          "status": "generated",
          "div": "<div xmlns=\"http://www.w3.org/1999/xhtml\"><table class=\"hl7__eu__lab__report\"><tr><th>Test</th><th>07-Jan-2025</th><th>Reference&#xA0;Range</th><th>Unit</th></tr><tr><td>Glucose [Mass/volume] in Blood</td><td>76.8</td><td>70 - 99</td><td></td><td>mg/dL</td></tr></table></div>"
        },
        "status": "final",
        "subject": {
          "reference": "urn:uuid:66394877-5b69-4ac8-b6ce-1a28270015dc",
          "display": "Aniela Sacharczuk"
        },
        "effectiveDateTime": "2025-01-07T05:26:59Z",
        "specimen": {
          "reference": "urn:uuid:f70be677-88b7-4ef0-af5a-8e652f0d5000"
        }
      }
    },
    {
      "fullUrl": "urn:uuid:50affdbb-8301-4457-8a1c-047182abd008",
      "resource": {
        "resourceType": "Observation",
        "id": "50affdbb-8301-4457-8a1c-047182abd008",
        "meta": {
          "profile": [
            "http://hl7.eu/fhir/laboratory/StructureDefinition/Observation-resultslab-eu-lab"
          ]
        },
        "performer": [
          {
            "display": "The Central European Lab"
          }
        ],
        "category": [
          {
            "coding": [
              {
                "system": "http://terminology.hl7.org/CodeSystem/observation-category",
                "code": "laboratory"
              }
            ]
          }
        ],
        "code": {
          "coding": [
            {
              "code": "6299-2",
              "system": "http://loinc.org",
              "display": "Urea nitrogen [Mass/volume] in Blood"
            }
          ],
          "text": "Urea nitrogen [Mass/volume] in Blood"
        },
        "valueQuantity": {
          "system": "http://unitsofmeasure.org",
          "value": 10.1,
          "unit": "mg/dL",
          "code": "mg/dL"
        },
        "referenceRange": [
          {
            "low": {
              "value": 7,
              "code": "mg/dL",
              "system": "http://unitsofmeasure.org"
            }
          },
          {
            "high": {
              "value": 20,
              "code": "mg/dL",
              "system": "http://unitsofmeasure.org"
            }
          }
        ],
        "text": {
          "status": "generated",
          "div": "<div xmlns=\"http://www.w3.org/1999/xhtml\"><table class=\"hl7__eu__lab__report\"><tr><th>Test</th><th>07-Jan-2025</th><th>Reference&#xA0;Range</th><th>Unit</th></tr><tr><td>Urea nitrogen [Mass/volume] in Blood</td><td>10.1</td><td>7 - 20</td><td></td><td>mg/dL</td></tr></table></div>"
        },
        "status": "final",
        "subject": {
          "reference": "urn:uuid:66394877-5b69-4ac8-b6ce-1a28270015dc",
          "display": "Aniela Sacharczuk"
        },
        "effectiveDateTime": "2025-01-07T05:26:59Z",
        "specimen": {
          "reference": "urn:uuid:f70be677-88b7-4ef0-af5a-8e652f0d5000"
        }
      }
    },
    {
      "fullUrl": "urn:uuid:841551d5-2f92-4842-a30b-6d1c1d605f45",
      "resource": {
        "resourceType": "Observation",
        "id": "841551d5-2f92-4842-a30b-6d1c1d605f45",
        "meta": {
          "profile": [
            "http://hl7.eu/fhir/laboratory/StructureDefinition/Observation-resultslab-eu-lab"
          ]
        },
        "performer": [
          {
            "display": "The Central European Lab"
          }
        ],
        "category": [
          {
            "coding": [
              {
                "system": "http://terminology.hl7.org/CodeSystem/observation-category",
                "code": "laboratory"
              }
            ]
          }
        ],
        "code": {
          "coding": [
            {
              "code": "38483-4",
              "system": "http://loinc.org",
              "display": "Creatinine [Mass/volume] in Blood"
            }
          ],
          "text": "Creatinine [Mass/volume] in Blood"
        },
        "valueQuantity": {
          "system": "http://unitsofmeasure.org",
          "value": 0.7,
          "unit": "mg/dL",
          "code": "mg/dL"
        },
        "referenceRange": [
          {
            "low": {
              "value": 0.6,
              "code": "mg/dL",
              "system": "http://unitsofmeasure.org"
            }
          },
          {
            "high": {
              "value": 1.1,
              "code": "mg/dL",
              "system": "http://unitsofmeasure.org"
            }
          }
        ],
        "text": {
          "status": "generated",
          "div": "<div xmlns=\"http://www.w3.org/1999/xhtml\"><table class=\"hl7__eu__lab__report\"><tr><th>Test</th><th>07-Jan-2025</th><th>Reference&#xA0;Range</th><th>Unit</th></tr><tr><td>Creatinine [Mass/volume] in Blood</td><td>0.7</td><td>0.6 - 1.1</td><td></td><td>mg/dL</td></tr></table></div>"
        },
        "status": "final",
        "subject": {
          "reference": "urn:uuid:66394877-5b69-4ac8-b6ce-1a28270015dc",
          "display": "Aniela Sacharczuk"
        },
        "effectiveDateTime": "2025-01-07T05:26:59Z",
        "specimen": {
          "reference": "urn:uuid:f70be677-88b7-4ef0-af5a-8e652f0d5000"
        }
      }
    },
    {
      "fullUrl": "urn:uuid:9791a6bb-8218-4e2d-a364-aff08258d61a",
      "resource": {
        "resourceType": "Observation",
        "id": "9791a6bb-8218-4e2d-a364-aff08258d61a",
        "meta": {
          "profile": [
            "http://hl7.eu/fhir/laboratory/StructureDefinition/Observation-resultslab-eu-lab"
          ]
        },
        "performer": [
          {
            "display": "The Central European Lab"
          }
        ],
        "category": [
          {
            "coding": [
              {
                "system": "http://terminology.hl7.org/CodeSystem/observation-category",
                "code": "laboratory"
              }
            ]
          }
        ],
        "code": {
          "coding": [
            {
              "code": "49765-1",
              "system": "http://loinc.org",
              "display": "Calcium [Mass/volume] in Blood"
            }
          ],
          "text": "Calcium [Mass/volume] in Blood"
        },
        "valueQuantity": {
          "system": "http://unitsofmeasure.org",
          "value": 9.8,
          "unit": "mg/dL",
          "code": "mg/dL"
        },
        "referenceRange": [
          {
            "low": {
              "value": 8.5,
              "code": "mg/dL",
              "system": "http://unitsofmeasure.org"
            }
          },
          {
            "high": {
              "value": 10.5,
              "code": "mg/dL",
              "system": "http://unitsofmeasure.org"
            }
          }
        ],
        "text": {
          "status": "generated",
          "div": "<div xmlns=\"http://www.w3.org/1999/xhtml\"><table class=\"hl7__eu__lab__report\"><tr><th>Test</th><th>07-Jan-2025</th><th>Reference&#xA0;Range</th><th>Unit</th></tr><tr><td>Calcium [Mass/volume] in Blood</td><td>9.8</td><td>8.5 - 10.5</td><td></td><td>mg/dL</td></tr></table></div>"
        },
        "status": "final",
        "subject": {
          "reference": "urn:uuid:66394877-5b69-4ac8-b6ce-1a28270015dc",
          "display": "Aniela Sacharczuk"
        },
        "effectiveDateTime": "2025-01-07T05:26:59Z",
        "specimen": {
          "reference": "urn:uuid:f70be677-88b7-4ef0-af5a-8e652f0d5000"
        }
      }
    },
    {
      "fullUrl": "urn:uuid:69cfba82-9774-4299-81f9-a586829b75b4",
      "resource": {
        "resourceType": "Observation",
        "id": "69cfba82-9774-4299-81f9-a586829b75b4",
        "meta": {
          "profile": [
            "http://hl7.eu/fhir/laboratory/StructureDefinition/Observation-resultslab-eu-lab"
          ]
        },
        "performer": [
          {
            "display": "The Central European Lab"
          }
        ],
        "category": [
          {
            "coding": [
              {
                "system": "http://terminology.hl7.org/CodeSystem/observation-category",
                "code": "laboratory"
              }
            ]
          }
        ],
        "code": {
          "coding": [
            {
              "code": "2947-0",
              "system": "http://loinc.org",
              "display": "Sodium [Moles/volume] in Blood"
            }
          ],
          "text": "Sodium [Moles/volume] in Blood"
        },
        "valueQuantity": {
          "system": "http://unitsofmeasure.org",
          "value": 142.9,
          "unit": "mmol/L",
          "code": "mmol/L"
        },
        "referenceRange": [
          {
            "low": {
              "value": 135,
              "code": "mmol/L",
              "system": "http://unitsofmeasure.org"
            }
          },
          {
            "high": {
              "value": 145,
              "code": "mmol/L",
              "system": "http://unitsofmeasure.org"
            }
          }
        ],
        "text": {
          "status": "generated",
          "div": "<div xmlns=\"http://www.w3.org/1999/xhtml\"><table class=\"hl7__eu__lab__report\"><tr><th>Test</th><th>07-Jan-2025</th><th>Reference&#xA0;Range</th><th>Unit</th></tr><tr><td>Sodium [Moles/volume] in Blood</td><td>142.9</td><td>135 - 145</td><td></td><td>mmol/L</td></tr></table></div>"
        },
        "status": "final",
        "subject": {
          "reference": "urn:uuid:66394877-5b69-4ac8-b6ce-1a28270015dc",
          "display": "Aniela Sacharczuk"
        },
        "effectiveDateTime": "2025-01-07T05:26:59Z",
        "specimen": {
          "reference": "urn:uuid:f70be677-88b7-4ef0-af5a-8e652f0d5000"
        }
      }
    },
    {
      "fullUrl": "urn:uuid:66b6a9d5-da8c-412c-a734-87023d3ba9ea",
      "resource": {
        "resourceType": "Observation",
        "id": "66b6a9d5-da8c-412c-a734-87023d3ba9ea",
        "meta": {
          "profile": [
            "http://hl7.eu/fhir/laboratory/StructureDefinition/Observation-resultslab-eu-lab"
          ]
        },
        "performer": [
          {
            "display": "The Central European Lab"
          }
        ],
        "category": [
          {
            "coding": [
              {
                "system": "http://terminology.hl7.org/CodeSystem/observation-category",
                "code": "laboratory"
              }
            ]
          }
        ],
        "code": {
          "coding": [
            {
              "code": "6298-4",
              "system": "http://loinc.org",
              "display": "Potassium [Moles/volume] in Blood"
            }
          ],
          "text": "Potassium [Moles/volume] in Blood"
        },
        "valueQuantity": {
          "system": "http://unitsofmeasure.org",
          "value": 4.1,
          "unit": "mmol/L",
          "code": "mmol/L"
        },
        "referenceRange": [
          {
            "low": {
              "value": 3.5,
              "code": "mmol/L",
              "system": "http://unitsofmeasure.org"
            }
          },
          {
            "high": {
              "value": 5.3,
              "code": "mmol/L",
              "system": "http://unitsofmeasure.org"
            }
          }
        ],
        "text": {
          "status": "generated",
          "div": "<div xmlns=\"http://www.w3.org/1999/xhtml\"><table class=\"hl7__eu__lab__report\"><tr><th>Test</th><th>07-Jan-2025</th><th>Reference&#xA0;Range</th><th>Unit</th></tr><tr><td>Potassium [Moles/volume] in Blood</td><td>4.1</td><td>3.5 - 5.3</td><td></td><td>mmol/L</td></tr></table></div>"
        },
        "status": "final",
        "subject": {
          "reference": "urn:uuid:66394877-5b69-4ac8-b6ce-1a28270015dc",
          "display": "Aniela Sacharczuk"
        },
        "effectiveDateTime": "2025-01-07T05:26:59Z",
        "specimen": {
          "reference": "urn:uuid:f70be677-88b7-4ef0-af5a-8e652f0d5000"
        }
      }
    },
    {
      "fullUrl": "urn:uuid:8c306645-76f5-4aea-af99-11c8bee67b80",
      "resource": {
        "resourceType": "Observation",
        "id": "8c306645-76f5-4aea-af99-11c8bee67b80",
        "meta": {
          "profile": [
            "http://hl7.eu/fhir/laboratory/StructureDefinition/Observation-resultslab-eu-lab"
          ]
        },
        "performer": [
          {
            "display": "The Central European Lab"
          }
        ],
        "category": [
          {
            "coding": [
              {
                "system": "http://terminology.hl7.org/CodeSystem/observation-category",
                "code": "laboratory"
              }
            ]
          }
        ],
        "code": {
          "coding": [
            {
              "code": "2069-3",
              "system": "http://loinc.org",
              "display": "Chloride [Moles/volume] in Blood"
            }
          ],
          "text": "Chloride [Moles/volume] in Blood"
        },
        "valueQuantity": {
          "system": "http://unitsofmeasure.org",
          "value": 109.6,
          "unit": "mmol/L",
          "code": "mmol/L"
        },
        "referenceRange": [
          {
            "low": {
              "value": 98,
              "code": "mmol/L",
              "system": "http://unitsofmeasure.org"
            }
          },
          {
            "high": {
              "value": 114,
              "code": "mmol/L",
              "system": "http://unitsofmeasure.org"
            }
          }
        ],
        "text": {
          "status": "generated",
          "div": "<div xmlns=\"http://www.w3.org/1999/xhtml\"><table class=\"hl7__eu__lab__report\"><tr><th>Test</th><th>07-Jan-2025</th><th>Reference&#xA0;Range</th><th>Unit</th></tr><tr><td>Chloride [Moles/volume] in Blood</td><td>109.6</td><td>98 - 114</td><td></td><td>mmol/L</td></tr></table></div>"
        },
        "status": "final",
        "subject": {
          "reference": "urn:uuid:66394877-5b69-4ac8-b6ce-1a28270015dc",
          "display": "Aniela Sacharczuk"
        },
        "effectiveDateTime": "2025-01-07T05:26:59Z",
        "specimen": {
          "reference": "urn:uuid:f70be677-88b7-4ef0-af5a-8e652f0d5000"
        }
      }
    },
    {
      "fullUrl": "urn:uuid:6ab38a88-2d7b-4b48-aba2-6290f4763e4c",
      "resource": {
        "resourceType": "Observation",
        "id": "6ab38a88-2d7b-4b48-aba2-6290f4763e4c",
        "meta": {
          "profile": [
            "http://hl7.eu/fhir/laboratory/StructureDefinition/Observation-resultslab-eu-lab"
          ]
        },
        "performer": [
          {
            "display": "The Central European Lab"
          }
        ],
        "category": [
          {
            "coding": [
              {
                "system": "http://terminology.hl7.org/CodeSystem/observation-category",
                "code": "laboratory"
              }
            ]
          }
        ],
        "code": {
          "coding": [
            {
              "code": "20565-8",
              "system": "http://loinc.org",
              "display": "Carbon dioxide, total [Moles/volume] in Blood"
            }
          ],
          "text": "Carbon dioxide, total [Moles/volume] in Blood"
        },
        "valueQuantity": {
          "system": "http://unitsofmeasure.org",
          "value": 23.5,
          "unit": "mmol/L",
          "code": "mmol/L"
        },
        "referenceRange": [
          {
            "low": {
              "value": 22,
              "code": "mmol/L",
              "system": "http://unitsofmeasure.org"
            }
          },
          {
            "high": {
              "value": 29,
              "code": "mmol/L",
              "system": "http://unitsofmeasure.org"
            }
          }
        ],
        "text": {
          "status": "generated",
          "div": "<div xmlns=\"http://www.w3.org/1999/xhtml\"><table class=\"hl7__eu__lab__report\"><tr><th>Test</th><th>07-Jan-2025</th><th>Reference&#xA0;Range</th><th>Unit</th></tr><tr><td>Carbon dioxide, total [Moles/volume] in Blood</td><td>23.5</td><td>22 - 29</td><td></td><td>mmol/L</td></tr></table></div>"
        },
        "status": "final",
        "subject": {
          "reference": "urn:uuid:66394877-5b69-4ac8-b6ce-1a28270015dc",
          "display": "Aniela Sacharczuk"
        },
        "effectiveDateTime": "2025-01-07T05:26:59Z",
        "specimen": {
          "reference": "urn:uuid:f70be677-88b7-4ef0-af5a-8e652f0d5000"
        }
      }
    },
    {
      "fullUrl": "urn:uuid:ef1e6031-194e-465a-b11e-b2131d8fa800",
      "resource": {
        "resourceType": "Observation",
        "id": "ef1e6031-194e-465a-b11e-b2131d8fa800",
        "meta": {
          "profile": [
            "http://hl7.eu/fhir/laboratory/StructureDefinition/Observation-resultslab-eu-lab"
          ]
        },
        "performer": [
          {
            "display": "The Central European Lab"
          }
        ],
        "category": [
          {
            "coding": [
              {
                "system": "http://terminology.hl7.org/CodeSystem/observation-category",
                "code": "laboratory"
              }
            ]
          }
        ],
        "code": {
          "coding": [
            {
              "code": "6690-2",
              "system": "http://loinc.org",
              "display": "Leukocytes [#/volume] in Blood by Automated count"
            }
          ],
          "text": "Leukocytes [#/volume] in Blood by Automated count"
        },
        "valueQuantity": {
          "system": "http://unitsofmeasure.org",
          "value": 5.2,
          "unit": "10*3/uL",
          "code": "10*3/uL"
        },
        "referenceRange": [
          {
            "low": {
              "value": 3.4,
              "code": "10*3/uL",
              "system": "http://unitsofmeasure.org"
            }
          },
          {
            "high": {
              "value": 10.6,
              "code": "10*3/uL",
              "system": "http://unitsofmeasure.org"
            }
          }
        ],
        "text": {
          "status": "generated",
          "div": "<div xmlns=\"http://www.w3.org/1999/xhtml\"><table class=\"hl7__eu__lab__report\"><tr><th>Test</th><th>07-Jan-2025</th><th>Reference&#xA0;Range</th><th>Unit</th></tr><tr><td>Leukocytes [#/volume] in Blood by Automated count</td><td>5.2</td><td>3.4 - 10.6</td><td></td><td>10*3/uL</td></tr></table></div>"
        },
        "status": "final",
        "subject": {
          "reference": "urn:uuid:66394877-5b69-4ac8-b6ce-1a28270015dc",
          "display": "Aniela Sacharczuk"
        },
        "effectiveDateTime": "2025-01-07T05:26:59Z",
        "specimen": {
          "reference": "urn:uuid:f70be677-88b7-4ef0-af5a-8e652f0d5000"
        }
      }
    },
    {
      "fullUrl": "urn:uuid:dc827c5f-6dd5-4c36-9435-2072605e5c14",
      "resource": {
        "resourceType": "Observation",
        "id": "dc827c5f-6dd5-4c36-9435-2072605e5c14",
        "meta": {
          "profile": [
            "http://hl7.eu/fhir/laboratory/StructureDefinition/Observation-resultslab-eu-lab"
          ]
        },
        "performer": [
          {
            "display": "The Central European Lab"
          }
        ],
        "category": [
          {
            "coding": [
              {
                "system": "http://terminology.hl7.org/CodeSystem/observation-category",
                "code": "laboratory"
              }
            ]
          }
        ],
        "code": {
          "coding": [
            {
              "code": "789-8",
              "system": "http://loinc.org",
              "display": "Erythrocytes [#/volume] in Blood by Automated count"
            }
          ],
          "text": "Erythrocytes [#/volume] in Blood by Automated count"
        },
        "valueQuantity": {
          "system": "http://unitsofmeasure.org",
          "value": 4,
          "unit": "10*6/uL",
          "code": "10*6/uL"
        },
        "referenceRange": [
          {
            "low": {
              "value": 4.2,
              "code": "10*6/uL",
              "system": "http://unitsofmeasure.org"
            }
          },
          {
            "high": {
              "value": 5.2,
              "code": "10*6/uL",
              "system": "http://unitsofmeasure.org"
            }
          }
        ],
        "interpretation": [
          {
            "coding": [
              {
                "code": "L",
                "system": "http://terminology.hl7.org/CodeSystem/v3-ObservationInterpretation",
                "display": "Low"
              }
            ]
          }
        ],
        "text": {
          "status": "generated",
          "div": "<div xmlns=\"http://www.w3.org/1999/xhtml\"><table class=\"hl7__eu__lab__report\"><tr><th>Test</th><th>07-Jan-2025</th><th>Reference&#xA0;Range</th><th>Unit</th></tr><tr><td>Erythrocytes [#/volume] in Blood by Automated count</td><td>4.0</td><td>4.2 - 5.2</td><td>L</td><td>10*6/uL</td></tr></table></div>"
        },
        "status": "final",
        "subject": {
          "reference": "urn:uuid:66394877-5b69-4ac8-b6ce-1a28270015dc",
          "display": "Aniela Sacharczuk"
        },
        "effectiveDateTime": "2025-01-07T05:26:59Z",
        "specimen": {
          "reference": "urn:uuid:f70be677-88b7-4ef0-af5a-8e652f0d5000"
        }
      }
    },
    {
      "fullUrl": "urn:uuid:79bceb3c-563d-4f78-9035-350c5b4af37d",
      "resource": {
        "resourceType": "Observation",
        "id": "79bceb3c-563d-4f78-9035-350c5b4af37d",
        "meta": {
          "profile": [
            "http://hl7.eu/fhir/laboratory/StructureDefinition/Observation-resultslab-eu-lab"
          ]
        },
        "performer": [
          {
            "display": "The Central European Lab"
          }
        ],
        "category": [
          {
            "coding": [
              {
                "system": "http://terminology.hl7.org/CodeSystem/observation-category",
                "code": "laboratory"
              }
            ]
          }
        ],
        "code": {
          "coding": [
            {
              "code": "718-7",
              "system": "http://loinc.org",
              "display": "Hemoglobin [Mass/volume] in Blood"
            }
          ],
          "text": "Hemoglobin [Mass/volume] in Blood"
        },
        "valueQuantity": {
          "system": "http://unitsofmeasure.org",
          "value": 15.5,
          "unit": "g/dL",
          "code": "g/dL"
        },
        "referenceRange": [
          {
            "low": {
              "value": 12,
              "code": "g/dL",
              "system": "http://unitsofmeasure.org"
            }
          },
          {
            "high": {
              "value": 16,
              "code": "g/dL",
              "system": "http://unitsofmeasure.org"
            }
          }
        ],
        "text": {
          "status": "generated",
          "div": "<div xmlns=\"http://www.w3.org/1999/xhtml\"><table class=\"hl7__eu__lab__report\"><tr><th>Test</th><th>07-Jan-2025</th><th>Reference&#xA0;Range</th><th>Unit</th></tr><tr><td>Hemoglobin [Mass/volume] in Blood</td><td>15.5</td><td>12 - 16</td><td></td><td>g/dL</td></tr></table></div>"
        },
        "status": "final",
        "subject": {
          "reference": "urn:uuid:66394877-5b69-4ac8-b6ce-1a28270015dc",
          "display": "Aniela Sacharczuk"
        },
        "effectiveDateTime": "2025-01-07T05:26:59Z",
        "specimen": {
          "reference": "urn:uuid:f70be677-88b7-4ef0-af5a-8e652f0d5000"
        }
      }
    },
    {
      "fullUrl": "urn:uuid:0904f7a5-e5bd-41b0-be9e-c9ce1c10057f",
      "resource": {
        "resourceType": "Observation",
        "id": "0904f7a5-e5bd-41b0-be9e-c9ce1c10057f",
        "meta": {
          "profile": [
            "http://hl7.eu/fhir/laboratory/StructureDefinition/Observation-resultslab-eu-lab"
          ]
        },
        "performer": [
          {
            "display": "The Central European Lab"
          }
        ],
        "category": [
          {
            "coding": [
              {
                "system": "http://terminology.hl7.org/CodeSystem/observation-category",
                "code": "laboratory"
              }
            ]
          }
        ],
        "code": {
          "coding": [
            {
              "code": "4544-3",
              "system": "http://loinc.org",
              "display": "Hematocrit [Volume Fraction] of Blood by Automated count"
            }
          ],
          "text": "Hematocrit [Volume Fraction] of Blood by Automated count"
        },
        "valueQuantity": {
          "system": "http://unitsofmeasure.org",
          "value": 42.6,
          "unit": "%",
          "code": "%"
        },
        "referenceRange": [
          {
            "low": {
              "value": 37,
              "code": "%",
              "system": "http://unitsofmeasure.org"
            }
          },
          {
            "high": {
              "value": 46,
              "code": "%",
              "system": "http://unitsofmeasure.org"
            }
          }
        ],
        "text": {
          "status": "generated",
          "div": "<div xmlns=\"http://www.w3.org/1999/xhtml\"><table class=\"hl7__eu__lab__report\"><tr><th>Test</th><th>07-Jan-2025</th><th>Reference&#xA0;Range</th><th>Unit</th></tr><tr><td>Hematocrit [Volume Fraction] of Blood by Automated count</td><td>42.6</td><td>37 - 46</td><td></td><td>%</td></tr></table></div>"
        },
        "status": "final",
        "subject": {
          "reference": "urn:uuid:66394877-5b69-4ac8-b6ce-1a28270015dc",
          "display": "Aniela Sacharczuk"
        },
        "effectiveDateTime": "2025-01-07T05:26:59Z",
        "specimen": {
          "reference": "urn:uuid:f70be677-88b7-4ef0-af5a-8e652f0d5000"
        }
      }
    },
    {
      "fullUrl": "urn:uuid:0b05f118-9a21-4e8c-ab55-7e2e29914328",
      "resource": {
        "resourceType": "Observation",
        "id": "0b05f118-9a21-4e8c-ab55-7e2e29914328",
        "meta": {
          "profile": [
            "http://hl7.eu/fhir/laboratory/StructureDefinition/Observation-resultslab-eu-lab"
          ]
        },
        "performer": [
          {
            "display": "The Central European Lab"
          }
        ],
        "category": [
          {
            "coding": [
              {
                "system": "http://terminology.hl7.org/CodeSystem/observation-category",
                "code": "laboratory"
              }
            ]
          }
        ],
        "code": {
          "coding": [
            {
              "code": "787-2",
              "system": "http://loinc.org",
              "display": "MCV [Entitic volume] by Automated count"
            }
          ],
          "text": "MCV [Entitic volume] by Automated count"
        },
        "valueQuantity": {
          "system": "http://unitsofmeasure.org",
          "value": 83.4,
          "unit": "fL",
          "code": "fL"
        },
        "referenceRange": [
          {
            "low": {
              "value": 80,
              "code": "fL",
              "system": "http://unitsofmeasure.org"
            }
          },
          {
            "high": {
              "value": 105,
              "code": "fL",
              "system": "http://unitsofmeasure.org"
            }
          }
        ],
        "text": {
          "status": "generated",
          "div": "<div xmlns=\"http://www.w3.org/1999/xhtml\"><table class=\"hl7__eu__lab__report\"><tr><th>Test</th><th>07-Jan-2025</th><th>Reference&#xA0;Range</th><th>Unit</th></tr><tr><td>MCV [Entitic volume] by Automated count</td><td>83.4</td><td>80 - 105</td><td></td><td>fL</td></tr></table></div>"
        },
        "status": "final",
        "subject": {
          "reference": "urn:uuid:66394877-5b69-4ac8-b6ce-1a28270015dc",
          "display": "Aniela Sacharczuk"
        },
        "effectiveDateTime": "2025-01-07T05:26:59Z",
        "specimen": {
          "reference": "urn:uuid:f70be677-88b7-4ef0-af5a-8e652f0d5000"
        }
      }
    },
    {
      "fullUrl": "urn:uuid:55a27e03-5965-4cc5-913c-e06a2fe1729e",
      "resource": {
        "resourceType": "Observation",
        "id": "55a27e03-5965-4cc5-913c-e06a2fe1729e",
        "meta": {
          "profile": [
            "http://hl7.eu/fhir/laboratory/StructureDefinition/Observation-resultslab-eu-lab"
          ]
        },
        "performer": [
          {
            "display": "The Central European Lab"
          }
        ],
        "category": [
          {
            "coding": [
              {
                "system": "http://terminology.hl7.org/CodeSystem/observation-category",
                "code": "laboratory"
              }
            ]
          }
        ],
        "code": {
          "coding": [
            {
              "code": "785-6",
              "system": "http://loinc.org",
              "display": "MCH [Entitic mass] by Automated count"
            }
          ],
          "text": "MCH [Entitic mass] by Automated count"
        },
        "valueQuantity": {
          "system": "http://unitsofmeasure.org",
          "value": 30.9,
          "unit": "pg",
          "code": "pg"
        },
        "referenceRange": [
          {
            "low": {
              "value": 27,
              "code": "pg",
              "system": "http://unitsofmeasure.org"
            }
          },
          {
            "high": {
              "value": 34,
              "code": "pg",
              "system": "http://unitsofmeasure.org"
            }
          }
        ],
        "text": {
          "status": "generated",
          "div": "<div xmlns=\"http://www.w3.org/1999/xhtml\"><table class=\"hl7__eu__lab__report\"><tr><th>Test</th><th>07-Jan-2025</th><th>Reference&#xA0;Range</th><th>Unit</th></tr><tr><td>MCH [Entitic mass] by Automated count</td><td>30.9</td><td>27 - 34</td><td></td><td>pg</td></tr></table></div>"
        },
        "status": "final",
        "subject": {
          "reference": "urn:uuid:66394877-5b69-4ac8-b6ce-1a28270015dc",
          "display": "Aniela Sacharczuk"
        },
        "effectiveDateTime": "2025-01-07T05:26:59Z",
        "specimen": {
          "reference": "urn:uuid:f70be677-88b7-4ef0-af5a-8e652f0d5000"
        }
      }
    },
    {
      "fullUrl": "urn:uuid:4454c5d3-c5c3-48ca-847c-d31a829c1d90",
      "resource": {
        "resourceType": "Observation",
        "id": "4454c5d3-c5c3-48ca-847c-d31a829c1d90",
        "meta": {
          "profile": [
            "http://hl7.eu/fhir/laboratory/StructureDefinition/Observation-resultslab-eu-lab"
          ]
        },
        "performer": [
          {
            "display": "The Central European Lab"
          }
        ],
        "category": [
          {
            "coding": [
              {
                "system": "http://terminology.hl7.org/CodeSystem/observation-category",
                "code": "laboratory"
              }
            ]
          }
        ],
        "code": {
          "coding": [
            {
              "code": "786-4",
              "system": "http://loinc.org",
              "display": "MCHC [Mass/volume] by Automated count"
            }
          ],
          "text": "MCHC [Mass/volume] by Automated count"
        },
        "valueQuantity": {
          "system": "http://unitsofmeasure.org",
          "value": 34.5,
          "unit": "g/dL",
          "code": "g/dL"
        },
        "referenceRange": [
          {
            "low": {
              "value": 31,
              "code": "g/dL",
              "system": "http://unitsofmeasure.org"
            }
          },
          {
            "high": {
              "value": 35,
              "code": "g/dL",
              "system": "http://unitsofmeasure.org"
            }
          }
        ],
        "text": {
          "status": "generated",
          "div": "<div xmlns=\"http://www.w3.org/1999/xhtml\"><table class=\"hl7__eu__lab__report\"><tr><th>Test</th><th>07-Jan-2025</th><th>Reference&#xA0;Range</th><th>Unit</th></tr><tr><td>MCHC [Mass/volume] by Automated count</td><td>34.5</td><td>31 - 35</td><td></td><td>g/dL</td></tr></table></div>"
        },
        "status": "final",
        "subject": {
          "reference": "urn:uuid:66394877-5b69-4ac8-b6ce-1a28270015dc",
          "display": "Aniela Sacharczuk"
        },
        "effectiveDateTime": "2025-01-07T05:26:59Z",
        "specimen": {
          "reference": "urn:uuid:f70be677-88b7-4ef0-af5a-8e652f0d5000"
        }
      }
    },
    {
      "fullUrl": "urn:uuid:698d485a-9ae6-45be-81c0-6e86023b0ed0",
      "resource": {
        "resourceType": "Observation",
        "id": "698d485a-9ae6-45be-81c0-6e86023b0ed0",
        "meta": {
          "profile": [
            "http://hl7.eu/fhir/laboratory/StructureDefinition/Observation-resultslab-eu-lab"
          ]
        },
        "performer": [
          {
            "display": "The Central European Lab"
          }
        ],
        "category": [
          {
            "coding": [
              {
                "system": "http://terminology.hl7.org/CodeSystem/observation-category",
                "code": "laboratory"
              }
            ]
          }
        ],
        "code": {
          "coding": [
            {
              "code": "21000-5",
              "system": "http://loinc.org",
              "display": "Erythrocyte distribution width [Entitic volume] by Automated count"
            }
          ],
          "text": "Erythrocyte distribution width [Entitic volume] by Automated count"
        },
        "valueQuantity": {
          "system": "http://unitsofmeasure.org",
          "value": 44.2,
          "unit": "fL",
          "code": "fL"
        },
        "referenceRange": [
          {
            "low": {
              "value": 36,
              "code": "fL",
              "system": "http://unitsofmeasure.org"
            }
          },
          {
            "high": {
              "value": 46,
              "code": "fL",
              "system": "http://unitsofmeasure.org"
            }
          }
        ],
        "text": {
          "status": "generated",
          "div": "<div xmlns=\"http://www.w3.org/1999/xhtml\"><table class=\"hl7__eu__lab__report\"><tr><th>Test</th><th>07-Jan-2025</th><th>Reference&#xA0;Range</th><th>Unit</th></tr><tr><td>Erythrocyte distribution width [Entitic volume] by Automated count</td><td>44.2</td><td>36 - 46</td><td></td><td>fL</td></tr></table></div>"
        },
        "status": "final",
        "subject": {
          "reference": "urn:uuid:66394877-5b69-4ac8-b6ce-1a28270015dc",
          "display": "Aniela Sacharczuk"
        },
        "effectiveDateTime": "2025-01-07T05:26:59Z",
        "specimen": {
          "reference": "urn:uuid:f70be677-88b7-4ef0-af5a-8e652f0d5000"
        }
      }
    },
    {
      "fullUrl": "urn:uuid:db99e3f0-3d28-445a-9d5e-d0913959ccf1",
      "resource": {
        "resourceType": "Observation",
        "id": "db99e3f0-3d28-445a-9d5e-d0913959ccf1",
        "meta": {
          "profile": [
            "http://hl7.eu/fhir/laboratory/StructureDefinition/Observation-resultslab-eu-lab"
          ]
        },
        "performer": [
          {
            "display": "The Central European Lab"
          }
        ],
        "category": [
          {
            "coding": [
              {
                "system": "http://terminology.hl7.org/CodeSystem/observation-category",
                "code": "laboratory"
              }
            ]
          }
        ],
        "code": {
          "coding": [
            {
              "code": "777-3",
              "system": "http://loinc.org",
              "display": "Platelets [#/volume] in Blood by Automated count"
            }
          ],
          "text": "Platelets [#/volume] in Blood by Automated count"
        },
        "valueQuantity": {
          "system": "http://unitsofmeasure.org",
          "value": 343.7,
          "unit": "10*3/uL",
          "code": "10*3/uL"
        },
        "referenceRange": [
          {
            "low": {
              "value": 150,
              "code": "10*3/uL",
              "system": "http://unitsofmeasure.org"
            }
          },
          {
            "high": {
              "value": 415,
              "code": "10*3/uL",
              "system": "http://unitsofmeasure.org"
            }
          }
        ],
        "text": {
          "status": "generated",
          "div": "<div xmlns=\"http://www.w3.org/1999/xhtml\"><table class=\"hl7__eu__lab__report\"><tr><th>Test</th><th>07-Jan-2025</th><th>Reference&#xA0;Range</th><th>Unit</th></tr><tr><td>Platelets [#/volume] in Blood by Automated count</td><td>343.7</td><td>150 - 415</td><td></td><td>10*3/uL</td></tr></table></div>"
        },
        "status": "final",
        "subject": {
          "reference": "urn:uuid:66394877-5b69-4ac8-b6ce-1a28270015dc",
          "display": "Aniela Sacharczuk"
        },
        "effectiveDateTime": "2025-01-07T05:26:59Z",
        "specimen": {
          "reference": "urn:uuid:f70be677-88b7-4ef0-af5a-8e652f0d5000"
        }
      }
    },
    {
      "fullUrl": "urn:uuid:cfec780c-d415-41cc-a20e-ae6f31479fec",
      "resource": {
        "resourceType": "Observation",
        "id": "cfec780c-d415-41cc-a20e-ae6f31479fec",
        "meta": {
          "profile": [
            "http://hl7.eu/fhir/laboratory/StructureDefinition/Observation-resultslab-eu-lab"
          ]
        },
        "performer": [
          {
            "display": "The Central European Lab"
          }
        ],
        "category": [
          {
            "coding": [
              {
                "system": "http://terminology.hl7.org/CodeSystem/observation-category",
                "code": "laboratory"
              }
            ]
          }
        ],
        "code": {
          "coding": [
            {
              "code": "32207-3",
              "system": "http://loinc.org",
              "display": "Platelet distribution width [Entitic volume] in Blood by Automated count"
            }
          ],
          "text": "Platelet distribution width [Entitic volume] in Blood by Automated count"
        },
        "valueQuantity": {
          "system": "http://unitsofmeasure.org",
          "value": 451.4,
          "unit": "fL",
          "code": "fL"
        },
        "referenceRange": [
          {
            "low": {
              "value": 11.6,
              "code": "fL",
              "system": "http://unitsofmeasure.org"
            }
          },
          {
            "high": {
              "value": 17.4,
              "code": "fL",
              "system": "http://unitsofmeasure.org"
            }
          }
        ],
        "interpretation": [
          {
            "coding": [
              {
                "code": "H",
                "system": "http://terminology.hl7.org/CodeSystem/v3-ObservationInterpretation",
                "display": "High"
              }
            ]
          }
        ],
        "text": {
          "status": "generated",
          "div": "<div xmlns=\"http://www.w3.org/1999/xhtml\"><table class=\"hl7__eu__lab__report\"><tr><th>Test</th><th>07-Jan-2025</th><th>Reference&#xA0;Range</th><th>Unit</th></tr><tr><td>Platelet distribution width [Entitic volume] in Blood by Automated count</td><td>451.4</td><td>11.6 - 17.4</td><td>H</td><td>fL</td></tr></table></div>"
        },
        "status": "final",
        "subject": {
          "reference": "urn:uuid:66394877-5b69-4ac8-b6ce-1a28270015dc",
          "display": "Aniela Sacharczuk"
        },
        "effectiveDateTime": "2025-01-07T05:26:59Z",
        "specimen": {
          "reference": "urn:uuid:f70be677-88b7-4ef0-af5a-8e652f0d5000"
        }
      }
    },
    {
      "fullUrl": "urn:uuid:603aee5e-47e9-4dfa-86f0-00ab2bf4f938",
      "resource": {
        "resourceType": "Observation",
        "id": "603aee5e-47e9-4dfa-86f0-00ab2bf4f938",
        "meta": {
          "profile": [
            "http://hl7.eu/fhir/laboratory/StructureDefinition/Observation-resultslab-eu-lab"
          ]
        },
        "performer": [
          {
            "display": "The Central European Lab"
          }
        ],
        "category": [
          {
            "coding": [
              {
                "system": "http://terminology.hl7.org/CodeSystem/observation-category",
                "code": "laboratory"
              }
            ]
          }
        ],
        "code": {
          "coding": [
            {
              "code": "32623-1",
              "system": "http://loinc.org",
              "display": "Platelet mean volume [Entitic volume] in Blood by Automated count"
            }
          ],
          "text": "Platelet mean volume [Entitic volume] in Blood by Automated count"
        },
        "valueQuantity": {
          "system": "http://unitsofmeasure.org",
          "value": 10.8,
          "unit": "fL",
          "code": "fL"
        },
        "referenceRange": [
          {
            "low": {
              "value": 7.2,
              "code": "fL",
              "system": "http://unitsofmeasure.org"
            }
          },
          {
            "high": {
              "value": 13.8,
              "code": "fL",
              "system": "http://unitsofmeasure.org"
            }
          }
        ],
        "text": {
          "status": "generated",
          "div": "<div xmlns=\"http://www.w3.org/1999/xhtml\"><table class=\"hl7__eu__lab__report\"><tr><th>Test</th><th>07-Jan-2025</th><th>Reference&#xA0;Range</th><th>Unit</th></tr><tr><td>Platelet mean volume [Entitic volume] in Blood by Automated count</td><td>10.8</td><td>7.2 - 13.8</td><td></td><td>fL</td></tr></table></div>"
        },
        "status": "final",
        "subject": {
          "reference": "urn:uuid:66394877-5b69-4ac8-b6ce-1a28270015dc",
          "display": "Aniela Sacharczuk"
        },
        "effectiveDateTime": "2025-01-07T05:26:59Z",
        "specimen": {
          "reference": "urn:uuid:f70be677-88b7-4ef0-af5a-8e652f0d5000"
        }
      }
    },
    {
      "fullUrl": "urn:uuid:32eb221a-413b-4223-953f-280584d3321c",
      "resource": {
        "resourceType": "Device",
        "id": "32eb221a-413b-4223-953f-280584d3321c",
        "deviceName": [
          {
            "name": "SYNDERAI Synthetic Generator",
            "type": "manufacturer-name"
          }
        ],
        "version": [
          {
            "value": "5.0"
          }
        ],
        "text": {
          "status": "generated",
          "div": "<div xmlns=\"http://www.w3.org/1999/xhtml\">SYNDERAI Synthetic Generator v5.0</div>"
        },
        "status": "active\"",
        "distinctIdentifier": "synderai-generator-50",
        "manufacturer": "SYNDERAI Project"
      }
    },
    {
      "fullUrl": "urn:uuid:61f1e642-3f82-407e-bdbc-3fcb11bf08ba",
      "resource": {
        "resourceType": "Provenance",
        "id": "61f1e642-3f82-407e-bdbc-3fcb11bf08ba",
        "target": [
          {
            "reference": "Patient/66394877-5b69-4ac8-b6ce-1a28270015dc"
          },
          {
            "reference": "Bundle/9bf81f0f-b8b6-4c2a-9e95-717c52ae708f"
          },
          {
            "reference": "Composition/9b721e10-6805-4454-92b6-63a665db8501"
          },
          {
            "reference": "PractitionerRole/f8df185d-c64b-43ad-a8b9-0d74e2fc3d30"
          },
          {
            "reference": "Practitioner/d3bc2f7f-4992-4219-93d9-5d46056cf56c"
          },
          {
            "reference": "PractitionerRole/0d8c72fe-22af-4ff6-bbf3-8ed51c30a71b"
          },
          {
            "reference": "Organization/3a6ee1b5-7cdc-48e3-bf3d-0020b67c5b74"
          }
        ],
        "activity": {
          "text": "Synthetic Example Data Generation"
        },
        "policy": [
          "https://synderai.net/synderai-synthetic-data-policy"
        ],
        "agent": [
          {
            "type": {
              "text": "author"
            },
            "who": {
              "reference": "Device/32eb221a-413b-4223-953f-280584d3321c"
            }
          }
        ],
        "reason": [
          {
            "text": "Interoperability Testing and Training (non-clinical use)"
          }
        ],
        "text": {
          "status": "generated",
          "div": "<div xmlns=\"http://www.w3.org/1999/xhtml\">Provenance for SYNDERAI Synthetic Example Data Resource</div>"
        },
        "recorded": "2025-01-07T06:26:59Z"
      }
    },
    {
      "fullUrl": "urn:uuid:f8df185d-c64b-43ad-a8b9-0d74e2fc3d30",
      "resource": {
        "resourceType": "PractitionerRole",
        "id": "f8df185d-c64b-43ad-a8b9-0d74e2fc3d30",
        "meta": {
          "profile": [
            "http://hl7.eu/fhir/base/StructureDefinition/practitionerRole-eu"
          ]
        },
        "text": {
          "status": "generated",
          "div": "<div xmlns=\"http://www.w3.org/1999/xhtml\">Laboratory Role Id: f8df185d-c64b-43ad-a8b9-0d74e2fc3d30</div>"
        },
        "practitioner": {
          "reference": "urn:uuid:d3bc2f7f-4992-4219-93d9-5d46056cf56c"
        }
      }
    },
    {
      "fullUrl": "urn:uuid:d3bc2f7f-4992-4219-93d9-5d46056cf56c",
      "resource": {
        "resourceType": "Practitioner",
        "id": "d3bc2f7f-4992-4219-93d9-5d46056cf56c",
        "meta": {
          "profile": [
            "http://hl7.eu/fhir/base/StructureDefinition/practitioner-eu"
          ]
        },
        "identifier": [
          {
            "assigner": {
              "display": "HL7 Europe"
            },
            "system": "urn:oid:2.16.840.1.113883.2.51.999",
            "value": "9dae5be3-3a2b-40fd-b82e-94dd47cc872b"
          }
        ],
        "name": [
          {
            "prefix": [
              "dr"
            ],
            "given": [
              "Ex"
            ],
            "family": "Ample"
          }
        ],
        "address": [
          {
            "line": [
              "Laboratoire Central Européenne",
              "Boulevard du Jardin Botanique 32"
            ],
            "postalCode": "1000",
            "city": "Brussels",
            "country": "Belgium"
          }
        ],
        "text": {
          "status": "generated",
          "div": "<div xmlns=\"http://www.w3.org/1999/xhtml\">Laboratory: Laboratoire Central Européenne, 1000 Brussels, Belgium</div>"
        }
      }
    }
  ],
  "type": "document",
  "timestamp": "2025-01-07T06:26:59Z"
}
