{
  "resourceType": "Bundle",
  "id": "fd602520-acf9-46cb-b74f-e829f0b8fd31",
  "meta": {
    "profile": [
      "http://hl7.eu/fhir/laboratory/StructureDefinition/Bundle-eu-lab"
    ]
  },
  "identifier": {
    "assigner": {
      "display": "HL7 Europe"
    },
    "system": "urn:oid:2.16.840.1.113883.2.51.999",
    "value": "f91ec512-ec4d-460d-9c67-80b427972503"
  },
  "entry": [
    {
      "fullUrl": "urn:uuid:74ecb3c8-1996-416c-9492-2a3e8b369028",
      "resource": {
        "resourceType": "Composition",
        "id": "74ecb3c8-1996-416c-9492-2a3e8b369028",
        "meta": {
          "profile": [
            "http://hl7.eu/fhir/laboratory/StructureDefinition/Composition-eu-lab"
          ]
        },
        "identifier": {
          "assigner": {
            "display": "HL7 Europe"
          },
          "system": "urn:oid:2.16.840.1.113883.2.51.999",
          "value": "8314ee96-d62e-40fb-8410-b97b63ae93f7"
        },
        "author": [
          {
            "reference": "urn:uuid:4da81b69-b517-4cce-8f7e-34d3c85e00ef"
          }
        ],
        "category": [
          {
            "coding": [
              {
                "code": "26436-6",
                "system": "http://loinc.org",
                "display": "Laboratory studies (set)"
              }
            ]
          }
        ],
        "type": {
          "coding": [
            {
              "code": "11502-2",
              "system": "http://loinc.org",
              "display": "Laboratory report"
            }
          ],
          "text": "Laboratory Report"
        },
        "section": [
          {
            "code": {
              "coding": [
                {
                  "code": "26436-6",
                  "system": "http://loinc.org",
                  "display": "Laboratory studies (set)"
                }
              ],
              "text": "Laboratory studies"
            },
            "section": [
              {
                "code": {
                  "coding": [
                    {
                      "code": "$18719-5",
                      "system": "http://loinc.org",
                      "display": "Chemistry studies (set)"
                    }
                  ],
                  "text": "Chemistry"
                },
                "entry": [
                  {
                    "reference": "urn:uuid:1d684652-dc6e-4db2-9cb0-82923b12f315"
                  },
                  {
                    "reference": "urn:uuid:a8b211fb-d063-4b91-989b-a8dd0910ff68"
                  },
                  {
                    "reference": "urn:uuid:0da8849c-73b7-4a64-8e7e-4808a95b8542"
                  },
                  {
                    "reference": "urn:uuid:b04863c5-e2a9-4c09-9a1b-f2860001eae3"
                  },
                  {
                    "reference": "urn:uuid:b6ae1081-e8b5-4c33-8bec-bc3a50c5e593"
                  },
                  {
                    "reference": "urn:uuid:300a0c9e-554c-47a6-b13f-b3a93a77f98b"
                  },
                  {
                    "reference": "urn:uuid:c68338df-4312-41dd-b52c-911595ec093e"
                  },
                  {
                    "reference": "urn:uuid:f0ae5ab9-ce50-494b-ad66-4ecca7003e58"
                  },
                  {
                    "reference": "urn:uuid:2d10f9e6-7c77-4e87-837b-22835a54c7ca"
                  }
                ],
                "text": {
                  "status": "generated",
                  "div": "<div xmlns=\"http://www.w3.org/1999/xhtml\"><h3>Chemistry</h3><table class=\"hl7__eu__lab__report\"><thead><tr><th>Test</th><th>26-SEP-2023</th><th>Reference&#xA0;Range</th><th>Unit</th></tr></thead><tbody><tr><td>Hemoglobin A1c/Hemoglobin.total in Blood</td><td>6.2</td><td>4.5 - 6.4</td><td>%</td></tr><tr><td>Glucose [Mass/volume] in Blood</td><td>95.7</td><td>70 - 99</td><td>mg/dL</td></tr><tr><td>Urea nitrogen [Mass/volume] in Blood</td><td>11.4</td><td>7 - 20</td><td>mg/dL</td></tr><tr><td>Creatinine [Mass/volume] in Blood</td><td><strong>0.8 L</strong></td><td>0.9 - 1.3</td><td>mg/dL</td></tr><tr><td>Calcium [Mass/volume] in Blood</td><td>8.6</td><td>8.6 - 10.2</td><td>mg/dL</td></tr><tr><td>Sodium [Moles/volume] in Blood</td><td>137.4</td><td>135 - 145</td><td>mmol/L</td></tr><tr><td>Potassium [Moles/volume] in Blood</td><td>4.5</td><td>3.5 - 5.1</td><td>mmol/L</td></tr><tr><td>Chloride [Moles/volume] in Blood</td><td>104.1</td><td>98 - 108</td><td>mmol/L</td></tr><tr><td>Carbon dioxide, total [Moles/volume] in Blood</td><td>22.4</td><td>22 - 29</td><td>mmol/L</td></tr></tbody></table></div>"
                },
                "title": "Chemistry"
              }
            ],
            "title": "Laboratory Report"
          },
          {
            "text": {
              "status": "generated",
              "div": "<div xmlns=\"http://www.w3.org/1999/xhtml\"><h3>Annotation</h3><table class=\"hl7__eu__lab__report\"><tr><th>Conclusion and Recommendations based on this report and previous findings known to us</th></tr><tr><td>All measured parameters are within or very close to normal ranges. HbA1c and glucose indicate good glycemic control. Creatinine is slightly below the reference range but is not clinically significant in isolation. Renal, electrolyte, and metabolic parameters are unremarkable. No acute laboratory abnormalities detected. Recommend continued routine monitoring.</td></tr></table></div>"
            },
            "code": {
              "coding": [
                {
                  "system": "http://loinc.org",
                  "code": "48767-8",
                  "display": "Annotation comment"
                }
              ]
            },
            "title": "Annotation comment"
          }
        ],
        "status": "final",
        "subject": {
          "reference": "urn:uuid:839a5fa5-9f23-419e-8f50-9d1c8e5b2204",
          "display": "Khalid Nilsson"
        },
        "date": "2023-09-26T01:04:23Z",
        "title": "Laboratory Report",
        "confidentiality": "N"
      }
    },
    {
      "fullUrl": "urn:uuid:bca92745-d2e8-45d8-be05-fe9894467ea5",
      "resource": {
        "resourceType": "DiagnosticReport",
        "id": "bca92745-d2e8-45d8-be05-fe9894467ea5",
        "meta": {
          "profile": [
            "http://hl7.eu/fhir/laboratory/StructureDefinition/DiagnosticReport-eu-lab"
          ]
        },
        "identifier": [
          {
            "assigner": {
              "display": "HL7 Europe"
            },
            "system": "urn:oid:2.16.840.1.113883.2.51.999",
            "value": "5b949b56-afbc-42a0-933d-80830aa705a6"
          }
        ],
        "extension": [
          {
            "url": "http://hl7.org/fhir/5.0/StructureDefinition/extension-DiagnosticReport.composition",
            "valueReference": {
              "reference": "urn:uuid:8314ee96-d62e-40fb-8410-b97b63ae93f7"
            }
          }
        ],
        "category": [
          {
            "coding": [
              {
                "code": "26436-6",
                "system": "http://loinc.org",
                "display": "Laboratory studies (set)"
              }
            ]
          }
        ],
        "specimen": [
          {
            "reference": "urn:uuid:dd14322a-e3dc-4cde-83dd-d6e561ebcd1d"
          }
        ],
        "result": [
          {
            "reference": "urn:uuid:1d684652-dc6e-4db2-9cb0-82923b12f315"
          },
          {
            "reference": "urn:uuid:a8b211fb-d063-4b91-989b-a8dd0910ff68"
          },
          {
            "reference": "urn:uuid:0da8849c-73b7-4a64-8e7e-4808a95b8542"
          },
          {
            "reference": "urn:uuid:b04863c5-e2a9-4c09-9a1b-f2860001eae3"
          },
          {
            "reference": "urn:uuid:b6ae1081-e8b5-4c33-8bec-bc3a50c5e593"
          },
          {
            "reference": "urn:uuid:300a0c9e-554c-47a6-b13f-b3a93a77f98b"
          },
          {
            "reference": "urn:uuid:c68338df-4312-41dd-b52c-911595ec093e"
          },
          {
            "reference": "urn:uuid:f0ae5ab9-ce50-494b-ad66-4ecca7003e58"
          },
          {
            "reference": "urn:uuid:2d10f9e6-7c77-4e87-837b-22835a54c7ca"
          }
        ],
        "status": "registered",
        "code": {
          "coding": [
            {
              "code": "11502-2",
              "system": "http://loinc.org",
              "display": "Laboratory report"
            }
          ]
        },
        "subject": {
          "reference": "urn:uuid:839a5fa5-9f23-419e-8f50-9d1c8e5b2204",
          "display": "Khalid Nilsson"
        }
      }
    },
    {
      "fullUrl": "urn:uuid:839a5fa5-9f23-419e-8f50-9d1c8e5b2204",
      "resource": {
        "resourceType": "Patient",
        "id": "839a5fa5-9f23-419e-8f50-9d1c8e5b2204",
        "meta": {
          "security": [
            {
              "system": "http://terminology.hl7.org/CodeSystem/v3-ActReason",
              "code": "HTEST"
            },
            {
              "system": "http://terminology.hl7.org/CodeSystem/v3-ActReason",
              "code": "TRAIN"
            }
          ],
          "tag": [
            {
              "system": "https://synderai.net/fhir/CodeSystem/tags",
              "code": "synthetic",
              "display": "SYNDERAI Synthetic data"
            }
          ],
          "profile": [
            "http://hl7.eu/fhir/base/StructureDefinition/patient-eu-core"
          ]
        },
        "identifier": [
          {
            "type": {
              "coding": [
                {
                  "code": "PT",
                  "system": "http://terminology.hl7.org/CodeSystem/v2-0203"
                }
              ]
            },
            "system": "http://ec.europa.eu/identifier/eci",
            "value": "8339-594203-6"
          },
          {
            "type": {
              "coding": [
                {
                  "code": "MR",
                  "system": "http://terminology.hl7.org/CodeSystem/v2-0203"
                }
              ]
            },
            "system": "http://local.setting.eu/identifier",
            "value": "db9680f4-3d2c-0551-cb1c-61573f88f405"
          }
        ],
        "name": [
          {
            "family": "Nilsson"
          },
          {
            "given": [
              "Khalid"
            ]
          },
          {
            "text": "Khalid Nilsson"
          }
        ],
        "address": [
          {
            "line": [
              "Gengränd 482"
            ],
            "use": "home",
            "type": "physical",
            "postalCode": "691 31",
            "city": "Karlskoga",
            "country": "Sweden"
          }
        ],
        "telecom": [
          {
            "system": "phone",
            "value": "+46 (0)8 888 657 95"
          }
        ],
        "extension": [
          {
            "url": "http://hl7.org/fhir/StructureDefinition/patient-nationality",
            "valueCodeableConcept": {
              "coding": [
                {
                  "code": "SE",
                  "system": "http://hl7.org/fhir/ValueSet/country"
                }
              ]
            }
          }
        ],
        "text": {
          "status": "generated",
          "div": "<div xmlns=\"http://www.w3.org/1999/xhtml\"><table class=\"hl7__ips\"><tr><td>Khalid Nilsson</td><td>male</td><td>10-Apr-1952</td></tr></table></div>"
        },
        "gender": "male",
        "birthDate": "1952-04-10"
      }
    },
    {
      "fullUrl": "urn:uuid:026b53c2-4ab8-49f1-8acd-0632de6268bc",
      "resource": {
        "resourceType": "ServiceRequest",
        "id": "026b53c2-4ab8-49f1-8acd-0632de6268bc",
        "meta": {
          "profile": [
            "http://hl7.eu/fhir/laboratory/StructureDefinition/ServiceRequest-eu-lab"
          ]
        },
        "identifier": [
          {
            "system": "http://example.org",
            "value": "bdc951de-67fb-4309-8a6e-13ae32b748d6"
          }
        ],
        "specimen": [
          {
            "reference": "urn:uuid:dd14322a-e3dc-4cde-83dd-d6e561ebcd1d"
          }
        ],
        "reasonCode": [
          {
            "coding": [
              {
                "code": "64859006",
                "system": "http://snomed.info/sct",
                "display": "Osteoporosis"
              }
            ]
          },
          {
            "coding": [
              {
                "code": "196416002",
                "system": "http://snomed.info/sct",
                "display": "Impacted molars"
              }
            ]
          },
          {
            "coding": [
              {
                "code": "414545008",
                "system": "http://snomed.info/sct",
                "display": "Ischemic heart disease"
              }
            ]
          },
          {
            "coding": [
              {
                "code": "40055000",
                "system": "http://snomed.info/sct",
                "display": "Chronic sinusitis"
              }
            ]
          },
          {
            "coding": [
              {
                "code": "197927001",
                "system": "http://snomed.info/sct",
                "display": "Recurrent urinary tract infection"
              }
            ]
          },
          {
            "coding": [
              {
                "code": "15777000",
                "system": "http://snomed.info/sct",
                "display": "Prediabetes"
              }
            ]
          },
          {
            "coding": [
              {
                "code": "271737000",
                "system": "http://snomed.info/sct",
                "display": "Anemia"
              }
            ]
          }
        ],
        "status": "active",
        "intent": "order",
        "code": {
          "coding": [
            {
              "code": "108252007",
              "system": "http://snomed.info/sct",
              "display": "Laboratory procedure"
            }
          ]
        },
        "subject": {
          "reference": "urn:uuid:839a5fa5-9f23-419e-8f50-9d1c8e5b2204",
          "display": "Khalid Nilsson"
        },
        "requester": {
          "reference": "urn:uuid:53da4633-1d6a-41ce-a162-481cf6a937ba"
        }
      }
    },
    {
      "fullUrl": "urn:uuid:53da4633-1d6a-41ce-a162-481cf6a937ba",
      "resource": {
        "resourceType": "PractitionerRole",
        "id": "53da4633-1d6a-41ce-a162-481cf6a937ba",
        "meta": {
          "profile": [
            "http://hl7.eu/fhir/base/StructureDefinition/practitionerRole-eu"
          ]
        },
        "text": {
          "status": "generated",
          "div": "<div xmlns=\"http://www.w3.org/1999/xhtml\">Provider Role Id: 53da4633-1d6a-41ce-a162-481cf6a937ba</div>"
        },
        "organization": {
          "reference": "urn:uuid:a06bd07e-f633-45b2-b5b1-e0d659300898"
        }
      }
    },
    {
      "fullUrl": "urn:uuid:a06bd07e-f633-45b2-b5b1-e0d659300898",
      "resource": {
        "resourceType": "Organization",
        "id": "a06bd07e-f633-45b2-b5b1-e0d659300898",
        "meta": {
          "profile": [
            "http://hl7.eu/fhir/base/StructureDefinition/organization-eu"
          ]
        },
        "identifier": [
          {
            "assigner": {
              "display": "HL7 Europe"
            },
            "system": "urn:oid:2.16.840.1.113883.2.51.999",
            "value": "5fa148f3-bfe1-4771-8d97-b3e3e960d193"
          }
        ],
        "address": [
          {
            "city": "Karlskoga",
            "postalCode": "691 31",
            "country": "Sweden"
          }
        ],
        "text": {
          "status": "generated",
          "div": "<div xmlns=\"http://www.w3.org/1999/xhtml\">Provider Organization: Karlskoga Lasarett</div>"
        },
        "name": "Karlskoga Lasarett"
      }
    },
    {
      "fullUrl": "urn:uuid:dd14322a-e3dc-4cde-83dd-d6e561ebcd1d",
      "resource": {
        "resourceType": "Specimen",
        "id": "dd14322a-e3dc-4cde-83dd-d6e561ebcd1d",
        "meta": {
          "profile": [
            "http://hl7.eu/fhir/laboratory/StructureDefinition/Specimen-eu-lab"
          ]
        },
        "collection": {
          "collectedDateTime": "2023-09-25"
        },
        "text": {
          "status": "generated",
          "div": "<div xmlns=\"http://www.w3.org/1999/xhtml\"><table class=\"hl7__eu__lab__report\"><tr><th>Specimen</th><th>Collection Date</th></tr><tr><td>Whole blood specimen (specimen)</td><td><span class=\"nb\">25-Sep-2023</span></td></tr></table></div>"
        },
        "type": {
          "coding": [
            {
              "code": "258580003",
              "system": "http://snomed.info/sct",
              "display": "Whole blood specimen (specimen)"
            }
          ]
        }
      }
    },
    {
      "fullUrl": "urn:uuid:1d684652-dc6e-4db2-9cb0-82923b12f315",
      "resource": {
        "resourceType": "Observation",
        "id": "1d684652-dc6e-4db2-9cb0-82923b12f315",
        "meta": {
          "profile": [
            "http://hl7.eu/fhir/laboratory/StructureDefinition/Observation-resultslab-eu-lab"
          ]
        },
        "performer": [
          {
            "display": "The Central European Lab"
          }
        ],
        "category": [
          {
            "coding": [
              {
                "system": "http://terminology.hl7.org/CodeSystem/observation-category",
                "code": "laboratory"
              }
            ]
          }
        ],
        "code": {
          "coding": [
            {
              "code": "4548-4",
              "system": "http://loinc.org",
              "display": "Hemoglobin A1c/Hemoglobin.total in Blood"
            }
          ],
          "text": "Hemoglobin A1c/Hemoglobin.total in Blood"
        },
        "valueQuantity": {
          "system": "http://unitsofmeasure.org",
          "value": 6.2,
          "unit": "%",
          "code": "%"
        },
        "referenceRange": [
          {
            "low": {
              "value": 4.5,
              "code": "%",
              "system": "http://unitsofmeasure.org"
            }
          },
          {
            "high": {
              "value": 6.4,
              "code": "%",
              "system": "http://unitsofmeasure.org"
            }
          }
        ],
        "text": {
          "status": "generated",
          "div": "<div xmlns=\"http://www.w3.org/1999/xhtml\"><table class=\"hl7__eu__lab__report\"><tr><th>Test</th><th>26-Sep-2023</th><th>Reference&#xA0;Range</th><th>Unit</th></tr><tr><td>Hemoglobin A1c/Hemoglobin.total in Blood</td><td>6.2</td><td>4.5 - 6.4</td><td></td><td>%</td></tr></table></div>"
        },
        "status": "final",
        "subject": {
          "reference": "urn:uuid:839a5fa5-9f23-419e-8f50-9d1c8e5b2204",
          "display": "Khalid Nilsson"
        },
        "effectiveDateTime": "2023-09-25T23:04:23Z",
        "specimen": {
          "reference": "urn:uuid:dd14322a-e3dc-4cde-83dd-d6e561ebcd1d"
        }
      }
    },
    {
      "fullUrl": "urn:uuid:a8b211fb-d063-4b91-989b-a8dd0910ff68",
      "resource": {
        "resourceType": "Observation",
        "id": "a8b211fb-d063-4b91-989b-a8dd0910ff68",
        "meta": {
          "profile": [
            "http://hl7.eu/fhir/laboratory/StructureDefinition/Observation-resultslab-eu-lab"
          ]
        },
        "performer": [
          {
            "display": "The Central European Lab"
          }
        ],
        "category": [
          {
            "coding": [
              {
                "system": "http://terminology.hl7.org/CodeSystem/observation-category",
                "code": "laboratory"
              }
            ]
          }
        ],
        "code": {
          "coding": [
            {
              "code": "2339-0",
              "system": "http://loinc.org",
              "display": "Glucose [Mass/volume] in Blood"
            }
          ],
          "text": "Glucose [Mass/volume] in Blood"
        },
        "valueQuantity": {
          "system": "http://unitsofmeasure.org",
          "value": 95.7,
          "unit": "mg/dL",
          "code": "mg/dL"
        },
        "referenceRange": [
          {
            "low": {
              "value": 70,
              "code": "mg/dL",
              "system": "http://unitsofmeasure.org"
            }
          },
          {
            "high": {
              "value": 99,
              "code": "mg/dL",
              "system": "http://unitsofmeasure.org"
            }
          }
        ],
        "text": {
          "status": "generated",
          "div": "<div xmlns=\"http://www.w3.org/1999/xhtml\"><table class=\"hl7__eu__lab__report\"><tr><th>Test</th><th>26-Sep-2023</th><th>Reference&#xA0;Range</th><th>Unit</th></tr><tr><td>Glucose [Mass/volume] in Blood</td><td>95.7</td><td>70 - 99</td><td></td><td>mg/dL</td></tr></table></div>"
        },
        "status": "final",
        "subject": {
          "reference": "urn:uuid:839a5fa5-9f23-419e-8f50-9d1c8e5b2204",
          "display": "Khalid Nilsson"
        },
        "effectiveDateTime": "2023-09-25T23:04:23Z",
        "specimen": {
          "reference": "urn:uuid:dd14322a-e3dc-4cde-83dd-d6e561ebcd1d"
        }
      }
    },
    {
      "fullUrl": "urn:uuid:0da8849c-73b7-4a64-8e7e-4808a95b8542",
      "resource": {
        "resourceType": "Observation",
        "id": "0da8849c-73b7-4a64-8e7e-4808a95b8542",
        "meta": {
          "profile": [
            "http://hl7.eu/fhir/laboratory/StructureDefinition/Observation-resultslab-eu-lab"
          ]
        },
        "performer": [
          {
            "display": "The Central European Lab"
          }
        ],
        "category": [
          {
            "coding": [
              {
                "system": "http://terminology.hl7.org/CodeSystem/observation-category",
                "code": "laboratory"
              }
            ]
          }
        ],
        "code": {
          "coding": [
            {
              "code": "6299-2",
              "system": "http://loinc.org",
              "display": "Urea nitrogen [Mass/volume] in Blood"
            }
          ],
          "text": "Urea nitrogen [Mass/volume] in Blood"
        },
        "valueQuantity": {
          "system": "http://unitsofmeasure.org",
          "value": 11.4,
          "unit": "mg/dL",
          "code": "mg/dL"
        },
        "referenceRange": [
          {
            "low": {
              "value": 7,
              "code": "mg/dL",
              "system": "http://unitsofmeasure.org"
            }
          },
          {
            "high": {
              "value": 20,
              "code": "mg/dL",
              "system": "http://unitsofmeasure.org"
            }
          }
        ],
        "text": {
          "status": "generated",
          "div": "<div xmlns=\"http://www.w3.org/1999/xhtml\"><table class=\"hl7__eu__lab__report\"><tr><th>Test</th><th>26-Sep-2023</th><th>Reference&#xA0;Range</th><th>Unit</th></tr><tr><td>Urea nitrogen [Mass/volume] in Blood</td><td>11.4</td><td>7 - 20</td><td></td><td>mg/dL</td></tr></table></div>"
        },
        "status": "final",
        "subject": {
          "reference": "urn:uuid:839a5fa5-9f23-419e-8f50-9d1c8e5b2204",
          "display": "Khalid Nilsson"
        },
        "effectiveDateTime": "2023-09-25T23:04:23Z",
        "specimen": {
          "reference": "urn:uuid:dd14322a-e3dc-4cde-83dd-d6e561ebcd1d"
        }
      }
    },
    {
      "fullUrl": "urn:uuid:b04863c5-e2a9-4c09-9a1b-f2860001eae3",
      "resource": {
        "resourceType": "Observation",
        "id": "b04863c5-e2a9-4c09-9a1b-f2860001eae3",
        "meta": {
          "profile": [
            "http://hl7.eu/fhir/laboratory/StructureDefinition/Observation-resultslab-eu-lab"
          ]
        },
        "performer": [
          {
            "display": "The Central European Lab"
          }
        ],
        "category": [
          {
            "coding": [
              {
                "system": "http://terminology.hl7.org/CodeSystem/observation-category",
                "code": "laboratory"
              }
            ]
          }
        ],
        "code": {
          "coding": [
            {
              "code": "38483-4",
              "system": "http://loinc.org",
              "display": "Creatinine [Mass/volume] in Blood"
            }
          ],
          "text": "Creatinine [Mass/volume] in Blood"
        },
        "valueQuantity": {
          "system": "http://unitsofmeasure.org",
          "value": 0.8,
          "unit": "mg/dL",
          "code": "mg/dL"
        },
        "referenceRange": [
          {
            "low": {
              "value": 0.9,
              "code": "mg/dL",
              "system": "http://unitsofmeasure.org"
            }
          },
          {
            "high": {
              "value": 1.3,
              "code": "mg/dL",
              "system": "http://unitsofmeasure.org"
            }
          }
        ],
        "interpretation": [
          {
            "coding": [
              {
                "code": "L",
                "system": "http://terminology.hl7.org/CodeSystem/v3-ObservationInterpretation",
                "display": "Low"
              }
            ]
          }
        ],
        "text": {
          "status": "generated",
          "div": "<div xmlns=\"http://www.w3.org/1999/xhtml\"><table class=\"hl7__eu__lab__report\"><tr><th>Test</th><th>26-Sep-2023</th><th>Reference&#xA0;Range</th><th>Unit</th></tr><tr><td>Creatinine [Mass/volume] in Blood</td><td>0.8</td><td>0.9 - 1.3</td><td>L</td><td>mg/dL</td></tr></table></div>"
        },
        "status": "final",
        "subject": {
          "reference": "urn:uuid:839a5fa5-9f23-419e-8f50-9d1c8e5b2204",
          "display": "Khalid Nilsson"
        },
        "effectiveDateTime": "2023-09-25T23:04:23Z",
        "specimen": {
          "reference": "urn:uuid:dd14322a-e3dc-4cde-83dd-d6e561ebcd1d"
        }
      }
    },
    {
      "fullUrl": "urn:uuid:b6ae1081-e8b5-4c33-8bec-bc3a50c5e593",
      "resource": {
        "resourceType": "Observation",
        "id": "b6ae1081-e8b5-4c33-8bec-bc3a50c5e593",
        "meta": {
          "profile": [
            "http://hl7.eu/fhir/laboratory/StructureDefinition/Observation-resultslab-eu-lab"
          ]
        },
        "performer": [
          {
            "display": "The Central European Lab"
          }
        ],
        "category": [
          {
            "coding": [
              {
                "system": "http://terminology.hl7.org/CodeSystem/observation-category",
                "code": "laboratory"
              }
            ]
          }
        ],
        "code": {
          "coding": [
            {
              "code": "49765-1",
              "system": "http://loinc.org",
              "display": "Calcium [Mass/volume] in Blood"
            }
          ],
          "text": "Calcium [Mass/volume] in Blood"
        },
        "valueQuantity": {
          "system": "http://unitsofmeasure.org",
          "value": 8.6,
          "unit": "mg/dL",
          "code": "mg/dL"
        },
        "referenceRange": [
          {
            "low": {
              "value": 8.6,
              "code": "mg/dL",
              "system": "http://unitsofmeasure.org"
            }
          },
          {
            "high": {
              "value": 10.2,
              "code": "mg/dL",
              "system": "http://unitsofmeasure.org"
            }
          }
        ],
        "text": {
          "status": "generated",
          "div": "<div xmlns=\"http://www.w3.org/1999/xhtml\"><table class=\"hl7__eu__lab__report\"><tr><th>Test</th><th>26-Sep-2023</th><th>Reference&#xA0;Range</th><th>Unit</th></tr><tr><td>Calcium [Mass/volume] in Blood</td><td>8.6</td><td>8.6 - 10.2</td><td></td><td>mg/dL</td></tr></table></div>"
        },
        "status": "final",
        "subject": {
          "reference": "urn:uuid:839a5fa5-9f23-419e-8f50-9d1c8e5b2204",
          "display": "Khalid Nilsson"
        },
        "effectiveDateTime": "2023-09-25T23:04:23Z",
        "specimen": {
          "reference": "urn:uuid:dd14322a-e3dc-4cde-83dd-d6e561ebcd1d"
        }
      }
    },
    {
      "fullUrl": "urn:uuid:300a0c9e-554c-47a6-b13f-b3a93a77f98b",
      "resource": {
        "resourceType": "Observation",
        "id": "300a0c9e-554c-47a6-b13f-b3a93a77f98b",
        "meta": {
          "profile": [
            "http://hl7.eu/fhir/laboratory/StructureDefinition/Observation-resultslab-eu-lab"
          ]
        },
        "performer": [
          {
            "display": "The Central European Lab"
          }
        ],
        "category": [
          {
            "coding": [
              {
                "system": "http://terminology.hl7.org/CodeSystem/observation-category",
                "code": "laboratory"
              }
            ]
          }
        ],
        "code": {
          "coding": [
            {
              "code": "2947-0",
              "system": "http://loinc.org",
              "display": "Sodium [Moles/volume] in Blood"
            }
          ],
          "text": "Sodium [Moles/volume] in Blood"
        },
        "valueQuantity": {
          "system": "http://unitsofmeasure.org",
          "value": 137.4,
          "unit": "mmol/L",
          "code": "mmol/L"
        },
        "referenceRange": [
          {
            "low": {
              "value": 135,
              "code": "mmol/L",
              "system": "http://unitsofmeasure.org"
            }
          },
          {
            "high": {
              "value": 145,
              "code": "mmol/L",
              "system": "http://unitsofmeasure.org"
            }
          }
        ],
        "text": {
          "status": "generated",
          "div": "<div xmlns=\"http://www.w3.org/1999/xhtml\"><table class=\"hl7__eu__lab__report\"><tr><th>Test</th><th>26-Sep-2023</th><th>Reference&#xA0;Range</th><th>Unit</th></tr><tr><td>Sodium [Moles/volume] in Blood</td><td>137.4</td><td>135 - 145</td><td></td><td>mmol/L</td></tr></table></div>"
        },
        "status": "final",
        "subject": {
          "reference": "urn:uuid:839a5fa5-9f23-419e-8f50-9d1c8e5b2204",
          "display": "Khalid Nilsson"
        },
        "effectiveDateTime": "2023-09-25T23:04:23Z",
        "specimen": {
          "reference": "urn:uuid:dd14322a-e3dc-4cde-83dd-d6e561ebcd1d"
        }
      }
    },
    {
      "fullUrl": "urn:uuid:c68338df-4312-41dd-b52c-911595ec093e",
      "resource": {
        "resourceType": "Observation",
        "id": "c68338df-4312-41dd-b52c-911595ec093e",
        "meta": {
          "profile": [
            "http://hl7.eu/fhir/laboratory/StructureDefinition/Observation-resultslab-eu-lab"
          ]
        },
        "performer": [
          {
            "display": "The Central European Lab"
          }
        ],
        "category": [
          {
            "coding": [
              {
                "system": "http://terminology.hl7.org/CodeSystem/observation-category",
                "code": "laboratory"
              }
            ]
          }
        ],
        "code": {
          "coding": [
            {
              "code": "6298-4",
              "system": "http://loinc.org",
              "display": "Potassium [Moles/volume] in Blood"
            }
          ],
          "text": "Potassium [Moles/volume] in Blood"
        },
        "valueQuantity": {
          "system": "http://unitsofmeasure.org",
          "value": 4.5,
          "unit": "mmol/L",
          "code": "mmol/L"
        },
        "referenceRange": [
          {
            "low": {
              "value": 3.5,
              "code": "mmol/L",
              "system": "http://unitsofmeasure.org"
            }
          },
          {
            "high": {
              "value": 5.1,
              "code": "mmol/L",
              "system": "http://unitsofmeasure.org"
            }
          }
        ],
        "text": {
          "status": "generated",
          "div": "<div xmlns=\"http://www.w3.org/1999/xhtml\"><table class=\"hl7__eu__lab__report\"><tr><th>Test</th><th>26-Sep-2023</th><th>Reference&#xA0;Range</th><th>Unit</th></tr><tr><td>Potassium [Moles/volume] in Blood</td><td>4.5</td><td>3.5 - 5.1</td><td></td><td>mmol/L</td></tr></table></div>"
        },
        "status": "final",
        "subject": {
          "reference": "urn:uuid:839a5fa5-9f23-419e-8f50-9d1c8e5b2204",
          "display": "Khalid Nilsson"
        },
        "effectiveDateTime": "2023-09-25T23:04:23Z",
        "specimen": {
          "reference": "urn:uuid:dd14322a-e3dc-4cde-83dd-d6e561ebcd1d"
        }
      }
    },
    {
      "fullUrl": "urn:uuid:f0ae5ab9-ce50-494b-ad66-4ecca7003e58",
      "resource": {
        "resourceType": "Observation",
        "id": "f0ae5ab9-ce50-494b-ad66-4ecca7003e58",
        "meta": {
          "profile": [
            "http://hl7.eu/fhir/laboratory/StructureDefinition/Observation-resultslab-eu-lab"
          ]
        },
        "performer": [
          {
            "display": "The Central European Lab"
          }
        ],
        "category": [
          {
            "coding": [
              {
                "system": "http://terminology.hl7.org/CodeSystem/observation-category",
                "code": "laboratory"
              }
            ]
          }
        ],
        "code": {
          "coding": [
            {
              "code": "2069-3",
              "system": "http://loinc.org",
              "display": "Chloride [Moles/volume] in Blood"
            }
          ],
          "text": "Chloride [Moles/volume] in Blood"
        },
        "valueQuantity": {
          "system": "http://unitsofmeasure.org",
          "value": 104.1,
          "unit": "mmol/L",
          "code": "mmol/L"
        },
        "referenceRange": [
          {
            "low": {
              "value": 98,
              "code": "mmol/L",
              "system": "http://unitsofmeasure.org"
            }
          },
          {
            "high": {
              "value": 108,
              "code": "mmol/L",
              "system": "http://unitsofmeasure.org"
            }
          }
        ],
        "text": {
          "status": "generated",
          "div": "<div xmlns=\"http://www.w3.org/1999/xhtml\"><table class=\"hl7__eu__lab__report\"><tr><th>Test</th><th>26-Sep-2023</th><th>Reference&#xA0;Range</th><th>Unit</th></tr><tr><td>Chloride [Moles/volume] in Blood</td><td>104.1</td><td>98 - 108</td><td></td><td>mmol/L</td></tr></table></div>"
        },
        "status": "final",
        "subject": {
          "reference": "urn:uuid:839a5fa5-9f23-419e-8f50-9d1c8e5b2204",
          "display": "Khalid Nilsson"
        },
        "effectiveDateTime": "2023-09-25T23:04:23Z",
        "specimen": {
          "reference": "urn:uuid:dd14322a-e3dc-4cde-83dd-d6e561ebcd1d"
        }
      }
    },
    {
      "fullUrl": "urn:uuid:2d10f9e6-7c77-4e87-837b-22835a54c7ca",
      "resource": {
        "resourceType": "Observation",
        "id": "2d10f9e6-7c77-4e87-837b-22835a54c7ca",
        "meta": {
          "profile": [
            "http://hl7.eu/fhir/laboratory/StructureDefinition/Observation-resultslab-eu-lab"
          ]
        },
        "performer": [
          {
            "display": "The Central European Lab"
          }
        ],
        "category": [
          {
            "coding": [
              {
                "system": "http://terminology.hl7.org/CodeSystem/observation-category",
                "code": "laboratory"
              }
            ]
          }
        ],
        "code": {
          "coding": [
            {
              "code": "20565-8",
              "system": "http://loinc.org",
              "display": "Carbon dioxide, total [Moles/volume] in Blood"
            }
          ],
          "text": "Carbon dioxide, total [Moles/volume] in Blood"
        },
        "valueQuantity": {
          "system": "http://unitsofmeasure.org",
          "value": 22.4,
          "unit": "mmol/L",
          "code": "mmol/L"
        },
        "referenceRange": [
          {
            "low": {
              "value": 22,
              "code": "mmol/L",
              "system": "http://unitsofmeasure.org"
            }
          },
          {
            "high": {
              "value": 29,
              "code": "mmol/L",
              "system": "http://unitsofmeasure.org"
            }
          }
        ],
        "text": {
          "status": "generated",
          "div": "<div xmlns=\"http://www.w3.org/1999/xhtml\"><table class=\"hl7__eu__lab__report\"><tr><th>Test</th><th>26-Sep-2023</th><th>Reference&#xA0;Range</th><th>Unit</th></tr><tr><td>Carbon dioxide, total [Moles/volume] in Blood</td><td>22.4</td><td>22 - 29</td><td></td><td>mmol/L</td></tr></table></div>"
        },
        "status": "final",
        "subject": {
          "reference": "urn:uuid:839a5fa5-9f23-419e-8f50-9d1c8e5b2204",
          "display": "Khalid Nilsson"
        },
        "effectiveDateTime": "2023-09-25T23:04:23Z",
        "specimen": {
          "reference": "urn:uuid:dd14322a-e3dc-4cde-83dd-d6e561ebcd1d"
        }
      }
    },
    {
      "fullUrl": "urn:uuid:ad8c7779-a595-444a-b620-8b3d59aca382",
      "resource": {
        "resourceType": "Device",
        "id": "ad8c7779-a595-444a-b620-8b3d59aca382",
        "deviceName": [
          {
            "name": "SYNDERAI Synthetic Generator",
            "type": "manufacturer-name"
          }
        ],
        "version": [
          {
            "value": "5.0"
          }
        ],
        "text": {
          "status": "generated",
          "div": "<div xmlns=\"http://www.w3.org/1999/xhtml\">SYNDERAI Synthetic Generator v5.0</div>"
        },
        "status": "active\"",
        "distinctIdentifier": "synderai-generator-50",
        "manufacturer": "SYNDERAI Project"
      }
    },
    {
      "fullUrl": "urn:uuid:b4917234-93cc-422f-a7a0-25062460ddd7",
      "resource": {
        "resourceType": "Provenance",
        "id": "b4917234-93cc-422f-a7a0-25062460ddd7",
        "target": [
          {
            "reference": "Patient/839a5fa5-9f23-419e-8f50-9d1c8e5b2204"
          },
          {
            "reference": "Bundle/fd602520-acf9-46cb-b74f-e829f0b8fd31"
          },
          {
            "reference": "Composition/74ecb3c8-1996-416c-9492-2a3e8b369028"
          },
          {
            "reference": "PractitionerRole/4da81b69-b517-4cce-8f7e-34d3c85e00ef"
          },
          {
            "reference": "Practitioner/89fdbcce-4435-4b5f-a9b6-429dd692c41b"
          },
          {
            "reference": "PractitionerRole/53da4633-1d6a-41ce-a162-481cf6a937ba"
          },
          {
            "reference": "Organization/a06bd07e-f633-45b2-b5b1-e0d659300898"
          }
        ],
        "activity": {
          "text": "Synthetic Example Data Generation"
        },
        "policy": [
          "https://synderai.net/synderai-synthetic-data-policy"
        ],
        "agent": [
          {
            "type": {
              "text": "author"
            },
            "who": {
              "reference": "Device/ad8c7779-a595-444a-b620-8b3d59aca382"
            }
          }
        ],
        "reason": [
          {
            "text": "Interoperability Testing and Training (non-clinical use)"
          }
        ],
        "text": {
          "status": "generated",
          "div": "<div xmlns=\"http://www.w3.org/1999/xhtml\">Provenance for SYNDERAI Synthetic Example Data Resource</div>"
        },
        "recorded": "2023-09-26T01:04:23Z"
      }
    },
    {
      "fullUrl": "urn:uuid:4da81b69-b517-4cce-8f7e-34d3c85e00ef",
      "resource": {
        "resourceType": "PractitionerRole",
        "id": "4da81b69-b517-4cce-8f7e-34d3c85e00ef",
        "meta": {
          "profile": [
            "http://hl7.eu/fhir/base/StructureDefinition/practitionerRole-eu"
          ]
        },
        "text": {
          "status": "generated",
          "div": "<div xmlns=\"http://www.w3.org/1999/xhtml\">Laboratory Role Id: 4da81b69-b517-4cce-8f7e-34d3c85e00ef</div>"
        },
        "practitioner": {
          "reference": "urn:uuid:89fdbcce-4435-4b5f-a9b6-429dd692c41b"
        }
      }
    },
    {
      "fullUrl": "urn:uuid:89fdbcce-4435-4b5f-a9b6-429dd692c41b",
      "resource": {
        "resourceType": "Practitioner",
        "id": "89fdbcce-4435-4b5f-a9b6-429dd692c41b",
        "meta": {
          "profile": [
            "http://hl7.eu/fhir/base/StructureDefinition/practitioner-eu"
          ]
        },
        "identifier": [
          {
            "assigner": {
              "display": "HL7 Europe"
            },
            "system": "urn:oid:2.16.840.1.113883.2.51.999",
            "value": "73f90f97-39e7-4ecc-b5e8-018eff78b288"
          }
        ],
        "name": [
          {
            "prefix": [
              "dr"
            ],
            "given": [
              "Ex"
            ],
            "family": "Ample"
          }
        ],
        "address": [
          {
            "line": [
              "Laboratoire Central Européenne",
              "Boulevard du Jardin Botanique 32"
            ],
            "postalCode": "1000",
            "city": "Brussels",
            "country": "Belgium"
          }
        ],
        "text": {
          "status": "generated",
          "div": "<div xmlns=\"http://www.w3.org/1999/xhtml\">Laboratory: Laboratoire Central Européenne, 1000 Brussels, Belgium</div>"
        }
      }
    }
  ],
  "type": "document",
  "timestamp": "2023-09-26T01:04:23Z"
}
