{
  "resourceType": "Bundle",
  "id": "5607915b-b9ef-486c-8f61-ce991e3c0c48",
  "meta": {
    "profile": [
      "http://hl7.eu/fhir/laboratory/StructureDefinition/Bundle-eu-lab"
    ]
  },
  "identifier": {
    "assigner": {
      "display": "HL7 Europe"
    },
    "system": "urn:oid:2.16.840.1.113883.2.51.999",
    "value": "79ed6dbd-f651-4b54-8c1d-348387a50cf3"
  },
  "entry": [
    {
      "fullUrl": "urn:uuid:508cf2f7-7e7b-444d-b8d7-0e8d4e6e944f",
      "resource": {
        "resourceType": "Composition",
        "id": "508cf2f7-7e7b-444d-b8d7-0e8d4e6e944f",
        "meta": {
          "profile": [
            "http://hl7.eu/fhir/laboratory/StructureDefinition/Composition-eu-lab"
          ]
        },
        "identifier": {
          "assigner": {
            "display": "HL7 Europe"
          },
          "system": "urn:oid:2.16.840.1.113883.2.51.999",
          "value": "19b9e80b-902f-434e-a4b3-edb7277b6f16"
        },
        "author": [
          {
            "reference": "urn:uuid:6e6b8d36-a2c2-4ef5-9e4c-c9b526e656d0"
          }
        ],
        "category": [
          {
            "coding": [
              {
                "code": "26436-6",
                "system": "http://loinc.org",
                "display": "Laboratory studies (set)"
              }
            ]
          }
        ],
        "type": {
          "coding": [
            {
              "code": "11502-2",
              "system": "http://loinc.org",
              "display": "Laboratory report"
            }
          ],
          "text": "Laboratory Report"
        },
        "section": [
          {
            "code": {
              "coding": [
                {
                  "code": "26436-6",
                  "system": "http://loinc.org",
                  "display": "Laboratory studies (set)"
                }
              ],
              "text": "Laboratory studies"
            },
            "section": [
              {
                "code": {
                  "coding": [
                    {
                      "code": "$18723-7",
                      "system": "http://loinc.org",
                      "display": "Hematology studies (set)"
                    }
                  ],
                  "text": "Hematology"
                },
                "entry": [
                  {
                    "reference": "urn:uuid:b003f2d2-2b93-4e4c-bad1-2df125873f63"
                  },
                  {
                    "reference": "urn:uuid:d43b7ccd-7bf0-4378-ab57-7b0d16e71843"
                  },
                  {
                    "reference": "urn:uuid:416953a5-a0d4-486f-a7ad-04dafda76121"
                  },
                  {
                    "reference": "urn:uuid:320fea39-9ad4-4a45-b93d-43a0312927bf"
                  },
                  {
                    "reference": "urn:uuid:773bddbc-a46b-45af-8e63-346415709940"
                  },
                  {
                    "reference": "urn:uuid:ef266080-570d-4451-9f63-57482a098341"
                  },
                  {
                    "reference": "urn:uuid:a93c6695-18b8-45da-85bf-5243cb8342f7"
                  },
                  {
                    "reference": "urn:uuid:5b3568ae-6e57-4a20-bc51-54b1d3cfb296"
                  },
                  {
                    "reference": "urn:uuid:394f0e57-8d93-4919-998a-2b5bde530583"
                  },
                  {
                    "reference": "urn:uuid:c7b93686-0d09-428a-a7f8-82e63410c7e7"
                  },
                  {
                    "reference": "urn:uuid:55d26f2e-d8a3-4f34-a336-7fef935f725d"
                  }
                ],
                "text": {
                  "status": "generated",
                  "div": "<div xmlns=\"http://www.w3.org/1999/xhtml\"><h3>Hematology</h3><table class=\"hl7__eu__lab__report\"><thead><tr><th>Test</th><th>10-FEB-2021</th><th>Reference&#xA0;Range</th><th>Unit</th></tr></thead><tbody><tr><td>Leukocytes [#/volume] in Blood by Automated count</td><td>10.5</td><td>3.6 - 10.5</td><td>10*3/uL</td></tr><tr><td>Erythrocytes [#/volume] in Blood by Automated count</td><td>4.4</td><td>3.9 - 5.2</td><td>10*6/uL</td></tr><tr><td>Hemoglobin [Mass/volume] in Blood</td><td>15.7</td><td>12 - 16</td><td>g/dL</td></tr><tr><td>Hematocrit [Volume Fraction] of Blood by Automated count</td><td>38.0</td><td>37 - 52</td><td>%</td></tr><tr><td>MCV [Entitic volume] by Automated count</td><td>91.6</td><td>82 - 98</td><td>fL</td></tr><tr><td>MCH [Entitic mass] by Automated count</td><td>31.5</td><td>27 - 33</td><td>pg</td></tr><tr><td>MCHC [Mass/volume] by Automated count</td><td>33.2</td><td>31 - 36</td><td>g/dL</td></tr><tr><td>Erythrocyte distribution width [Entitic volume] by Automated count</td><td>44.8</td><td>36 - 56</td><td>fL</td></tr><tr><td>Platelets [#/volume] in Blood by Automated count</td><td>197.5</td><td>150 - 450</td><td>10*3/uL</td></tr><tr><td>Platelet distribution width [Entitic volume] in Blood by Automated count</td><td><strong>254.5 H</strong></td><td>11.6 - 17.4</td><td>fL</td></tr><tr><td>Platelet mean volume [Entitic volume] in Blood by Automated count</td><td>10.1</td><td>7.4 - 13.4</td><td>fL</td></tr></tbody></table></div>"
                },
                "title": "Hematology"
              },
              {
                "code": {
                  "coding": [
                    {
                      "code": "$18719-5",
                      "system": "http://loinc.org",
                      "display": "Chemistry studies (set)"
                    }
                  ],
                  "text": "Chemistry"
                },
                "entry": [
                  {
                    "reference": "urn:uuid:c2bfea8c-9b55-4143-bac6-c0eb39429756"
                  },
                  {
                    "reference": "urn:uuid:1bb593d7-3e4f-4fd9-be24-6af5aa3dfc13"
                  },
                  {
                    "reference": "urn:uuid:5843f4c2-0ee4-4183-9d0c-c4a0032845d6"
                  },
                  {
                    "reference": "urn:uuid:8e8c630a-cbd5-49a4-9609-320e77c9a259"
                  },
                  {
                    "reference": "urn:uuid:0d8d5e43-bb4f-4c61-92a7-4edd5e208e9b"
                  },
                  {
                    "reference": "urn:uuid:5d82de72-7287-4c00-bf0e-34e3fc3760cc"
                  },
                  {
                    "reference": "urn:uuid:a69ed170-70d4-449d-8374-a7fc42633d43"
                  },
                  {
                    "reference": "urn:uuid:a1c39113-8ca2-453f-abbd-68b13b811c5c"
                  },
                  {
                    "reference": "urn:uuid:9ec3dc6e-4188-4d38-aac6-9ba5cd9eb56b"
                  }
                ],
                "text": {
                  "status": "generated",
                  "div": "<div xmlns=\"http://www.w3.org/1999/xhtml\"><h3>Chemistry</h3><table class=\"hl7__eu__lab__report\"><thead><tr><th>Test</th><th>10-FEB-2021</th><th>Reference&#xA0;Range</th><th>Unit</th></tr></thead><tbody><tr><td>Hemoglobin A1c/Hemoglobin.total in Blood</td><td>6.0</td><td>4 - 6</td><td>%</td></tr><tr><td>Glucose [Mass/volume] in Blood</td><td>88.1</td><td>70 - 140</td><td>mg/dL</td></tr><tr><td>Urea nitrogen [Mass/volume] in Blood</td><td>7.3</td><td>7 - 50</td><td>mg/dL</td></tr><tr><td>Creatinine [Mass/volume] in Blood</td><td>0.7</td><td>0.5 - 1.3</td><td>mg/dL</td></tr><tr><td>Calcium [Mass/volume] in Blood</td><td>9.1</td><td>8.5 - 10.4</td><td>mg/dL</td></tr><tr><td>Sodium [Moles/volume] in Blood</td><td>144.0</td><td>135 - 145</td><td>mmol/L</td></tr><tr><td>Potassium [Moles/volume] in Blood</td><td>4.7</td><td>3.5 - 5.3</td><td>mmol/L</td></tr><tr><td>Chloride [Moles/volume] in Blood</td><td><strong>110.2 H</strong></td><td>98 - 110</td><td>mmol/L</td></tr><tr><td>Carbon dioxide, total [Moles/volume] in Blood</td><td><strong>20.4 L</strong></td><td>22 - 32</td><td>mmol/L</td></tr></tbody></table></div>"
                },
                "title": "Chemistry"
              }
            ],
            "title": "Laboratory Report"
          },
          {
            "text": {
              "status": "generated",
              "div": "<div xmlns=\"http://www.w3.org/1999/xhtml\"><h3>Annotation</h3><table class=\"hl7__eu__lab__report\"><tr><th>Conclusion and Recommendations based on this report and previous findings known to us</th></tr><tr><td>Most parameters are within normal limits. Mildly elevated chloride and low total CO₂ may suggest a mild non-anion gap metabolic acidosis. Platelet distribution width is high, which may indicate increased platelet size variability, possibly due to reactive or regenerative processes. No significant abnormalities in renal function, glucose control, or hematology. Correlate clinically if symptoms or underlying conditions are present.</td></tr></table></div>"
            },
            "code": {
              "coding": [
                {
                  "system": "http://loinc.org",
                  "code": "48767-8",
                  "display": "Annotation comment"
                }
              ]
            },
            "title": "Annotation comment"
          }
        ],
        "status": "final",
        "subject": {
          "reference": "urn:uuid:46d787ff-9967-4fd6-9cd1-eaf0742ad592",
          "display": "Jele Jurković"
        },
        "date": "2021-02-10T19:07:38Z",
        "title": "Laboratory Report",
        "confidentiality": "N"
      }
    },
    {
      "fullUrl": "urn:uuid:0330ef3a-9516-44de-85c8-d53803fb224f",
      "resource": {
        "resourceType": "DiagnosticReport",
        "id": "0330ef3a-9516-44de-85c8-d53803fb224f",
        "meta": {
          "profile": [
            "http://hl7.eu/fhir/laboratory/StructureDefinition/DiagnosticReport-eu-lab"
          ]
        },
        "identifier": [
          {
            "assigner": {
              "display": "HL7 Europe"
            },
            "system": "urn:oid:2.16.840.1.113883.2.51.999",
            "value": "12f30ad8-6e93-4deb-89b1-83bd4bb93569"
          }
        ],
        "extension": [
          {
            "url": "http://hl7.org/fhir/5.0/StructureDefinition/extension-DiagnosticReport.composition",
            "valueReference": {
              "reference": "urn:uuid:19b9e80b-902f-434e-a4b3-edb7277b6f16"
            }
          }
        ],
        "category": [
          {
            "coding": [
              {
                "code": "26436-6",
                "system": "http://loinc.org",
                "display": "Laboratory studies (set)"
              }
            ]
          }
        ],
        "specimen": [
          {
            "reference": "urn:uuid:067a10dc-51bc-4c82-9851-b1840743ca49"
          },
          {
            "reference": "urn:uuid:067a10dc-51bc-4c82-9851-b1840743ca49"
          }
        ],
        "result": [
          {
            "reference": "urn:uuid:c2bfea8c-9b55-4143-bac6-c0eb39429756"
          },
          {
            "reference": "urn:uuid:1bb593d7-3e4f-4fd9-be24-6af5aa3dfc13"
          },
          {
            "reference": "urn:uuid:5843f4c2-0ee4-4183-9d0c-c4a0032845d6"
          },
          {
            "reference": "urn:uuid:8e8c630a-cbd5-49a4-9609-320e77c9a259"
          },
          {
            "reference": "urn:uuid:0d8d5e43-bb4f-4c61-92a7-4edd5e208e9b"
          },
          {
            "reference": "urn:uuid:5d82de72-7287-4c00-bf0e-34e3fc3760cc"
          },
          {
            "reference": "urn:uuid:a69ed170-70d4-449d-8374-a7fc42633d43"
          },
          {
            "reference": "urn:uuid:a1c39113-8ca2-453f-abbd-68b13b811c5c"
          },
          {
            "reference": "urn:uuid:9ec3dc6e-4188-4d38-aac6-9ba5cd9eb56b"
          },
          {
            "reference": "urn:uuid:b003f2d2-2b93-4e4c-bad1-2df125873f63"
          },
          {
            "reference": "urn:uuid:d43b7ccd-7bf0-4378-ab57-7b0d16e71843"
          },
          {
            "reference": "urn:uuid:416953a5-a0d4-486f-a7ad-04dafda76121"
          },
          {
            "reference": "urn:uuid:320fea39-9ad4-4a45-b93d-43a0312927bf"
          },
          {
            "reference": "urn:uuid:773bddbc-a46b-45af-8e63-346415709940"
          },
          {
            "reference": "urn:uuid:ef266080-570d-4451-9f63-57482a098341"
          },
          {
            "reference": "urn:uuid:a93c6695-18b8-45da-85bf-5243cb8342f7"
          },
          {
            "reference": "urn:uuid:5b3568ae-6e57-4a20-bc51-54b1d3cfb296"
          },
          {
            "reference": "urn:uuid:394f0e57-8d93-4919-998a-2b5bde530583"
          },
          {
            "reference": "urn:uuid:c7b93686-0d09-428a-a7f8-82e63410c7e7"
          },
          {
            "reference": "urn:uuid:55d26f2e-d8a3-4f34-a336-7fef935f725d"
          }
        ],
        "status": "registered",
        "code": {
          "coding": [
            {
              "code": "11502-2",
              "system": "http://loinc.org",
              "display": "Laboratory report"
            }
          ]
        },
        "subject": {
          "reference": "urn:uuid:46d787ff-9967-4fd6-9cd1-eaf0742ad592",
          "display": "Jele Jurković"
        }
      }
    },
    {
      "fullUrl": "urn:uuid:46d787ff-9967-4fd6-9cd1-eaf0742ad592",
      "resource": {
        "resourceType": "Patient",
        "id": "46d787ff-9967-4fd6-9cd1-eaf0742ad592",
        "meta": {
          "security": [
            {
              "system": "http://terminology.hl7.org/CodeSystem/v3-ActReason",
              "code": "HTEST"
            },
            {
              "system": "http://terminology.hl7.org/CodeSystem/v3-ActReason",
              "code": "TRAIN"
            }
          ],
          "tag": [
            {
              "system": "https://synderai.net/fhir/CodeSystem/tags",
              "code": "synthetic",
              "display": "SYNDERAI Synthetic data"
            }
          ],
          "profile": [
            "http://hl7.eu/fhir/base/StructureDefinition/patient-eu-core"
          ]
        },
        "identifier": [
          {
            "type": {
              "coding": [
                {
                  "code": "PT",
                  "system": "http://terminology.hl7.org/CodeSystem/v2-0203"
                }
              ]
            },
            "system": "http://ec.europa.eu/identifier/eci",
            "value": "3583-291434-1"
          },
          {
            "type": {
              "coding": [
                {
                  "code": "MR",
                  "system": "http://terminology.hl7.org/CodeSystem/v2-0203"
                }
              ]
            },
            "system": "http://local.setting.eu/identifier",
            "value": "9d4fea2d-eece-b99f-3e16-832f0f5813f5"
          }
        ],
        "name": [
          {
            "family": "Jurković"
          },
          {
            "given": [
              "Jele"
            ]
          },
          {
            "text": "Jele Jurković"
          }
        ],
        "address": [
          {
            "line": [
              "Klesarski put 7b/8"
            ],
            "use": "home",
            "type": "physical",
            "postalCode": "34310",
            "city": "Pleternica",
            "country": "Croatia"
          }
        ],
        "telecom": [
          {
            "system": "phone",
            "value": "021 083 354"
          }
        ],
        "extension": [
          {
            "url": "http://hl7.org/fhir/StructureDefinition/patient-nationality",
            "valueCodeableConcept": {
              "coding": [
                {
                  "code": "HR",
                  "system": "http://hl7.org/fhir/ValueSet/country"
                }
              ]
            }
          }
        ],
        "text": {
          "status": "generated",
          "div": "<div xmlns=\"http://www.w3.org/1999/xhtml\"><table class=\"hl7__ips\"><tr><td>Jele Jurković</td><td>female</td><td>07-Jan-1953</td></tr></table></div>"
        },
        "gender": "female",
        "birthDate": "1953-01-07"
      }
    },
    {
      "fullUrl": "urn:uuid:801c5f61-9132-4e87-b221-666d187157fd",
      "resource": {
        "resourceType": "ServiceRequest",
        "id": "801c5f61-9132-4e87-b221-666d187157fd",
        "meta": {
          "profile": [
            "http://hl7.eu/fhir/laboratory/StructureDefinition/ServiceRequest-eu-lab"
          ]
        },
        "identifier": [
          {
            "system": "http://example.org",
            "value": "bcda5ac5-6304-410b-8a17-d342ae034e77"
          }
        ],
        "specimen": [
          {
            "reference": "urn:uuid:067a10dc-51bc-4c82-9851-b1840743ca49"
          }
        ],
        "reasonCode": [
          {
            "coding": [
              {
                "code": "64859006",
                "system": "http://snomed.info/sct",
                "display": "Osteoporosis"
              }
            ]
          },
          {
            "coding": [
              {
                "code": "6525002",
                "system": "http://snomed.info/sct",
                "display": "Dependent drug abuse"
              }
            ]
          },
          {
            "coding": [
              {
                "code": "15777000",
                "system": "http://snomed.info/sct",
                "display": "Prediabetes"
              }
            ]
          }
        ],
        "status": "active",
        "intent": "order",
        "code": {
          "coding": [
            {
              "code": "108252007",
              "system": "http://snomed.info/sct",
              "display": "Laboratory procedure"
            }
          ]
        },
        "subject": {
          "reference": "urn:uuid:46d787ff-9967-4fd6-9cd1-eaf0742ad592",
          "display": "Jele Jurković"
        },
        "requester": {
          "reference": "urn:uuid:080f394d-4d87-4cc8-97dd-ea7437b864de"
        }
      }
    },
    {
      "fullUrl": "urn:uuid:080f394d-4d87-4cc8-97dd-ea7437b864de",
      "resource": {
        "resourceType": "PractitionerRole",
        "id": "080f394d-4d87-4cc8-97dd-ea7437b864de",
        "meta": {
          "profile": [
            "http://hl7.eu/fhir/base/StructureDefinition/practitionerRole-eu"
          ]
        },
        "text": {
          "status": "generated",
          "div": "<div xmlns=\"http://www.w3.org/1999/xhtml\">Provider Role Id: 080f394d-4d87-4cc8-97dd-ea7437b864de</div>"
        },
        "organization": {
          "reference": "urn:uuid:c4c1642a-9599-4c4c-97a4-d3debbc31034"
        }
      }
    },
    {
      "fullUrl": "urn:uuid:c4c1642a-9599-4c4c-97a4-d3debbc31034",
      "resource": {
        "resourceType": "Organization",
        "id": "c4c1642a-9599-4c4c-97a4-d3debbc31034",
        "meta": {
          "profile": [
            "http://hl7.eu/fhir/base/StructureDefinition/organization-eu"
          ]
        },
        "identifier": [
          {
            "assigner": {
              "display": "HL7 Europe"
            },
            "system": "urn:oid:2.16.840.1.113883.2.51.999",
            "value": "76484d3c-bd98-4084-9c8a-1635394d55fa"
          }
        ],
        "address": [
          {
            "line": [
              "Osječka ulica 107"
            ],
            "city": "Požega",
            "postalCode": "34000",
            "country": "Croatia"
          }
        ],
        "text": {
          "status": "generated",
          "div": "<div xmlns=\"http://www.w3.org/1999/xhtml\">Provider Organization: Opća županijska bolnica Požega</div>"
        },
        "name": "Opća županijska bolnica Požega"
      }
    },
    {
      "fullUrl": "urn:uuid:067a10dc-51bc-4c82-9851-b1840743ca49",
      "resource": {
        "resourceType": "Specimen",
        "id": "067a10dc-51bc-4c82-9851-b1840743ca49",
        "meta": {
          "profile": [
            "http://hl7.eu/fhir/laboratory/StructureDefinition/Specimen-eu-lab"
          ]
        },
        "collection": {
          "collectedDateTime": "2021-02-10"
        },
        "text": {
          "status": "generated",
          "div": "<div xmlns=\"http://www.w3.org/1999/xhtml\"><table class=\"hl7__eu__lab__report\"><tr><th>Specimen</th><th>Collection Date</th></tr><tr><td>Whole blood specimen (specimen)</td><td><span class=\"nb\">10-Feb-2021</span></td></tr></table></div>"
        },
        "type": {
          "coding": [
            {
              "code": "258580003",
              "system": "http://snomed.info/sct",
              "display": "Whole blood specimen (specimen)"
            }
          ]
        }
      }
    },
    {
      "fullUrl": "urn:uuid:067a10dc-51bc-4c82-9851-b1840743ca49",
      "resource": {
        "resourceType": "Specimen",
        "id": "067a10dc-51bc-4c82-9851-b1840743ca49",
        "meta": {
          "profile": [
            "http://hl7.eu/fhir/laboratory/StructureDefinition/Specimen-eu-lab"
          ]
        },
        "collection": {
          "collectedDateTime": "2021-02-10"
        },
        "text": {
          "status": "generated",
          "div": "<div xmlns=\"http://www.w3.org/1999/xhtml\"><table class=\"hl7__eu__lab__report\"><tr><th>Specimen</th><th>Collection Date</th></tr><tr><td>Whole blood specimen (specimen)</td><td><span class=\"nb\">10-Feb-2021</span></td></tr></table></div>"
        },
        "type": {
          "coding": [
            {
              "code": "258580003",
              "system": "http://snomed.info/sct",
              "display": "Whole blood specimen (specimen)"
            }
          ]
        }
      }
    },
    {
      "fullUrl": "urn:uuid:c2bfea8c-9b55-4143-bac6-c0eb39429756",
      "resource": {
        "resourceType": "Observation",
        "id": "c2bfea8c-9b55-4143-bac6-c0eb39429756",
        "meta": {
          "profile": [
            "http://hl7.eu/fhir/laboratory/StructureDefinition/Observation-resultslab-eu-lab"
          ]
        },
        "performer": [
          {
            "display": "The Central European Lab"
          }
        ],
        "category": [
          {
            "coding": [
              {
                "system": "http://terminology.hl7.org/CodeSystem/observation-category",
                "code": "laboratory"
              }
            ]
          }
        ],
        "code": {
          "coding": [
            {
              "code": "4548-4",
              "system": "http://loinc.org",
              "display": "Hemoglobin A1c/Hemoglobin.total in Blood"
            }
          ],
          "text": "Hemoglobin A1c/Hemoglobin.total in Blood"
        },
        "valueQuantity": {
          "system": "http://unitsofmeasure.org",
          "value": 6,
          "unit": "%",
          "code": "%"
        },
        "referenceRange": [
          {
            "low": {
              "value": 4,
              "code": "%",
              "system": "http://unitsofmeasure.org"
            }
          },
          {
            "high": {
              "value": 6,
              "code": "%",
              "system": "http://unitsofmeasure.org"
            }
          }
        ],
        "text": {
          "status": "generated",
          "div": "<div xmlns=\"http://www.w3.org/1999/xhtml\"><table class=\"hl7__eu__lab__report\"><tr><th>Test</th><th>10-Feb-2021</th><th>Reference&#xA0;Range</th><th>Unit</th></tr><tr><td>Hemoglobin A1c/Hemoglobin.total in Blood</td><td>6.0</td><td>4 - 6</td><td></td><td>%</td></tr></table></div>"
        },
        "status": "final",
        "subject": {
          "reference": "urn:uuid:46d787ff-9967-4fd6-9cd1-eaf0742ad592",
          "display": "Jele Jurković"
        },
        "effectiveDateTime": "2021-02-10T18:07:38Z",
        "specimen": {
          "reference": "urn:uuid:067a10dc-51bc-4c82-9851-b1840743ca49"
        }
      }
    },
    {
      "fullUrl": "urn:uuid:1bb593d7-3e4f-4fd9-be24-6af5aa3dfc13",
      "resource": {
        "resourceType": "Observation",
        "id": "1bb593d7-3e4f-4fd9-be24-6af5aa3dfc13",
        "meta": {
          "profile": [
            "http://hl7.eu/fhir/laboratory/StructureDefinition/Observation-resultslab-eu-lab"
          ]
        },
        "performer": [
          {
            "display": "The Central European Lab"
          }
        ],
        "category": [
          {
            "coding": [
              {
                "system": "http://terminology.hl7.org/CodeSystem/observation-category",
                "code": "laboratory"
              }
            ]
          }
        ],
        "code": {
          "coding": [
            {
              "code": "2339-0",
              "system": "http://loinc.org",
              "display": "Glucose [Mass/volume] in Blood"
            }
          ],
          "text": "Glucose [Mass/volume] in Blood"
        },
        "valueQuantity": {
          "system": "http://unitsofmeasure.org",
          "value": 88.1,
          "unit": "mg/dL",
          "code": "mg/dL"
        },
        "referenceRange": [
          {
            "low": {
              "value": 70,
              "code": "mg/dL",
              "system": "http://unitsofmeasure.org"
            }
          },
          {
            "high": {
              "value": 140,
              "code": "mg/dL",
              "system": "http://unitsofmeasure.org"
            }
          }
        ],
        "text": {
          "status": "generated",
          "div": "<div xmlns=\"http://www.w3.org/1999/xhtml\"><table class=\"hl7__eu__lab__report\"><tr><th>Test</th><th>10-Feb-2021</th><th>Reference&#xA0;Range</th><th>Unit</th></tr><tr><td>Glucose [Mass/volume] in Blood</td><td>88.1</td><td>70 - 140</td><td></td><td>mg/dL</td></tr></table></div>"
        },
        "status": "final",
        "subject": {
          "reference": "urn:uuid:46d787ff-9967-4fd6-9cd1-eaf0742ad592",
          "display": "Jele Jurković"
        },
        "effectiveDateTime": "2021-02-10T18:07:38Z",
        "specimen": {
          "reference": "urn:uuid:067a10dc-51bc-4c82-9851-b1840743ca49"
        }
      }
    },
    {
      "fullUrl": "urn:uuid:5843f4c2-0ee4-4183-9d0c-c4a0032845d6",
      "resource": {
        "resourceType": "Observation",
        "id": "5843f4c2-0ee4-4183-9d0c-c4a0032845d6",
        "meta": {
          "profile": [
            "http://hl7.eu/fhir/laboratory/StructureDefinition/Observation-resultslab-eu-lab"
          ]
        },
        "performer": [
          {
            "display": "The Central European Lab"
          }
        ],
        "category": [
          {
            "coding": [
              {
                "system": "http://terminology.hl7.org/CodeSystem/observation-category",
                "code": "laboratory"
              }
            ]
          }
        ],
        "code": {
          "coding": [
            {
              "code": "6299-2",
              "system": "http://loinc.org",
              "display": "Urea nitrogen [Mass/volume] in Blood"
            }
          ],
          "text": "Urea nitrogen [Mass/volume] in Blood"
        },
        "valueQuantity": {
          "system": "http://unitsofmeasure.org",
          "value": 7.3,
          "unit": "mg/dL",
          "code": "mg/dL"
        },
        "referenceRange": [
          {
            "low": {
              "value": 7,
              "code": "mg/dL",
              "system": "http://unitsofmeasure.org"
            }
          },
          {
            "high": {
              "value": 50,
              "code": "mg/dL",
              "system": "http://unitsofmeasure.org"
            }
          }
        ],
        "text": {
          "status": "generated",
          "div": "<div xmlns=\"http://www.w3.org/1999/xhtml\"><table class=\"hl7__eu__lab__report\"><tr><th>Test</th><th>10-Feb-2021</th><th>Reference&#xA0;Range</th><th>Unit</th></tr><tr><td>Urea nitrogen [Mass/volume] in Blood</td><td>7.3</td><td>7 - 50</td><td></td><td>mg/dL</td></tr></table></div>"
        },
        "status": "final",
        "subject": {
          "reference": "urn:uuid:46d787ff-9967-4fd6-9cd1-eaf0742ad592",
          "display": "Jele Jurković"
        },
        "effectiveDateTime": "2021-02-10T18:07:38Z",
        "specimen": {
          "reference": "urn:uuid:067a10dc-51bc-4c82-9851-b1840743ca49"
        }
      }
    },
    {
      "fullUrl": "urn:uuid:8e8c630a-cbd5-49a4-9609-320e77c9a259",
      "resource": {
        "resourceType": "Observation",
        "id": "8e8c630a-cbd5-49a4-9609-320e77c9a259",
        "meta": {
          "profile": [
            "http://hl7.eu/fhir/laboratory/StructureDefinition/Observation-resultslab-eu-lab"
          ]
        },
        "performer": [
          {
            "display": "The Central European Lab"
          }
        ],
        "category": [
          {
            "coding": [
              {
                "system": "http://terminology.hl7.org/CodeSystem/observation-category",
                "code": "laboratory"
              }
            ]
          }
        ],
        "code": {
          "coding": [
            {
              "code": "38483-4",
              "system": "http://loinc.org",
              "display": "Creatinine [Mass/volume] in Blood"
            }
          ],
          "text": "Creatinine [Mass/volume] in Blood"
        },
        "valueQuantity": {
          "system": "http://unitsofmeasure.org",
          "value": 0.7,
          "unit": "mg/dL",
          "code": "mg/dL"
        },
        "referenceRange": [
          {
            "low": {
              "value": 0.5,
              "code": "mg/dL",
              "system": "http://unitsofmeasure.org"
            }
          },
          {
            "high": {
              "value": 1.3,
              "code": "mg/dL",
              "system": "http://unitsofmeasure.org"
            }
          }
        ],
        "text": {
          "status": "generated",
          "div": "<div xmlns=\"http://www.w3.org/1999/xhtml\"><table class=\"hl7__eu__lab__report\"><tr><th>Test</th><th>10-Feb-2021</th><th>Reference&#xA0;Range</th><th>Unit</th></tr><tr><td>Creatinine [Mass/volume] in Blood</td><td>0.7</td><td>0.5 - 1.3</td><td></td><td>mg/dL</td></tr></table></div>"
        },
        "status": "final",
        "subject": {
          "reference": "urn:uuid:46d787ff-9967-4fd6-9cd1-eaf0742ad592",
          "display": "Jele Jurković"
        },
        "effectiveDateTime": "2021-02-10T18:07:38Z",
        "specimen": {
          "reference": "urn:uuid:067a10dc-51bc-4c82-9851-b1840743ca49"
        }
      }
    },
    {
      "fullUrl": "urn:uuid:0d8d5e43-bb4f-4c61-92a7-4edd5e208e9b",
      "resource": {
        "resourceType": "Observation",
        "id": "0d8d5e43-bb4f-4c61-92a7-4edd5e208e9b",
        "meta": {
          "profile": [
            "http://hl7.eu/fhir/laboratory/StructureDefinition/Observation-resultslab-eu-lab"
          ]
        },
        "performer": [
          {
            "display": "The Central European Lab"
          }
        ],
        "category": [
          {
            "coding": [
              {
                "system": "http://terminology.hl7.org/CodeSystem/observation-category",
                "code": "laboratory"
              }
            ]
          }
        ],
        "code": {
          "coding": [
            {
              "code": "49765-1",
              "system": "http://loinc.org",
              "display": "Calcium [Mass/volume] in Blood"
            }
          ],
          "text": "Calcium [Mass/volume] in Blood"
        },
        "valueQuantity": {
          "system": "http://unitsofmeasure.org",
          "value": 9.1,
          "unit": "mg/dL",
          "code": "mg/dL"
        },
        "referenceRange": [
          {
            "low": {
              "value": 8.5,
              "code": "mg/dL",
              "system": "http://unitsofmeasure.org"
            }
          },
          {
            "high": {
              "value": 10.4,
              "code": "mg/dL",
              "system": "http://unitsofmeasure.org"
            }
          }
        ],
        "text": {
          "status": "generated",
          "div": "<div xmlns=\"http://www.w3.org/1999/xhtml\"><table class=\"hl7__eu__lab__report\"><tr><th>Test</th><th>10-Feb-2021</th><th>Reference&#xA0;Range</th><th>Unit</th></tr><tr><td>Calcium [Mass/volume] in Blood</td><td>9.1</td><td>8.5 - 10.4</td><td></td><td>mg/dL</td></tr></table></div>"
        },
        "status": "final",
        "subject": {
          "reference": "urn:uuid:46d787ff-9967-4fd6-9cd1-eaf0742ad592",
          "display": "Jele Jurković"
        },
        "effectiveDateTime": "2021-02-10T18:07:38Z",
        "specimen": {
          "reference": "urn:uuid:067a10dc-51bc-4c82-9851-b1840743ca49"
        }
      }
    },
    {
      "fullUrl": "urn:uuid:5d82de72-7287-4c00-bf0e-34e3fc3760cc",
      "resource": {
        "resourceType": "Observation",
        "id": "5d82de72-7287-4c00-bf0e-34e3fc3760cc",
        "meta": {
          "profile": [
            "http://hl7.eu/fhir/laboratory/StructureDefinition/Observation-resultslab-eu-lab"
          ]
        },
        "performer": [
          {
            "display": "The Central European Lab"
          }
        ],
        "category": [
          {
            "coding": [
              {
                "system": "http://terminology.hl7.org/CodeSystem/observation-category",
                "code": "laboratory"
              }
            ]
          }
        ],
        "code": {
          "coding": [
            {
              "code": "2947-0",
              "system": "http://loinc.org",
              "display": "Sodium [Moles/volume] in Blood"
            }
          ],
          "text": "Sodium [Moles/volume] in Blood"
        },
        "valueQuantity": {
          "system": "http://unitsofmeasure.org",
          "value": 144,
          "unit": "mmol/L",
          "code": "mmol/L"
        },
        "referenceRange": [
          {
            "low": {
              "value": 135,
              "code": "mmol/L",
              "system": "http://unitsofmeasure.org"
            }
          },
          {
            "high": {
              "value": 145,
              "code": "mmol/L",
              "system": "http://unitsofmeasure.org"
            }
          }
        ],
        "text": {
          "status": "generated",
          "div": "<div xmlns=\"http://www.w3.org/1999/xhtml\"><table class=\"hl7__eu__lab__report\"><tr><th>Test</th><th>10-Feb-2021</th><th>Reference&#xA0;Range</th><th>Unit</th></tr><tr><td>Sodium [Moles/volume] in Blood</td><td>144.0</td><td>135 - 145</td><td></td><td>mmol/L</td></tr></table></div>"
        },
        "status": "final",
        "subject": {
          "reference": "urn:uuid:46d787ff-9967-4fd6-9cd1-eaf0742ad592",
          "display": "Jele Jurković"
        },
        "effectiveDateTime": "2021-02-10T18:07:38Z",
        "specimen": {
          "reference": "urn:uuid:067a10dc-51bc-4c82-9851-b1840743ca49"
        }
      }
    },
    {
      "fullUrl": "urn:uuid:a69ed170-70d4-449d-8374-a7fc42633d43",
      "resource": {
        "resourceType": "Observation",
        "id": "a69ed170-70d4-449d-8374-a7fc42633d43",
        "meta": {
          "profile": [
            "http://hl7.eu/fhir/laboratory/StructureDefinition/Observation-resultslab-eu-lab"
          ]
        },
        "performer": [
          {
            "display": "The Central European Lab"
          }
        ],
        "category": [
          {
            "coding": [
              {
                "system": "http://terminology.hl7.org/CodeSystem/observation-category",
                "code": "laboratory"
              }
            ]
          }
        ],
        "code": {
          "coding": [
            {
              "code": "6298-4",
              "system": "http://loinc.org",
              "display": "Potassium [Moles/volume] in Blood"
            }
          ],
          "text": "Potassium [Moles/volume] in Blood"
        },
        "valueQuantity": {
          "system": "http://unitsofmeasure.org",
          "value": 4.7,
          "unit": "mmol/L",
          "code": "mmol/L"
        },
        "referenceRange": [
          {
            "low": {
              "value": 3.5,
              "code": "mmol/L",
              "system": "http://unitsofmeasure.org"
            }
          },
          {
            "high": {
              "value": 5.3,
              "code": "mmol/L",
              "system": "http://unitsofmeasure.org"
            }
          }
        ],
        "text": {
          "status": "generated",
          "div": "<div xmlns=\"http://www.w3.org/1999/xhtml\"><table class=\"hl7__eu__lab__report\"><tr><th>Test</th><th>10-Feb-2021</th><th>Reference&#xA0;Range</th><th>Unit</th></tr><tr><td>Potassium [Moles/volume] in Blood</td><td>4.7</td><td>3.5 - 5.3</td><td></td><td>mmol/L</td></tr></table></div>"
        },
        "status": "final",
        "subject": {
          "reference": "urn:uuid:46d787ff-9967-4fd6-9cd1-eaf0742ad592",
          "display": "Jele Jurković"
        },
        "effectiveDateTime": "2021-02-10T18:07:38Z",
        "specimen": {
          "reference": "urn:uuid:067a10dc-51bc-4c82-9851-b1840743ca49"
        }
      }
    },
    {
      "fullUrl": "urn:uuid:a1c39113-8ca2-453f-abbd-68b13b811c5c",
      "resource": {
        "resourceType": "Observation",
        "id": "a1c39113-8ca2-453f-abbd-68b13b811c5c",
        "meta": {
          "profile": [
            "http://hl7.eu/fhir/laboratory/StructureDefinition/Observation-resultslab-eu-lab"
          ]
        },
        "performer": [
          {
            "display": "The Central European Lab"
          }
        ],
        "category": [
          {
            "coding": [
              {
                "system": "http://terminology.hl7.org/CodeSystem/observation-category",
                "code": "laboratory"
              }
            ]
          }
        ],
        "code": {
          "coding": [
            {
              "code": "2069-3",
              "system": "http://loinc.org",
              "display": "Chloride [Moles/volume] in Blood"
            }
          ],
          "text": "Chloride [Moles/volume] in Blood"
        },
        "valueQuantity": {
          "system": "http://unitsofmeasure.org",
          "value": 110.2,
          "unit": "mmol/L",
          "code": "mmol/L"
        },
        "referenceRange": [
          {
            "low": {
              "value": 98,
              "code": "mmol/L",
              "system": "http://unitsofmeasure.org"
            }
          },
          {
            "high": {
              "value": 110,
              "code": "mmol/L",
              "system": "http://unitsofmeasure.org"
            }
          }
        ],
        "interpretation": [
          {
            "coding": [
              {
                "code": "H",
                "system": "http://terminology.hl7.org/CodeSystem/v3-ObservationInterpretation",
                "display": "High"
              }
            ]
          }
        ],
        "text": {
          "status": "generated",
          "div": "<div xmlns=\"http://www.w3.org/1999/xhtml\"><table class=\"hl7__eu__lab__report\"><tr><th>Test</th><th>10-Feb-2021</th><th>Reference&#xA0;Range</th><th>Unit</th></tr><tr><td>Chloride [Moles/volume] in Blood</td><td>110.2</td><td>98 - 110</td><td>H</td><td>mmol/L</td></tr></table></div>"
        },
        "status": "final",
        "subject": {
          "reference": "urn:uuid:46d787ff-9967-4fd6-9cd1-eaf0742ad592",
          "display": "Jele Jurković"
        },
        "effectiveDateTime": "2021-02-10T18:07:38Z",
        "specimen": {
          "reference": "urn:uuid:067a10dc-51bc-4c82-9851-b1840743ca49"
        }
      }
    },
    {
      "fullUrl": "urn:uuid:9ec3dc6e-4188-4d38-aac6-9ba5cd9eb56b",
      "resource": {
        "resourceType": "Observation",
        "id": "9ec3dc6e-4188-4d38-aac6-9ba5cd9eb56b",
        "meta": {
          "profile": [
            "http://hl7.eu/fhir/laboratory/StructureDefinition/Observation-resultslab-eu-lab"
          ]
        },
        "performer": [
          {
            "display": "The Central European Lab"
          }
        ],
        "category": [
          {
            "coding": [
              {
                "system": "http://terminology.hl7.org/CodeSystem/observation-category",
                "code": "laboratory"
              }
            ]
          }
        ],
        "code": {
          "coding": [
            {
              "code": "20565-8",
              "system": "http://loinc.org",
              "display": "Carbon dioxide, total [Moles/volume] in Blood"
            }
          ],
          "text": "Carbon dioxide, total [Moles/volume] in Blood"
        },
        "valueQuantity": {
          "system": "http://unitsofmeasure.org",
          "value": 20.4,
          "unit": "mmol/L",
          "code": "mmol/L"
        },
        "referenceRange": [
          {
            "low": {
              "value": 22,
              "code": "mmol/L",
              "system": "http://unitsofmeasure.org"
            }
          },
          {
            "high": {
              "value": 32,
              "code": "mmol/L",
              "system": "http://unitsofmeasure.org"
            }
          }
        ],
        "interpretation": [
          {
            "coding": [
              {
                "code": "L",
                "system": "http://terminology.hl7.org/CodeSystem/v3-ObservationInterpretation",
                "display": "Low"
              }
            ]
          }
        ],
        "text": {
          "status": "generated",
          "div": "<div xmlns=\"http://www.w3.org/1999/xhtml\"><table class=\"hl7__eu__lab__report\"><tr><th>Test</th><th>10-Feb-2021</th><th>Reference&#xA0;Range</th><th>Unit</th></tr><tr><td>Carbon dioxide, total [Moles/volume] in Blood</td><td>20.4</td><td>22 - 32</td><td>L</td><td>mmol/L</td></tr></table></div>"
        },
        "status": "final",
        "subject": {
          "reference": "urn:uuid:46d787ff-9967-4fd6-9cd1-eaf0742ad592",
          "display": "Jele Jurković"
        },
        "effectiveDateTime": "2021-02-10T18:07:38Z",
        "specimen": {
          "reference": "urn:uuid:067a10dc-51bc-4c82-9851-b1840743ca49"
        }
      }
    },
    {
      "fullUrl": "urn:uuid:b003f2d2-2b93-4e4c-bad1-2df125873f63",
      "resource": {
        "resourceType": "Observation",
        "id": "b003f2d2-2b93-4e4c-bad1-2df125873f63",
        "meta": {
          "profile": [
            "http://hl7.eu/fhir/laboratory/StructureDefinition/Observation-resultslab-eu-lab"
          ]
        },
        "performer": [
          {
            "display": "The Central European Lab"
          }
        ],
        "category": [
          {
            "coding": [
              {
                "system": "http://terminology.hl7.org/CodeSystem/observation-category",
                "code": "laboratory"
              }
            ]
          }
        ],
        "code": {
          "coding": [
            {
              "code": "6690-2",
              "system": "http://loinc.org",
              "display": "Leukocytes [#/volume] in Blood by Automated count"
            }
          ],
          "text": "Leukocytes [#/volume] in Blood by Automated count"
        },
        "valueQuantity": {
          "system": "http://unitsofmeasure.org",
          "value": 10.5,
          "unit": "10*3/uL",
          "code": "10*3/uL"
        },
        "referenceRange": [
          {
            "low": {
              "value": 3.6,
              "code": "10*3/uL",
              "system": "http://unitsofmeasure.org"
            }
          },
          {
            "high": {
              "value": 10.5,
              "code": "10*3/uL",
              "system": "http://unitsofmeasure.org"
            }
          }
        ],
        "text": {
          "status": "generated",
          "div": "<div xmlns=\"http://www.w3.org/1999/xhtml\"><table class=\"hl7__eu__lab__report\"><tr><th>Test</th><th>10-Feb-2021</th><th>Reference&#xA0;Range</th><th>Unit</th></tr><tr><td>Leukocytes [#/volume] in Blood by Automated count</td><td>10.5</td><td>3.6 - 10.5</td><td></td><td>10*3/uL</td></tr></table></div>"
        },
        "status": "final",
        "subject": {
          "reference": "urn:uuid:46d787ff-9967-4fd6-9cd1-eaf0742ad592",
          "display": "Jele Jurković"
        },
        "effectiveDateTime": "2021-02-10T18:07:38Z",
        "specimen": {
          "reference": "urn:uuid:067a10dc-51bc-4c82-9851-b1840743ca49"
        }
      }
    },
    {
      "fullUrl": "urn:uuid:d43b7ccd-7bf0-4378-ab57-7b0d16e71843",
      "resource": {
        "resourceType": "Observation",
        "id": "d43b7ccd-7bf0-4378-ab57-7b0d16e71843",
        "meta": {
          "profile": [
            "http://hl7.eu/fhir/laboratory/StructureDefinition/Observation-resultslab-eu-lab"
          ]
        },
        "performer": [
          {
            "display": "The Central European Lab"
          }
        ],
        "category": [
          {
            "coding": [
              {
                "system": "http://terminology.hl7.org/CodeSystem/observation-category",
                "code": "laboratory"
              }
            ]
          }
        ],
        "code": {
          "coding": [
            {
              "code": "789-8",
              "system": "http://loinc.org",
              "display": "Erythrocytes [#/volume] in Blood by Automated count"
            }
          ],
          "text": "Erythrocytes [#/volume] in Blood by Automated count"
        },
        "valueQuantity": {
          "system": "http://unitsofmeasure.org",
          "value": 4.4,
          "unit": "10*6/uL",
          "code": "10*6/uL"
        },
        "referenceRange": [
          {
            "low": {
              "value": 3.9,
              "code": "10*6/uL",
              "system": "http://unitsofmeasure.org"
            }
          },
          {
            "high": {
              "value": 5.2,
              "code": "10*6/uL",
              "system": "http://unitsofmeasure.org"
            }
          }
        ],
        "text": {
          "status": "generated",
          "div": "<div xmlns=\"http://www.w3.org/1999/xhtml\"><table class=\"hl7__eu__lab__report\"><tr><th>Test</th><th>10-Feb-2021</th><th>Reference&#xA0;Range</th><th>Unit</th></tr><tr><td>Erythrocytes [#/volume] in Blood by Automated count</td><td>4.4</td><td>3.9 - 5.2</td><td></td><td>10*6/uL</td></tr></table></div>"
        },
        "status": "final",
        "subject": {
          "reference": "urn:uuid:46d787ff-9967-4fd6-9cd1-eaf0742ad592",
          "display": "Jele Jurković"
        },
        "effectiveDateTime": "2021-02-10T18:07:38Z",
        "specimen": {
          "reference": "urn:uuid:067a10dc-51bc-4c82-9851-b1840743ca49"
        }
      }
    },
    {
      "fullUrl": "urn:uuid:416953a5-a0d4-486f-a7ad-04dafda76121",
      "resource": {
        "resourceType": "Observation",
        "id": "416953a5-a0d4-486f-a7ad-04dafda76121",
        "meta": {
          "profile": [
            "http://hl7.eu/fhir/laboratory/StructureDefinition/Observation-resultslab-eu-lab"
          ]
        },
        "performer": [
          {
            "display": "The Central European Lab"
          }
        ],
        "category": [
          {
            "coding": [
              {
                "system": "http://terminology.hl7.org/CodeSystem/observation-category",
                "code": "laboratory"
              }
            ]
          }
        ],
        "code": {
          "coding": [
            {
              "code": "718-7",
              "system": "http://loinc.org",
              "display": "Hemoglobin [Mass/volume] in Blood"
            }
          ],
          "text": "Hemoglobin [Mass/volume] in Blood"
        },
        "valueQuantity": {
          "system": "http://unitsofmeasure.org",
          "value": 15.7,
          "unit": "g/dL",
          "code": "g/dL"
        },
        "referenceRange": [
          {
            "low": {
              "value": 12,
              "code": "g/dL",
              "system": "http://unitsofmeasure.org"
            }
          },
          {
            "high": {
              "value": 16,
              "code": "g/dL",
              "system": "http://unitsofmeasure.org"
            }
          }
        ],
        "text": {
          "status": "generated",
          "div": "<div xmlns=\"http://www.w3.org/1999/xhtml\"><table class=\"hl7__eu__lab__report\"><tr><th>Test</th><th>10-Feb-2021</th><th>Reference&#xA0;Range</th><th>Unit</th></tr><tr><td>Hemoglobin [Mass/volume] in Blood</td><td>15.7</td><td>12 - 16</td><td></td><td>g/dL</td></tr></table></div>"
        },
        "status": "final",
        "subject": {
          "reference": "urn:uuid:46d787ff-9967-4fd6-9cd1-eaf0742ad592",
          "display": "Jele Jurković"
        },
        "effectiveDateTime": "2021-02-10T18:07:38Z",
        "specimen": {
          "reference": "urn:uuid:067a10dc-51bc-4c82-9851-b1840743ca49"
        }
      }
    },
    {
      "fullUrl": "urn:uuid:320fea39-9ad4-4a45-b93d-43a0312927bf",
      "resource": {
        "resourceType": "Observation",
        "id": "320fea39-9ad4-4a45-b93d-43a0312927bf",
        "meta": {
          "profile": [
            "http://hl7.eu/fhir/laboratory/StructureDefinition/Observation-resultslab-eu-lab"
          ]
        },
        "performer": [
          {
            "display": "The Central European Lab"
          }
        ],
        "category": [
          {
            "coding": [
              {
                "system": "http://terminology.hl7.org/CodeSystem/observation-category",
                "code": "laboratory"
              }
            ]
          }
        ],
        "code": {
          "coding": [
            {
              "code": "4544-3",
              "system": "http://loinc.org",
              "display": "Hematocrit [Volume Fraction] of Blood by Automated count"
            }
          ],
          "text": "Hematocrit [Volume Fraction] of Blood by Automated count"
        },
        "valueQuantity": {
          "system": "http://unitsofmeasure.org",
          "value": 38,
          "unit": "%",
          "code": "%"
        },
        "referenceRange": [
          {
            "low": {
              "value": 37,
              "code": "%",
              "system": "http://unitsofmeasure.org"
            }
          },
          {
            "high": {
              "value": 52,
              "code": "%",
              "system": "http://unitsofmeasure.org"
            }
          }
        ],
        "text": {
          "status": "generated",
          "div": "<div xmlns=\"http://www.w3.org/1999/xhtml\"><table class=\"hl7__eu__lab__report\"><tr><th>Test</th><th>10-Feb-2021</th><th>Reference&#xA0;Range</th><th>Unit</th></tr><tr><td>Hematocrit [Volume Fraction] of Blood by Automated count</td><td>38.0</td><td>37 - 52</td><td></td><td>%</td></tr></table></div>"
        },
        "status": "final",
        "subject": {
          "reference": "urn:uuid:46d787ff-9967-4fd6-9cd1-eaf0742ad592",
          "display": "Jele Jurković"
        },
        "effectiveDateTime": "2021-02-10T18:07:38Z",
        "specimen": {
          "reference": "urn:uuid:067a10dc-51bc-4c82-9851-b1840743ca49"
        }
      }
    },
    {
      "fullUrl": "urn:uuid:773bddbc-a46b-45af-8e63-346415709940",
      "resource": {
        "resourceType": "Observation",
        "id": "773bddbc-a46b-45af-8e63-346415709940",
        "meta": {
          "profile": [
            "http://hl7.eu/fhir/laboratory/StructureDefinition/Observation-resultslab-eu-lab"
          ]
        },
        "performer": [
          {
            "display": "The Central European Lab"
          }
        ],
        "category": [
          {
            "coding": [
              {
                "system": "http://terminology.hl7.org/CodeSystem/observation-category",
                "code": "laboratory"
              }
            ]
          }
        ],
        "code": {
          "coding": [
            {
              "code": "787-2",
              "system": "http://loinc.org",
              "display": "MCV [Entitic volume] by Automated count"
            }
          ],
          "text": "MCV [Entitic volume] by Automated count"
        },
        "valueQuantity": {
          "system": "http://unitsofmeasure.org",
          "value": 91.6,
          "unit": "fL",
          "code": "fL"
        },
        "referenceRange": [
          {
            "low": {
              "value": 82,
              "code": "fL",
              "system": "http://unitsofmeasure.org"
            }
          },
          {
            "high": {
              "value": 98,
              "code": "fL",
              "system": "http://unitsofmeasure.org"
            }
          }
        ],
        "text": {
          "status": "generated",
          "div": "<div xmlns=\"http://www.w3.org/1999/xhtml\"><table class=\"hl7__eu__lab__report\"><tr><th>Test</th><th>10-Feb-2021</th><th>Reference&#xA0;Range</th><th>Unit</th></tr><tr><td>MCV [Entitic volume] by Automated count</td><td>91.6</td><td>82 - 98</td><td></td><td>fL</td></tr></table></div>"
        },
        "status": "final",
        "subject": {
          "reference": "urn:uuid:46d787ff-9967-4fd6-9cd1-eaf0742ad592",
          "display": "Jele Jurković"
        },
        "effectiveDateTime": "2021-02-10T18:07:38Z",
        "specimen": {
          "reference": "urn:uuid:067a10dc-51bc-4c82-9851-b1840743ca49"
        }
      }
    },
    {
      "fullUrl": "urn:uuid:ef266080-570d-4451-9f63-57482a098341",
      "resource": {
        "resourceType": "Observation",
        "id": "ef266080-570d-4451-9f63-57482a098341",
        "meta": {
          "profile": [
            "http://hl7.eu/fhir/laboratory/StructureDefinition/Observation-resultslab-eu-lab"
          ]
        },
        "performer": [
          {
            "display": "The Central European Lab"
          }
        ],
        "category": [
          {
            "coding": [
              {
                "system": "http://terminology.hl7.org/CodeSystem/observation-category",
                "code": "laboratory"
              }
            ]
          }
        ],
        "code": {
          "coding": [
            {
              "code": "785-6",
              "system": "http://loinc.org",
              "display": "MCH [Entitic mass] by Automated count"
            }
          ],
          "text": "MCH [Entitic mass] by Automated count"
        },
        "valueQuantity": {
          "system": "http://unitsofmeasure.org",
          "value": 31.5,
          "unit": "pg",
          "code": "pg"
        },
        "referenceRange": [
          {
            "low": {
              "value": 27,
              "code": "pg",
              "system": "http://unitsofmeasure.org"
            }
          },
          {
            "high": {
              "value": 33,
              "code": "pg",
              "system": "http://unitsofmeasure.org"
            }
          }
        ],
        "text": {
          "status": "generated",
          "div": "<div xmlns=\"http://www.w3.org/1999/xhtml\"><table class=\"hl7__eu__lab__report\"><tr><th>Test</th><th>10-Feb-2021</th><th>Reference&#xA0;Range</th><th>Unit</th></tr><tr><td>MCH [Entitic mass] by Automated count</td><td>31.5</td><td>27 - 33</td><td></td><td>pg</td></tr></table></div>"
        },
        "status": "final",
        "subject": {
          "reference": "urn:uuid:46d787ff-9967-4fd6-9cd1-eaf0742ad592",
          "display": "Jele Jurković"
        },
        "effectiveDateTime": "2021-02-10T18:07:38Z",
        "specimen": {
          "reference": "urn:uuid:067a10dc-51bc-4c82-9851-b1840743ca49"
        }
      }
    },
    {
      "fullUrl": "urn:uuid:a93c6695-18b8-45da-85bf-5243cb8342f7",
      "resource": {
        "resourceType": "Observation",
        "id": "a93c6695-18b8-45da-85bf-5243cb8342f7",
        "meta": {
          "profile": [
            "http://hl7.eu/fhir/laboratory/StructureDefinition/Observation-resultslab-eu-lab"
          ]
        },
        "performer": [
          {
            "display": "The Central European Lab"
          }
        ],
        "category": [
          {
            "coding": [
              {
                "system": "http://terminology.hl7.org/CodeSystem/observation-category",
                "code": "laboratory"
              }
            ]
          }
        ],
        "code": {
          "coding": [
            {
              "code": "786-4",
              "system": "http://loinc.org",
              "display": "MCHC [Mass/volume] by Automated count"
            }
          ],
          "text": "MCHC [Mass/volume] by Automated count"
        },
        "valueQuantity": {
          "system": "http://unitsofmeasure.org",
          "value": 33.2,
          "unit": "g/dL",
          "code": "g/dL"
        },
        "referenceRange": [
          {
            "low": {
              "value": 31,
              "code": "g/dL",
              "system": "http://unitsofmeasure.org"
            }
          },
          {
            "high": {
              "value": 36,
              "code": "g/dL",
              "system": "http://unitsofmeasure.org"
            }
          }
        ],
        "text": {
          "status": "generated",
          "div": "<div xmlns=\"http://www.w3.org/1999/xhtml\"><table class=\"hl7__eu__lab__report\"><tr><th>Test</th><th>10-Feb-2021</th><th>Reference&#xA0;Range</th><th>Unit</th></tr><tr><td>MCHC [Mass/volume] by Automated count</td><td>33.2</td><td>31 - 36</td><td></td><td>g/dL</td></tr></table></div>"
        },
        "status": "final",
        "subject": {
          "reference": "urn:uuid:46d787ff-9967-4fd6-9cd1-eaf0742ad592",
          "display": "Jele Jurković"
        },
        "effectiveDateTime": "2021-02-10T18:07:38Z",
        "specimen": {
          "reference": "urn:uuid:067a10dc-51bc-4c82-9851-b1840743ca49"
        }
      }
    },
    {
      "fullUrl": "urn:uuid:5b3568ae-6e57-4a20-bc51-54b1d3cfb296",
      "resource": {
        "resourceType": "Observation",
        "id": "5b3568ae-6e57-4a20-bc51-54b1d3cfb296",
        "meta": {
          "profile": [
            "http://hl7.eu/fhir/laboratory/StructureDefinition/Observation-resultslab-eu-lab"
          ]
        },
        "performer": [
          {
            "display": "The Central European Lab"
          }
        ],
        "category": [
          {
            "coding": [
              {
                "system": "http://terminology.hl7.org/CodeSystem/observation-category",
                "code": "laboratory"
              }
            ]
          }
        ],
        "code": {
          "coding": [
            {
              "code": "21000-5",
              "system": "http://loinc.org",
              "display": "Erythrocyte distribution width [Entitic volume] by Automated count"
            }
          ],
          "text": "Erythrocyte distribution width [Entitic volume] by Automated count"
        },
        "valueQuantity": {
          "system": "http://unitsofmeasure.org",
          "value": 44.8,
          "unit": "fL",
          "code": "fL"
        },
        "referenceRange": [
          {
            "low": {
              "value": 36,
              "code": "fL",
              "system": "http://unitsofmeasure.org"
            }
          },
          {
            "high": {
              "value": 56,
              "code": "fL",
              "system": "http://unitsofmeasure.org"
            }
          }
        ],
        "text": {
          "status": "generated",
          "div": "<div xmlns=\"http://www.w3.org/1999/xhtml\"><table class=\"hl7__eu__lab__report\"><tr><th>Test</th><th>10-Feb-2021</th><th>Reference&#xA0;Range</th><th>Unit</th></tr><tr><td>Erythrocyte distribution width [Entitic volume] by Automated count</td><td>44.8</td><td>36 - 56</td><td></td><td>fL</td></tr></table></div>"
        },
        "status": "final",
        "subject": {
          "reference": "urn:uuid:46d787ff-9967-4fd6-9cd1-eaf0742ad592",
          "display": "Jele Jurković"
        },
        "effectiveDateTime": "2021-02-10T18:07:38Z",
        "specimen": {
          "reference": "urn:uuid:067a10dc-51bc-4c82-9851-b1840743ca49"
        }
      }
    },
    {
      "fullUrl": "urn:uuid:394f0e57-8d93-4919-998a-2b5bde530583",
      "resource": {
        "resourceType": "Observation",
        "id": "394f0e57-8d93-4919-998a-2b5bde530583",
        "meta": {
          "profile": [
            "http://hl7.eu/fhir/laboratory/StructureDefinition/Observation-resultslab-eu-lab"
          ]
        },
        "performer": [
          {
            "display": "The Central European Lab"
          }
        ],
        "category": [
          {
            "coding": [
              {
                "system": "http://terminology.hl7.org/CodeSystem/observation-category",
                "code": "laboratory"
              }
            ]
          }
        ],
        "code": {
          "coding": [
            {
              "code": "777-3",
              "system": "http://loinc.org",
              "display": "Platelets [#/volume] in Blood by Automated count"
            }
          ],
          "text": "Platelets [#/volume] in Blood by Automated count"
        },
        "valueQuantity": {
          "system": "http://unitsofmeasure.org",
          "value": 197.5,
          "unit": "10*3/uL",
          "code": "10*3/uL"
        },
        "referenceRange": [
          {
            "low": {
              "value": 150,
              "code": "10*3/uL",
              "system": "http://unitsofmeasure.org"
            }
          },
          {
            "high": {
              "value": 450,
              "code": "10*3/uL",
              "system": "http://unitsofmeasure.org"
            }
          }
        ],
        "text": {
          "status": "generated",
          "div": "<div xmlns=\"http://www.w3.org/1999/xhtml\"><table class=\"hl7__eu__lab__report\"><tr><th>Test</th><th>10-Feb-2021</th><th>Reference&#xA0;Range</th><th>Unit</th></tr><tr><td>Platelets [#/volume] in Blood by Automated count</td><td>197.5</td><td>150 - 450</td><td></td><td>10*3/uL</td></tr></table></div>"
        },
        "status": "final",
        "subject": {
          "reference": "urn:uuid:46d787ff-9967-4fd6-9cd1-eaf0742ad592",
          "display": "Jele Jurković"
        },
        "effectiveDateTime": "2021-02-10T18:07:38Z",
        "specimen": {
          "reference": "urn:uuid:067a10dc-51bc-4c82-9851-b1840743ca49"
        }
      }
    },
    {
      "fullUrl": "urn:uuid:c7b93686-0d09-428a-a7f8-82e63410c7e7",
      "resource": {
        "resourceType": "Observation",
        "id": "c7b93686-0d09-428a-a7f8-82e63410c7e7",
        "meta": {
          "profile": [
            "http://hl7.eu/fhir/laboratory/StructureDefinition/Observation-resultslab-eu-lab"
          ]
        },
        "performer": [
          {
            "display": "The Central European Lab"
          }
        ],
        "category": [
          {
            "coding": [
              {
                "system": "http://terminology.hl7.org/CodeSystem/observation-category",
                "code": "laboratory"
              }
            ]
          }
        ],
        "code": {
          "coding": [
            {
              "code": "32207-3",
              "system": "http://loinc.org",
              "display": "Platelet distribution width [Entitic volume] in Blood by Automated count"
            }
          ],
          "text": "Platelet distribution width [Entitic volume] in Blood by Automated count"
        },
        "valueQuantity": {
          "system": "http://unitsofmeasure.org",
          "value": 254.5,
          "unit": "fL",
          "code": "fL"
        },
        "referenceRange": [
          {
            "low": {
              "value": 11.6,
              "code": "fL",
              "system": "http://unitsofmeasure.org"
            }
          },
          {
            "high": {
              "value": 17.4,
              "code": "fL",
              "system": "http://unitsofmeasure.org"
            }
          }
        ],
        "interpretation": [
          {
            "coding": [
              {
                "code": "H",
                "system": "http://terminology.hl7.org/CodeSystem/v3-ObservationInterpretation",
                "display": "High"
              }
            ]
          }
        ],
        "text": {
          "status": "generated",
          "div": "<div xmlns=\"http://www.w3.org/1999/xhtml\"><table class=\"hl7__eu__lab__report\"><tr><th>Test</th><th>10-Feb-2021</th><th>Reference&#xA0;Range</th><th>Unit</th></tr><tr><td>Platelet distribution width [Entitic volume] in Blood by Automated count</td><td>254.5</td><td>11.6 - 17.4</td><td>H</td><td>fL</td></tr></table></div>"
        },
        "status": "final",
        "subject": {
          "reference": "urn:uuid:46d787ff-9967-4fd6-9cd1-eaf0742ad592",
          "display": "Jele Jurković"
        },
        "effectiveDateTime": "2021-02-10T18:07:38Z",
        "specimen": {
          "reference": "urn:uuid:067a10dc-51bc-4c82-9851-b1840743ca49"
        }
      }
    },
    {
      "fullUrl": "urn:uuid:55d26f2e-d8a3-4f34-a336-7fef935f725d",
      "resource": {
        "resourceType": "Observation",
        "id": "55d26f2e-d8a3-4f34-a336-7fef935f725d",
        "meta": {
          "profile": [
            "http://hl7.eu/fhir/laboratory/StructureDefinition/Observation-resultslab-eu-lab"
          ]
        },
        "performer": [
          {
            "display": "The Central European Lab"
          }
        ],
        "category": [
          {
            "coding": [
              {
                "system": "http://terminology.hl7.org/CodeSystem/observation-category",
                "code": "laboratory"
              }
            ]
          }
        ],
        "code": {
          "coding": [
            {
              "code": "32623-1",
              "system": "http://loinc.org",
              "display": "Platelet mean volume [Entitic volume] in Blood by Automated count"
            }
          ],
          "text": "Platelet mean volume [Entitic volume] in Blood by Automated count"
        },
        "valueQuantity": {
          "system": "http://unitsofmeasure.org",
          "value": 10.1,
          "unit": "fL",
          "code": "fL"
        },
        "referenceRange": [
          {
            "low": {
              "value": 7.4,
              "code": "fL",
              "system": "http://unitsofmeasure.org"
            }
          },
          {
            "high": {
              "value": 13.4,
              "code": "fL",
              "system": "http://unitsofmeasure.org"
            }
          }
        ],
        "text": {
          "status": "generated",
          "div": "<div xmlns=\"http://www.w3.org/1999/xhtml\"><table class=\"hl7__eu__lab__report\"><tr><th>Test</th><th>10-Feb-2021</th><th>Reference&#xA0;Range</th><th>Unit</th></tr><tr><td>Platelet mean volume [Entitic volume] in Blood by Automated count</td><td>10.1</td><td>7.4 - 13.4</td><td></td><td>fL</td></tr></table></div>"
        },
        "status": "final",
        "subject": {
          "reference": "urn:uuid:46d787ff-9967-4fd6-9cd1-eaf0742ad592",
          "display": "Jele Jurković"
        },
        "effectiveDateTime": "2021-02-10T18:07:38Z",
        "specimen": {
          "reference": "urn:uuid:067a10dc-51bc-4c82-9851-b1840743ca49"
        }
      }
    },
    {
      "fullUrl": "urn:uuid:f1bc291a-999a-41ca-a280-cadd8b79558a",
      "resource": {
        "resourceType": "Device",
        "id": "f1bc291a-999a-41ca-a280-cadd8b79558a",
        "deviceName": [
          {
            "name": "SYNDERAI Synthetic Generator",
            "type": "manufacturer-name"
          }
        ],
        "version": [
          {
            "value": "5.0"
          }
        ],
        "text": {
          "status": "generated",
          "div": "<div xmlns=\"http://www.w3.org/1999/xhtml\">SYNDERAI Synthetic Generator v5.0</div>"
        },
        "status": "active\"",
        "distinctIdentifier": "synderai-generator-50",
        "manufacturer": "SYNDERAI Project"
      }
    },
    {
      "fullUrl": "urn:uuid:4ae24d61-5fc5-472a-ae12-d60748fd6dbf",
      "resource": {
        "resourceType": "Provenance",
        "id": "4ae24d61-5fc5-472a-ae12-d60748fd6dbf",
        "target": [
          {
            "reference": "Patient/46d787ff-9967-4fd6-9cd1-eaf0742ad592"
          },
          {
            "reference": "Bundle/5607915b-b9ef-486c-8f61-ce991e3c0c48"
          },
          {
            "reference": "Composition/508cf2f7-7e7b-444d-b8d7-0e8d4e6e944f"
          },
          {
            "reference": "PractitionerRole/6e6b8d36-a2c2-4ef5-9e4c-c9b526e656d0"
          },
          {
            "reference": "Practitioner/6cf619b7-8064-4e46-b7c3-fc02adefd2a5"
          },
          {
            "reference": "PractitionerRole/080f394d-4d87-4cc8-97dd-ea7437b864de"
          },
          {
            "reference": "Organization/c4c1642a-9599-4c4c-97a4-d3debbc31034"
          }
        ],
        "activity": {
          "text": "Synthetic Example Data Generation"
        },
        "policy": [
          "https://synderai.net/synderai-synthetic-data-policy"
        ],
        "agent": [
          {
            "type": {
              "text": "author"
            },
            "who": {
              "reference": "Device/f1bc291a-999a-41ca-a280-cadd8b79558a"
            }
          }
        ],
        "reason": [
          {
            "text": "Interoperability Testing and Training (non-clinical use)"
          }
        ],
        "text": {
          "status": "generated",
          "div": "<div xmlns=\"http://www.w3.org/1999/xhtml\">Provenance for SYNDERAI Synthetic Example Data Resource</div>"
        },
        "recorded": "2021-02-10T19:07:38Z"
      }
    },
    {
      "fullUrl": "urn:uuid:6e6b8d36-a2c2-4ef5-9e4c-c9b526e656d0",
      "resource": {
        "resourceType": "PractitionerRole",
        "id": "6e6b8d36-a2c2-4ef5-9e4c-c9b526e656d0",
        "meta": {
          "profile": [
            "http://hl7.eu/fhir/base/StructureDefinition/practitionerRole-eu"
          ]
        },
        "text": {
          "status": "generated",
          "div": "<div xmlns=\"http://www.w3.org/1999/xhtml\">Laboratory Role Id: 6e6b8d36-a2c2-4ef5-9e4c-c9b526e656d0</div>"
        },
        "practitioner": {
          "reference": "urn:uuid:6cf619b7-8064-4e46-b7c3-fc02adefd2a5"
        }
      }
    },
    {
      "fullUrl": "urn:uuid:6cf619b7-8064-4e46-b7c3-fc02adefd2a5",
      "resource": {
        "resourceType": "Practitioner",
        "id": "6cf619b7-8064-4e46-b7c3-fc02adefd2a5",
        "meta": {
          "profile": [
            "http://hl7.eu/fhir/base/StructureDefinition/practitioner-eu"
          ]
        },
        "identifier": [
          {
            "assigner": {
              "display": "HL7 Europe"
            },
            "system": "urn:oid:2.16.840.1.113883.2.51.999",
            "value": "79ca77ed-da61-4dd4-b5ea-d431c54853fe"
          }
        ],
        "name": [
          {
            "prefix": [
              "dr"
            ],
            "given": [
              "Ex"
            ],
            "family": "Ample"
          }
        ],
        "address": [
          {
            "line": [
              "Laboratoire Central Européenne",
              "Boulevard du Jardin Botanique 32"
            ],
            "postalCode": "1000",
            "city": "Brussels",
            "country": "Belgium"
          }
        ],
        "text": {
          "status": "generated",
          "div": "<div xmlns=\"http://www.w3.org/1999/xhtml\">Laboratory: Laboratoire Central Européenne, 1000 Brussels, Belgium</div>"
        }
      }
    }
  ],
  "type": "document",
  "timestamp": "2021-02-10T19:07:38Z"
}
