{
  "resourceType": "Bundle",
  "id": "99c43ec7-9e56-4288-aaee-3c7ab52dbda4",
  "meta": {
    "profile": [
      "http://hl7.eu/fhir/laboratory/StructureDefinition/Bundle-eu-lab"
    ]
  },
  "identifier": {
    "assigner": {
      "display": "HL7 Europe"
    },
    "system": "urn:oid:2.16.840.1.113883.2.51.999",
    "value": "0a14fd5b-a967-46ca-93bb-a8e37f05f00c"
  },
  "entry": [
    {
      "fullUrl": "urn:uuid:c88e7cc2-cdf1-4905-891c-c9d611164975",
      "resource": {
        "resourceType": "Composition",
        "id": "c88e7cc2-cdf1-4905-891c-c9d611164975",
        "meta": {
          "profile": [
            "http://hl7.eu/fhir/laboratory/StructureDefinition/Composition-eu-lab"
          ]
        },
        "identifier": {
          "assigner": {
            "display": "HL7 Europe"
          },
          "system": "urn:oid:2.16.840.1.113883.2.51.999",
          "value": "7169cfe1-8785-46f5-91b5-55ecc2197f9a"
        },
        "author": [
          {
            "reference": "urn:uuid:c40df043-e922-4cc6-acdf-7482aad5506c"
          }
        ],
        "category": [
          {
            "coding": [
              {
                "code": "26436-6",
                "system": "http://loinc.org",
                "display": "Laboratory studies (set)"
              }
            ]
          }
        ],
        "type": {
          "coding": [
            {
              "code": "11502-2",
              "system": "http://loinc.org",
              "display": "Laboratory report"
            }
          ],
          "text": "Laboratory Report"
        },
        "section": [
          {
            "code": {
              "coding": [
                {
                  "code": "26436-6",
                  "system": "http://loinc.org",
                  "display": "Laboratory studies (set)"
                }
              ],
              "text": "Laboratory studies"
            },
            "section": [
              {
                "code": {
                  "coding": [
                    {
                      "code": "$18719-5",
                      "system": "http://loinc.org",
                      "display": "Chemistry studies (set)"
                    }
                  ],
                  "text": "Chemistry"
                },
                "entry": [
                  {
                    "reference": "urn:uuid:5bb23bda-1d49-4d5e-aed0-c5db8e8f93ee"
                  },
                  {
                    "reference": "urn:uuid:510828dd-0c2d-4079-afd0-d977ee73582c"
                  },
                  {
                    "reference": "urn:uuid:d302b50e-6a11-42e0-a75e-5fb96479e7d8"
                  },
                  {
                    "reference": "urn:uuid:b6056ff3-dd00-4425-8f7d-8a6a83e56533"
                  },
                  {
                    "reference": "urn:uuid:025d6f77-013f-4d71-9509-63889d23ca9f"
                  },
                  {
                    "reference": "urn:uuid:127b5fcc-f00b-42d5-9477-6e42afec7f0b"
                  },
                  {
                    "reference": "urn:uuid:aa6060e5-07cd-473a-aa21-81928ba3e188"
                  },
                  {
                    "reference": "urn:uuid:96356bc8-db3a-4d5d-b2a3-00648045a240"
                  },
                  {
                    "reference": "urn:uuid:37a669d3-f5b0-4f2f-9121-08c25482040b"
                  },
                  {
                    "reference": "urn:uuid:5a534990-24dc-4f2e-8ff8-0e9cd0652e45"
                  },
                  {
                    "reference": "urn:uuid:0ec526d3-c085-4416-8edf-e83a6f59dbad"
                  },
                  {
                    "reference": "urn:uuid:fe68ceb0-0393-4434-8492-c8d4f4b844e2"
                  },
                  {
                    "reference": "urn:uuid:793d454d-4297-4d3c-a115-eca9876bcbb6"
                  },
                  {
                    "reference": "urn:uuid:cd5a655a-f212-4e88-bf60-4769b26dd1da"
                  },
                  {
                    "reference": "urn:uuid:d6c0ad28-65af-46d3-9adb-50daf0924f90"
                  },
                  {
                    "reference": "urn:uuid:a7f2f207-0b29-4a77-b3fa-1d1d80ffcffb"
                  }
                ],
                "text": {
                  "status": "generated",
                  "div": "<div xmlns=\"http://www.w3.org/1999/xhtml\"><h3>Chemistry</h3><table class=\"hl7__eu__lab__report\"><thead><tr><th>Test</th><th>14-JAN-2016</th><th>Reference&#xA0;Range</th><th>Unit</th></tr></thead><tbody><tr><td>Glucose [Mass/volume] in Blood</td><td>71.7</td><td>70 - 140</td><td>mg/dL</td></tr><tr><td>Urea nitrogen [Mass/volume] in Blood</td><td>14.6</td><td>7 - 25</td><td>mg/dL</td></tr><tr><td>Creatinine [Mass/volume] in Blood</td><td><strong>2.5 H</strong></td><td>0.6 - 1.1</td><td>mg/dL</td></tr><tr><td>Calcium [Mass/volume] in Blood</td><td>10.1</td><td>8.6 - 10.4</td><td>mg/dL</td></tr><tr><td>Sodium [Moles/volume] in Blood</td><td>137.7</td><td>135 - 145</td><td>mmol/L</td></tr><tr><td>Potassium [Moles/volume] in Blood</td><td>4.2</td><td>3.5 - 5.1</td><td>mmol/L</td></tr><tr><td>Chloride [Moles/volume] in Blood</td><td>110.0</td><td>98 - 110</td><td>mmol/L</td></tr><tr><td>Carbon dioxide, total [Moles/volume] in Blood</td><td>28.7</td><td>22 - 29</td><td>mmol/L</td></tr><tr><td>Protein [Mass/volume] in Serum or Plasma</td><td>7.6</td><td>6.6 - 8.3</td><td>g/dL</td></tr><tr><td>Albumin [Mass/volume] in Serum or Plasma</td><td>4.5</td><td>3.5 - 5</td><td>g/dL</td></tr><tr><td>Globulin [Mass/volume] in Serum by calculation</td><td>2.8</td><td>2 - 3.5</td><td>g/L</td></tr><tr><td>Bilirubin.total [Mass/volume] in Serum or Plasma</td><td>1.2</td><td>0.3 - 1.2</td><td>mg/dL</td></tr><tr><td>Alkaline phosphatase [Enzymatic activity/volume] in Serum or Plasma</td><td>78.4</td><td>39 - 141</td><td>U/L</td></tr><tr><td>Alanine aminotransferase [Enzymatic activity/volume] in Serum or Plasma</td><td><strong>53.6 H</strong></td><td>7 - 40</td><td>U/L</td></tr><tr><td>Aspartate aminotransferase [Enzymatic activity/volume] in Serum or Plasma</td><td>13.4</td><td>10 - 32</td><td>U/L</td></tr><tr><td>Ketones [Presence] in Urine by Test strip</td><td>Urine ketone test = +++</td><td></td><td></td></tr></tbody></table></div>"
                },
                "title": "Chemistry"
              },
              {
                "code": {
                  "coding": [
                    {
                      "code": "$18729-4",
                      "system": "http://loinc.org",
                      "display": "Urinalysis studies (set)"
                    }
                  ],
                  "text": "Urinalysis"
                },
                "entry": [
                  {
                    "reference": "urn:uuid:db087680-e4fd-4c72-b666-4a58acc246f7"
                  },
                  {
                    "reference": "urn:uuid:37efef30-3593-42d4-a084-94a00796496d"
                  },
                  {
                    "reference": "urn:uuid:75420358-420f-4dab-b5c4-475c56dbab30"
                  },
                  {
                    "reference": "urn:uuid:3daa3e06-dab1-4118-b142-79e0515a3dca"
                  },
                  {
                    "reference": "urn:uuid:1be100fb-2668-4e1a-8b4d-4ad8063a06c0"
                  },
                  {
                    "reference": "urn:uuid:e220a0f4-0266-4f62-8d07-a2f655e91ce0"
                  },
                  {
                    "reference": "urn:uuid:d06b49da-fa73-4863-aa03-dd3bf2f7aefd"
                  },
                  {
                    "reference": "urn:uuid:9b7234f7-30f5-4fe4-926f-72e11b6e35a3"
                  },
                  {
                    "reference": "urn:uuid:975f0027-6fa8-4f6a-a55c-c49ce61f0d72"
                  },
                  {
                    "reference": "urn:uuid:80645292-6692-4ffc-bab6-81109a24bca7"
                  },
                  {
                    "reference": "urn:uuid:d9672778-97c9-4cf0-9d08-45c97d4ae3ca"
                  },
                  {
                    "reference": "urn:uuid:f3562536-7025-493d-99ca-8c0e065ccf2f"
                  }
                ],
                "text": {
                  "status": "generated",
                  "div": "<div xmlns=\"http://www.w3.org/1999/xhtml\"><h3>Urinalysis</h3><table class=\"hl7__eu__lab__report\"><thead><tr><th>Test</th><th>14-JAN-2016</th><th>Reference&#xA0;Range</th><th>Unit</th></tr></thead><tbody><tr><td>Glucose [Mass/volume] in Urine by Test strip</td><td><strong>1.3 H</strong></td><td>0 - 0.8</td><td>mg/dL</td></tr><tr><td>Glucose [Presence] in Urine by Test strip</td><td>++</td><td></td><td></td></tr><tr><td>Bilirubin.total [Mass/volume] in Urine by Test strip</td><td>0.6</td><td>0 - 1</td><td>mg/dL</td></tr><tr><td>Bilirubin.total [Presence] in Urine by Test strip</td><td>Finding of bilirubin in urine</td><td></td><td></td></tr><tr><td>Ketones [Mass/volume] in Urine by Test strip</td><td>3.6</td><td>0 - 4</td><td>mg/dL</td></tr><tr><td>Specific gravity of Urine by Test strip</td><td><strong>1.0 L</strong></td><td>1.005 - 1.03</td><td>{nominal}</td></tr><tr><td>pH of Urine by Test strip</td><td>6.5</td><td>4.5 - 7</td><td>pH</td></tr><tr><td>Protein [Mass/volume] in Urine by Test strip</td><td><strong>321.8 H</strong></td><td>0 - 145</td><td>mg/dL</td></tr><tr><td>Protein [Presence] in Urine by Test strip</td><td>Urine protein test = +++</td><td></td><td></td></tr><tr><td>Nitrite [Presence] in Urine by Test strip</td><td>Urine nitrite negative</td><td></td><td></td></tr><tr><td>Hemoglobin [Presence] in Urine by Test strip</td><td>Urine blood test = negative</td><td></td><td></td></tr><tr><td>Leukocyte esterase [Presence] in Urine by Test strip</td><td>Urine leukocyte test negative</td><td></td><td></td></tr></tbody></table></div>"
                },
                "title": "Urinalysis"
              },
              {
                "code": {
                  "coding": [
                    {
                      "code": "$LP7846-1",
                      "system": "http://loinc.org",
                      "display": "Specimen information"
                    }
                  ],
                  "text": "Specimen information"
                },
                "entry": [
                  {
                    "reference": "urn:uuid:7fbe653d-de1a-4eca-996b-3f720c1b5d41"
                  },
                  {
                    "reference": "urn:uuid:c69745f5-28f8-43b3-89f8-652381e03491"
                  },
                  {
                    "reference": "urn:uuid:587735e2-9efc-4c87-a697-267212c46473"
                  },
                  {
                    "reference": "urn:uuid:fcaee1b4-12f6-4f1a-87ed-a3dff1931e99"
                  }
                ],
                "text": {
                  "status": "generated",
                  "div": "<div xmlns=\"http://www.w3.org/1999/xhtml\"><h3>Specimen information</h3><table class=\"hl7__eu__lab__report\"><thead><tr><th>Test</th><th>14-JAN-2016</th><th>Specimen</th><th></th></tr></thead><tbody><tr><td>Appearance of Urine</td><td>Cloudy urine</td><td>Urine</td><td></td></tr><tr><td>Odor of Urine</td><td>Urine smell ammoniacal</td><td>Urine</td><td></td></tr><tr><td>Clarity of Urine</td><td>Translucent</td><td>Urine</td><td></td></tr><tr><td>Color of Urine</td><td>Brown color</td><td>Urine</td><td></td></tr></tbody></table></div>"
                },
                "title": "Specimen information"
              }
            ],
            "title": "Laboratory Report"
          },
          {
            "text": {
              "status": "generated",
              "div": "<div xmlns=\"http://www.w3.org/1999/xhtml\"><h3>Annotation</h3><table class=\"hl7__eu__lab__report\"><tr><th>Conclusion and Recommendations based on this report and previous findings known to us</th></tr><tr><td>The patient shows elevated serum creatinine, ALT, and significant proteinuria with glucosuria and ketonuria, suggesting impaired renal function and possible liver involvement. Urine is brown, cloudy, with low specific gravity, but no evidence of infection. Findings are consistent with acute or chronic kidney disease, possibly with diabetic or metabolic involvement. Further clinical correlation and nephrology/hepatology evaluation are recommended.</td></tr></table></div>"
            },
            "code": {
              "coding": [
                {
                  "system": "http://loinc.org",
                  "code": "48767-8",
                  "display": "Annotation comment"
                }
              ]
            },
            "title": "Annotation comment"
          }
        ],
        "status": "final",
        "subject": {
          "reference": "urn:uuid:cc3df238-3b6b-4ffa-8d09-a05727ee241e",
          "display": "Iva Kratochvílová"
        },
        "date": "2016-01-14T22:25:29Z",
        "title": "Laboratory Report",
        "confidentiality": "N"
      }
    },
    {
      "fullUrl": "urn:uuid:db28b057-fa78-4a93-b0a3-a00a969fa7c7",
      "resource": {
        "resourceType": "DiagnosticReport",
        "id": "db28b057-fa78-4a93-b0a3-a00a969fa7c7",
        "meta": {
          "profile": [
            "http://hl7.eu/fhir/laboratory/StructureDefinition/DiagnosticReport-eu-lab"
          ]
        },
        "identifier": [
          {
            "assigner": {
              "display": "HL7 Europe"
            },
            "system": "urn:oid:2.16.840.1.113883.2.51.999",
            "value": "ff04f125-87c8-4733-a8f4-1fb1ad6095cf"
          }
        ],
        "extension": [
          {
            "url": "http://hl7.org/fhir/5.0/StructureDefinition/extension-DiagnosticReport.composition",
            "valueReference": {
              "reference": "urn:uuid:7169cfe1-8785-46f5-91b5-55ecc2197f9a"
            }
          }
        ],
        "category": [
          {
            "coding": [
              {
                "code": "26436-6",
                "system": "http://loinc.org",
                "display": "Laboratory studies (set)"
              }
            ]
          }
        ],
        "specimen": [
          {
            "reference": "urn:uuid:f4c3ef9e-cc13-4f01-8ed9-415f15fca0ca"
          },
          {
            "reference": "urn:uuid:f919e8ba-70f9-4871-989b-562377ada236"
          },
          {
            "reference": "urn:uuid:f59acc9a-1136-4ad1-bbdf-a901009d8911"
          },
          {
            "reference": "urn:uuid:a2094929-89fd-4b86-bb80-38a3681524a0"
          }
        ],
        "result": [
          {
            "reference": "urn:uuid:5bb23bda-1d49-4d5e-aed0-c5db8e8f93ee"
          },
          {
            "reference": "urn:uuid:510828dd-0c2d-4079-afd0-d977ee73582c"
          },
          {
            "reference": "urn:uuid:d302b50e-6a11-42e0-a75e-5fb96479e7d8"
          },
          {
            "reference": "urn:uuid:b6056ff3-dd00-4425-8f7d-8a6a83e56533"
          },
          {
            "reference": "urn:uuid:025d6f77-013f-4d71-9509-63889d23ca9f"
          },
          {
            "reference": "urn:uuid:127b5fcc-f00b-42d5-9477-6e42afec7f0b"
          },
          {
            "reference": "urn:uuid:aa6060e5-07cd-473a-aa21-81928ba3e188"
          },
          {
            "reference": "urn:uuid:96356bc8-db3a-4d5d-b2a3-00648045a240"
          },
          {
            "reference": "urn:uuid:37a669d3-f5b0-4f2f-9121-08c25482040b"
          },
          {
            "reference": "urn:uuid:5a534990-24dc-4f2e-8ff8-0e9cd0652e45"
          },
          {
            "reference": "urn:uuid:0ec526d3-c085-4416-8edf-e83a6f59dbad"
          },
          {
            "reference": "urn:uuid:fe68ceb0-0393-4434-8492-c8d4f4b844e2"
          },
          {
            "reference": "urn:uuid:793d454d-4297-4d3c-a115-eca9876bcbb6"
          },
          {
            "reference": "urn:uuid:cd5a655a-f212-4e88-bf60-4769b26dd1da"
          },
          {
            "reference": "urn:uuid:d6c0ad28-65af-46d3-9adb-50daf0924f90"
          },
          {
            "reference": "urn:uuid:7fbe653d-de1a-4eca-996b-3f720c1b5d41"
          },
          {
            "reference": "urn:uuid:c69745f5-28f8-43b3-89f8-652381e03491"
          },
          {
            "reference": "urn:uuid:587735e2-9efc-4c87-a697-267212c46473"
          },
          {
            "reference": "urn:uuid:fcaee1b4-12f6-4f1a-87ed-a3dff1931e99"
          },
          {
            "reference": "urn:uuid:db087680-e4fd-4c72-b666-4a58acc246f7"
          },
          {
            "reference": "urn:uuid:37efef30-3593-42d4-a084-94a00796496d"
          },
          {
            "reference": "urn:uuid:75420358-420f-4dab-b5c4-475c56dbab30"
          },
          {
            "reference": "urn:uuid:3daa3e06-dab1-4118-b142-79e0515a3dca"
          },
          {
            "reference": "urn:uuid:1be100fb-2668-4e1a-8b4d-4ad8063a06c0"
          },
          {
            "reference": "urn:uuid:a7f2f207-0b29-4a77-b3fa-1d1d80ffcffb"
          },
          {
            "reference": "urn:uuid:e220a0f4-0266-4f62-8d07-a2f655e91ce0"
          },
          {
            "reference": "urn:uuid:d06b49da-fa73-4863-aa03-dd3bf2f7aefd"
          },
          {
            "reference": "urn:uuid:9b7234f7-30f5-4fe4-926f-72e11b6e35a3"
          },
          {
            "reference": "urn:uuid:975f0027-6fa8-4f6a-a55c-c49ce61f0d72"
          },
          {
            "reference": "urn:uuid:80645292-6692-4ffc-bab6-81109a24bca7"
          },
          {
            "reference": "urn:uuid:d9672778-97c9-4cf0-9d08-45c97d4ae3ca"
          },
          {
            "reference": "urn:uuid:f3562536-7025-493d-99ca-8c0e065ccf2f"
          }
        ],
        "status": "registered",
        "code": {
          "coding": [
            {
              "code": "11502-2",
              "system": "http://loinc.org",
              "display": "Laboratory report"
            }
          ]
        },
        "subject": {
          "reference": "urn:uuid:cc3df238-3b6b-4ffa-8d09-a05727ee241e",
          "display": "Iva Kratochvílová"
        }
      }
    },
    {
      "fullUrl": "urn:uuid:cc3df238-3b6b-4ffa-8d09-a05727ee241e",
      "resource": {
        "resourceType": "Patient",
        "id": "cc3df238-3b6b-4ffa-8d09-a05727ee241e",
        "meta": {
          "security": [
            {
              "system": "http://terminology.hl7.org/CodeSystem/v3-ActReason",
              "code": "HTEST"
            },
            {
              "system": "http://terminology.hl7.org/CodeSystem/v3-ActReason",
              "code": "TRAIN"
            }
          ],
          "tag": [
            {
              "system": "https://synderai.net/fhir/CodeSystem/tags",
              "code": "synthetic",
              "display": "SYNDERAI Synthetic data"
            }
          ],
          "profile": [
            "http://hl7.eu/fhir/base/StructureDefinition/patient-eu-core"
          ]
        },
        "identifier": [
          {
            "type": {
              "coding": [
                {
                  "code": "PT",
                  "system": "http://terminology.hl7.org/CodeSystem/v2-0203"
                }
              ]
            },
            "system": "http://ec.europa.eu/identifier/eci",
            "value": "4380-389488-0"
          },
          {
            "type": {
              "coding": [
                {
                  "code": "MR",
                  "system": "http://terminology.hl7.org/CodeSystem/v2-0203"
                }
              ]
            },
            "system": "http://local.setting.eu/identifier",
            "value": "f8f9ebdc-03dd-2fc0-819c-affa4ffd7f67"
          }
        ],
        "name": [
          {
            "family": "Kratochvílová"
          },
          {
            "given": [
              "Iva"
            ]
          },
          {
            "text": "Iva Kratochvílová"
          }
        ],
        "address": [
          {
            "line": [
              "Žofie Podlipské 4"
            ],
            "use": "home",
            "type": "physical",
            "postalCode": "27324",
            "city": "Postoloprty",
            "country": "Czechia"
          }
        ],
        "telecom": [
          {
            "system": "phone",
            "value": "00420 607 985 072"
          }
        ],
        "extension": [
          {
            "url": "http://hl7.org/fhir/StructureDefinition/patient-nationality",
            "valueCodeableConcept": {
              "coding": [
                {
                  "code": "CZ",
                  "system": "http://hl7.org/fhir/ValueSet/country"
                }
              ]
            }
          }
        ],
        "text": {
          "status": "generated",
          "div": "<div xmlns=\"http://www.w3.org/1999/xhtml\"><table class=\"hl7__ips\"><tr><td>Iva Kratochvílová</td><td>female</td><td>17-Sep-1964</td></tr></table></div>"
        },
        "gender": "female",
        "birthDate": "1964-09-17"
      }
    },
    {
      "fullUrl": "urn:uuid:0a5ac5a6-7ba6-4223-bc4c-2642a73e54d8",
      "resource": {
        "resourceType": "ServiceRequest",
        "id": "0a5ac5a6-7ba6-4223-bc4c-2642a73e54d8",
        "meta": {
          "profile": [
            "http://hl7.eu/fhir/laboratory/StructureDefinition/ServiceRequest-eu-lab"
          ]
        },
        "identifier": [
          {
            "system": "http://example.org",
            "value": "25f232ac-01e7-4ea4-b1fd-9088b08e5482"
          }
        ],
        "specimen": [
          {
            "reference": "urn:uuid:f4c3ef9e-cc13-4f01-8ed9-415f15fca0ca"
          },
          {
            "reference": "urn:uuid:f919e8ba-70f9-4871-989b-562377ada236"
          },
          {
            "reference": "urn:uuid:f59acc9a-1136-4ad1-bbdf-a901009d8911"
          },
          {
            "reference": "urn:uuid:a2094929-89fd-4b86-bb80-38a3681524a0"
          }
        ],
        "reasonCode": [
          {
            "coding": [
              {
                "code": "431856006",
                "system": "http://snomed.info/sct",
                "display": "Chronic kidney disease stage 2"
              }
            ]
          },
          {
            "coding": [
              {
                "code": "431855005",
                "system": "http://snomed.info/sct",
                "display": "Chronic kidney disease stage 1"
              }
            ]
          },
          {
            "coding": [
              {
                "code": "237602007",
                "system": "http://snomed.info/sct",
                "display": "Metabolic syndrome X"
              }
            ]
          },
          {
            "coding": [
              {
                "code": "91302008",
                "system": "http://snomed.info/sct",
                "display": "Sepsis"
              }
            ]
          },
          {
            "coding": [
              {
                "code": "271737000",
                "system": "http://snomed.info/sct",
                "display": "Anemia"
              }
            ]
          },
          {
            "coding": [
              {
                "code": "15777000",
                "system": "http://snomed.info/sct",
                "display": "Prediabetes"
              }
            ]
          },
          {
            "coding": [
              {
                "code": "157141000119108",
                "system": "http://snomed.info/sct",
                "display": "Proteinuria due to type 2 diabetes mellitus"
              }
            ]
          },
          {
            "coding": [
              {
                "code": "90781000119102",
                "system": "http://snomed.info/sct",
                "display": "Microalbuminuria due to type 2 diabetes mellitus"
              }
            ]
          },
          {
            "coding": [
              {
                "code": "239872002",
                "system": "http://snomed.info/sct",
                "display": "Osteoarthritis of hip"
              }
            ]
          },
          {
            "coding": [
              {
                "code": "40055000",
                "system": "http://snomed.info/sct",
                "display": "Chronic sinusitis"
              }
            ]
          },
          {
            "coding": [
              {
                "code": "127013003",
                "system": "http://snomed.info/sct",
                "display": "Disorder of kidney due to diabetes mellitus"
              }
            ]
          },
          {
            "coding": [
              {
                "code": "59621000",
                "system": "http://snomed.info/sct",
                "display": "Essential hypertension"
              }
            ]
          }
        ],
        "status": "active",
        "intent": "order",
        "code": {
          "coding": [
            {
              "code": "108252007",
              "system": "http://snomed.info/sct",
              "display": "Laboratory procedure"
            }
          ]
        },
        "subject": {
          "reference": "urn:uuid:cc3df238-3b6b-4ffa-8d09-a05727ee241e",
          "display": "Iva Kratochvílová"
        },
        "requester": {
          "reference": "urn:uuid:17407a2a-27ae-4b1f-87be-18f6fd1c0c09"
        }
      }
    },
    {
      "fullUrl": "urn:uuid:17407a2a-27ae-4b1f-87be-18f6fd1c0c09",
      "resource": {
        "resourceType": "PractitionerRole",
        "id": "17407a2a-27ae-4b1f-87be-18f6fd1c0c09",
        "meta": {
          "profile": [
            "http://hl7.eu/fhir/base/StructureDefinition/practitionerRole-eu"
          ]
        },
        "text": {
          "status": "generated",
          "div": "<div xmlns=\"http://www.w3.org/1999/xhtml\">Provider Role Id: 17407a2a-27ae-4b1f-87be-18f6fd1c0c09</div>"
        },
        "organization": {
          "reference": "urn:uuid:380000f2-1837-4679-b981-d7d5d3f460a6"
        }
      }
    },
    {
      "fullUrl": "urn:uuid:380000f2-1837-4679-b981-d7d5d3f460a6",
      "resource": {
        "resourceType": "Organization",
        "id": "380000f2-1837-4679-b981-d7d5d3f460a6",
        "meta": {
          "profile": [
            "http://hl7.eu/fhir/base/StructureDefinition/organization-eu"
          ]
        },
        "identifier": [
          {
            "assigner": {
              "display": "HL7 Europe"
            },
            "system": "urn:oid:2.16.840.1.113883.2.51.999",
            "value": "bfce4646-99b1-4d1d-b15a-4538d376c58f"
          }
        ],
        "address": [
          {
            "city": "Kadaň",
            "postalCode": "432 01",
            "country": "Czechia"
          }
        ],
        "text": {
          "status": "generated",
          "div": "<div xmlns=\"http://www.w3.org/1999/xhtml\">Provider Organization: Nemocnice s poliklinikou Kadaň</div>"
        },
        "name": "Nemocnice s poliklinikou Kadaň"
      }
    },
    {
      "fullUrl": "urn:uuid:f4c3ef9e-cc13-4f01-8ed9-415f15fca0ca",
      "resource": {
        "resourceType": "Specimen",
        "id": "f4c3ef9e-cc13-4f01-8ed9-415f15fca0ca",
        "meta": {
          "profile": [
            "http://hl7.eu/fhir/laboratory/StructureDefinition/Specimen-eu-lab"
          ]
        },
        "collection": {
          "collectedDateTime": "2016-01-14"
        },
        "text": {
          "status": "generated",
          "div": "<div xmlns=\"http://www.w3.org/1999/xhtml\"><table class=\"hl7__eu__lab__report\"><tr><th>Specimen</th><th>Collection Date</th></tr><tr><td>Whole blood specimen (specimen)</td><td><span class=\"nb\">14-Jan-2016</span></td></tr></table></div>"
        },
        "type": {
          "coding": [
            {
              "code": "258580003",
              "system": "http://snomed.info/sct",
              "display": "Whole blood specimen (specimen)"
            }
          ]
        }
      }
    },
    {
      "fullUrl": "urn:uuid:f919e8ba-70f9-4871-989b-562377ada236",
      "resource": {
        "resourceType": "Specimen",
        "id": "f919e8ba-70f9-4871-989b-562377ada236",
        "meta": {
          "profile": [
            "http://hl7.eu/fhir/laboratory/StructureDefinition/Specimen-eu-lab"
          ]
        },
        "collection": {
          "collectedDateTime": "2016-01-14"
        },
        "text": {
          "status": "generated",
          "div": "<div xmlns=\"http://www.w3.org/1999/xhtml\"><table class=\"hl7__eu__lab__report\"><tr><th>Specimen</th><th>Collection Date</th></tr><tr><td>Acellular blood (serum or plasma) specimen</td><td><span class=\"nb\">14-Jan-2016</span></td></tr></table></div>"
        },
        "type": {
          "coding": [
            {
              "code": "122592007",
              "system": "http://snomed.info/sct",
              "display": "Acellular blood (serum or plasma) specimen"
            }
          ]
        }
      }
    },
    {
      "fullUrl": "urn:uuid:f59acc9a-1136-4ad1-bbdf-a901009d8911",
      "resource": {
        "resourceType": "Specimen",
        "id": "f59acc9a-1136-4ad1-bbdf-a901009d8911",
        "meta": {
          "profile": [
            "http://hl7.eu/fhir/laboratory/StructureDefinition/Specimen-eu-lab"
          ]
        },
        "collection": {
          "collectedDateTime": "2016-01-14"
        },
        "text": {
          "status": "generated",
          "div": "<div xmlns=\"http://www.w3.org/1999/xhtml\"><table class=\"hl7__eu__lab__report\"><tr><th>Specimen</th><th>Collection Date</th></tr><tr><td>Serum specimen</td><td><span class=\"nb\">14-Jan-2016</span></td></tr></table></div>"
        },
        "type": {
          "coding": [
            {
              "code": "119364003",
              "system": "http://snomed.info/sct",
              "display": "Serum specimen"
            }
          ]
        }
      }
    },
    {
      "fullUrl": "urn:uuid:a2094929-89fd-4b86-bb80-38a3681524a0",
      "resource": {
        "resourceType": "Specimen",
        "id": "a2094929-89fd-4b86-bb80-38a3681524a0",
        "meta": {
          "profile": [
            "http://hl7.eu/fhir/laboratory/StructureDefinition/Specimen-eu-lab"
          ]
        },
        "collection": {
          "collectedDateTime": "2016-01-14"
        },
        "text": {
          "status": "generated",
          "div": "<div xmlns=\"http://www.w3.org/1999/xhtml\"><table class=\"hl7__eu__lab__report\"><tr><th>Specimen</th><th>Collection Date</th></tr><tr><td>Urine specimen</td><td><span class=\"nb\">14-Jan-2016</span></td></tr></table></div>"
        },
        "type": {
          "coding": [
            {
              "code": "122575003",
              "system": "http://snomed.info/sct",
              "display": "Urine specimen"
            }
          ]
        }
      }
    },
    {
      "fullUrl": "urn:uuid:5bb23bda-1d49-4d5e-aed0-c5db8e8f93ee",
      "resource": {
        "resourceType": "Observation",
        "id": "5bb23bda-1d49-4d5e-aed0-c5db8e8f93ee",
        "meta": {
          "profile": [
            "http://hl7.eu/fhir/laboratory/StructureDefinition/Observation-resultslab-eu-lab"
          ]
        },
        "performer": [
          {
            "display": "The Central European Lab"
          }
        ],
        "category": [
          {
            "coding": [
              {
                "system": "http://terminology.hl7.org/CodeSystem/observation-category",
                "code": "laboratory"
              }
            ]
          }
        ],
        "code": {
          "coding": [
            {
              "code": "2339-0",
              "system": "http://loinc.org",
              "display": "Glucose [Mass/volume] in Blood"
            }
          ],
          "text": "Glucose [Mass/volume] in Blood"
        },
        "valueQuantity": {
          "system": "http://unitsofmeasure.org",
          "value": 71.7,
          "unit": "mg/dL",
          "code": "mg/dL"
        },
        "referenceRange": [
          {
            "low": {
              "value": 70,
              "code": "mg/dL",
              "system": "http://unitsofmeasure.org"
            }
          },
          {
            "high": {
              "value": 140,
              "code": "mg/dL",
              "system": "http://unitsofmeasure.org"
            }
          }
        ],
        "text": {
          "status": "generated",
          "div": "<div xmlns=\"http://www.w3.org/1999/xhtml\"><table class=\"hl7__eu__lab__report\"><tr><th>Test</th><th>14-Jan-2016</th><th>Reference&#xA0;Range</th><th>Unit</th></tr><tr><td>Glucose [Mass/volume] in Blood</td><td>71.7</td><td>70 - 140</td><td></td><td>mg/dL</td></tr></table></div>"
        },
        "status": "final",
        "subject": {
          "reference": "urn:uuid:cc3df238-3b6b-4ffa-8d09-a05727ee241e",
          "display": "Iva Kratochvílová"
        },
        "effectiveDateTime": "2016-01-14T21:25:29Z",
        "specimen": {
          "reference": "urn:uuid:f4c3ef9e-cc13-4f01-8ed9-415f15fca0ca"
        }
      }
    },
    {
      "fullUrl": "urn:uuid:510828dd-0c2d-4079-afd0-d977ee73582c",
      "resource": {
        "resourceType": "Observation",
        "id": "510828dd-0c2d-4079-afd0-d977ee73582c",
        "meta": {
          "profile": [
            "http://hl7.eu/fhir/laboratory/StructureDefinition/Observation-resultslab-eu-lab"
          ]
        },
        "performer": [
          {
            "display": "The Central European Lab"
          }
        ],
        "category": [
          {
            "coding": [
              {
                "system": "http://terminology.hl7.org/CodeSystem/observation-category",
                "code": "laboratory"
              }
            ]
          }
        ],
        "code": {
          "coding": [
            {
              "code": "6299-2",
              "system": "http://loinc.org",
              "display": "Urea nitrogen [Mass/volume] in Blood"
            }
          ],
          "text": "Urea nitrogen [Mass/volume] in Blood"
        },
        "valueQuantity": {
          "system": "http://unitsofmeasure.org",
          "value": 14.6,
          "unit": "mg/dL",
          "code": "mg/dL"
        },
        "referenceRange": [
          {
            "low": {
              "value": 7,
              "code": "mg/dL",
              "system": "http://unitsofmeasure.org"
            }
          },
          {
            "high": {
              "value": 25,
              "code": "mg/dL",
              "system": "http://unitsofmeasure.org"
            }
          }
        ],
        "text": {
          "status": "generated",
          "div": "<div xmlns=\"http://www.w3.org/1999/xhtml\"><table class=\"hl7__eu__lab__report\"><tr><th>Test</th><th>14-Jan-2016</th><th>Reference&#xA0;Range</th><th>Unit</th></tr><tr><td>Urea nitrogen [Mass/volume] in Blood</td><td>14.6</td><td>7 - 25</td><td></td><td>mg/dL</td></tr></table></div>"
        },
        "status": "final",
        "subject": {
          "reference": "urn:uuid:cc3df238-3b6b-4ffa-8d09-a05727ee241e",
          "display": "Iva Kratochvílová"
        },
        "effectiveDateTime": "2016-01-14T21:25:29Z",
        "specimen": {
          "reference": "urn:uuid:f4c3ef9e-cc13-4f01-8ed9-415f15fca0ca"
        }
      }
    },
    {
      "fullUrl": "urn:uuid:d302b50e-6a11-42e0-a75e-5fb96479e7d8",
      "resource": {
        "resourceType": "Observation",
        "id": "d302b50e-6a11-42e0-a75e-5fb96479e7d8",
        "meta": {
          "profile": [
            "http://hl7.eu/fhir/laboratory/StructureDefinition/Observation-resultslab-eu-lab"
          ]
        },
        "performer": [
          {
            "display": "The Central European Lab"
          }
        ],
        "category": [
          {
            "coding": [
              {
                "system": "http://terminology.hl7.org/CodeSystem/observation-category",
                "code": "laboratory"
              }
            ]
          }
        ],
        "code": {
          "coding": [
            {
              "code": "38483-4",
              "system": "http://loinc.org",
              "display": "Creatinine [Mass/volume] in Blood"
            }
          ],
          "text": "Creatinine [Mass/volume] in Blood"
        },
        "valueQuantity": {
          "system": "http://unitsofmeasure.org",
          "value": 2.5,
          "unit": "mg/dL",
          "code": "mg/dL"
        },
        "referenceRange": [
          {
            "low": {
              "value": 0.6,
              "code": "mg/dL",
              "system": "http://unitsofmeasure.org"
            }
          },
          {
            "high": {
              "value": 1.1,
              "code": "mg/dL",
              "system": "http://unitsofmeasure.org"
            }
          }
        ],
        "interpretation": [
          {
            "coding": [
              {
                "code": "H",
                "system": "http://terminology.hl7.org/CodeSystem/v3-ObservationInterpretation",
                "display": "High"
              }
            ]
          }
        ],
        "text": {
          "status": "generated",
          "div": "<div xmlns=\"http://www.w3.org/1999/xhtml\"><table class=\"hl7__eu__lab__report\"><tr><th>Test</th><th>14-Jan-2016</th><th>Reference&#xA0;Range</th><th>Unit</th></tr><tr><td>Creatinine [Mass/volume] in Blood</td><td>2.5</td><td>0.6 - 1.1</td><td>H</td><td>mg/dL</td></tr></table></div>"
        },
        "status": "final",
        "subject": {
          "reference": "urn:uuid:cc3df238-3b6b-4ffa-8d09-a05727ee241e",
          "display": "Iva Kratochvílová"
        },
        "effectiveDateTime": "2016-01-14T21:25:29Z",
        "specimen": {
          "reference": "urn:uuid:f4c3ef9e-cc13-4f01-8ed9-415f15fca0ca"
        }
      }
    },
    {
      "fullUrl": "urn:uuid:b6056ff3-dd00-4425-8f7d-8a6a83e56533",
      "resource": {
        "resourceType": "Observation",
        "id": "b6056ff3-dd00-4425-8f7d-8a6a83e56533",
        "meta": {
          "profile": [
            "http://hl7.eu/fhir/laboratory/StructureDefinition/Observation-resultslab-eu-lab"
          ]
        },
        "performer": [
          {
            "display": "The Central European Lab"
          }
        ],
        "category": [
          {
            "coding": [
              {
                "system": "http://terminology.hl7.org/CodeSystem/observation-category",
                "code": "laboratory"
              }
            ]
          }
        ],
        "code": {
          "coding": [
            {
              "code": "49765-1",
              "system": "http://loinc.org",
              "display": "Calcium [Mass/volume] in Blood"
            }
          ],
          "text": "Calcium [Mass/volume] in Blood"
        },
        "valueQuantity": {
          "system": "http://unitsofmeasure.org",
          "value": 10.1,
          "unit": "mg/dL",
          "code": "mg/dL"
        },
        "referenceRange": [
          {
            "low": {
              "value": 8.6,
              "code": "mg/dL",
              "system": "http://unitsofmeasure.org"
            }
          },
          {
            "high": {
              "value": 10.4,
              "code": "mg/dL",
              "system": "http://unitsofmeasure.org"
            }
          }
        ],
        "text": {
          "status": "generated",
          "div": "<div xmlns=\"http://www.w3.org/1999/xhtml\"><table class=\"hl7__eu__lab__report\"><tr><th>Test</th><th>14-Jan-2016</th><th>Reference&#xA0;Range</th><th>Unit</th></tr><tr><td>Calcium [Mass/volume] in Blood</td><td>10.1</td><td>8.6 - 10.4</td><td></td><td>mg/dL</td></tr></table></div>"
        },
        "status": "final",
        "subject": {
          "reference": "urn:uuid:cc3df238-3b6b-4ffa-8d09-a05727ee241e",
          "display": "Iva Kratochvílová"
        },
        "effectiveDateTime": "2016-01-14T21:25:29Z",
        "specimen": {
          "reference": "urn:uuid:f4c3ef9e-cc13-4f01-8ed9-415f15fca0ca"
        }
      }
    },
    {
      "fullUrl": "urn:uuid:025d6f77-013f-4d71-9509-63889d23ca9f",
      "resource": {
        "resourceType": "Observation",
        "id": "025d6f77-013f-4d71-9509-63889d23ca9f",
        "meta": {
          "profile": [
            "http://hl7.eu/fhir/laboratory/StructureDefinition/Observation-resultslab-eu-lab"
          ]
        },
        "performer": [
          {
            "display": "The Central European Lab"
          }
        ],
        "category": [
          {
            "coding": [
              {
                "system": "http://terminology.hl7.org/CodeSystem/observation-category",
                "code": "laboratory"
              }
            ]
          }
        ],
        "code": {
          "coding": [
            {
              "code": "2947-0",
              "system": "http://loinc.org",
              "display": "Sodium [Moles/volume] in Blood"
            }
          ],
          "text": "Sodium [Moles/volume] in Blood"
        },
        "valueQuantity": {
          "system": "http://unitsofmeasure.org",
          "value": 137.7,
          "unit": "mmol/L",
          "code": "mmol/L"
        },
        "referenceRange": [
          {
            "low": {
              "value": 135,
              "code": "mmol/L",
              "system": "http://unitsofmeasure.org"
            }
          },
          {
            "high": {
              "value": 145,
              "code": "mmol/L",
              "system": "http://unitsofmeasure.org"
            }
          }
        ],
        "text": {
          "status": "generated",
          "div": "<div xmlns=\"http://www.w3.org/1999/xhtml\"><table class=\"hl7__eu__lab__report\"><tr><th>Test</th><th>14-Jan-2016</th><th>Reference&#xA0;Range</th><th>Unit</th></tr><tr><td>Sodium [Moles/volume] in Blood</td><td>137.7</td><td>135 - 145</td><td></td><td>mmol/L</td></tr></table></div>"
        },
        "status": "final",
        "subject": {
          "reference": "urn:uuid:cc3df238-3b6b-4ffa-8d09-a05727ee241e",
          "display": "Iva Kratochvílová"
        },
        "effectiveDateTime": "2016-01-14T21:25:29Z",
        "specimen": {
          "reference": "urn:uuid:f4c3ef9e-cc13-4f01-8ed9-415f15fca0ca"
        }
      }
    },
    {
      "fullUrl": "urn:uuid:127b5fcc-f00b-42d5-9477-6e42afec7f0b",
      "resource": {
        "resourceType": "Observation",
        "id": "127b5fcc-f00b-42d5-9477-6e42afec7f0b",
        "meta": {
          "profile": [
            "http://hl7.eu/fhir/laboratory/StructureDefinition/Observation-resultslab-eu-lab"
          ]
        },
        "performer": [
          {
            "display": "The Central European Lab"
          }
        ],
        "category": [
          {
            "coding": [
              {
                "system": "http://terminology.hl7.org/CodeSystem/observation-category",
                "code": "laboratory"
              }
            ]
          }
        ],
        "code": {
          "coding": [
            {
              "code": "6298-4",
              "system": "http://loinc.org",
              "display": "Potassium [Moles/volume] in Blood"
            }
          ],
          "text": "Potassium [Moles/volume] in Blood"
        },
        "valueQuantity": {
          "system": "http://unitsofmeasure.org",
          "value": 4.2,
          "unit": "mmol/L",
          "code": "mmol/L"
        },
        "referenceRange": [
          {
            "low": {
              "value": 3.5,
              "code": "mmol/L",
              "system": "http://unitsofmeasure.org"
            }
          },
          {
            "high": {
              "value": 5.1,
              "code": "mmol/L",
              "system": "http://unitsofmeasure.org"
            }
          }
        ],
        "text": {
          "status": "generated",
          "div": "<div xmlns=\"http://www.w3.org/1999/xhtml\"><table class=\"hl7__eu__lab__report\"><tr><th>Test</th><th>14-Jan-2016</th><th>Reference&#xA0;Range</th><th>Unit</th></tr><tr><td>Potassium [Moles/volume] in Blood</td><td>4.2</td><td>3.5 - 5.1</td><td></td><td>mmol/L</td></tr></table></div>"
        },
        "status": "final",
        "subject": {
          "reference": "urn:uuid:cc3df238-3b6b-4ffa-8d09-a05727ee241e",
          "display": "Iva Kratochvílová"
        },
        "effectiveDateTime": "2016-01-14T21:25:29Z",
        "specimen": {
          "reference": "urn:uuid:f4c3ef9e-cc13-4f01-8ed9-415f15fca0ca"
        }
      }
    },
    {
      "fullUrl": "urn:uuid:aa6060e5-07cd-473a-aa21-81928ba3e188",
      "resource": {
        "resourceType": "Observation",
        "id": "aa6060e5-07cd-473a-aa21-81928ba3e188",
        "meta": {
          "profile": [
            "http://hl7.eu/fhir/laboratory/StructureDefinition/Observation-resultslab-eu-lab"
          ]
        },
        "performer": [
          {
            "display": "The Central European Lab"
          }
        ],
        "category": [
          {
            "coding": [
              {
                "system": "http://terminology.hl7.org/CodeSystem/observation-category",
                "code": "laboratory"
              }
            ]
          }
        ],
        "code": {
          "coding": [
            {
              "code": "2069-3",
              "system": "http://loinc.org",
              "display": "Chloride [Moles/volume] in Blood"
            }
          ],
          "text": "Chloride [Moles/volume] in Blood"
        },
        "valueQuantity": {
          "system": "http://unitsofmeasure.org",
          "value": 110,
          "unit": "mmol/L",
          "code": "mmol/L"
        },
        "referenceRange": [
          {
            "low": {
              "value": 98,
              "code": "mmol/L",
              "system": "http://unitsofmeasure.org"
            }
          },
          {
            "high": {
              "value": 110,
              "code": "mmol/L",
              "system": "http://unitsofmeasure.org"
            }
          }
        ],
        "text": {
          "status": "generated",
          "div": "<div xmlns=\"http://www.w3.org/1999/xhtml\"><table class=\"hl7__eu__lab__report\"><tr><th>Test</th><th>14-Jan-2016</th><th>Reference&#xA0;Range</th><th>Unit</th></tr><tr><td>Chloride [Moles/volume] in Blood</td><td>110.0</td><td>98 - 110</td><td></td><td>mmol/L</td></tr></table></div>"
        },
        "status": "final",
        "subject": {
          "reference": "urn:uuid:cc3df238-3b6b-4ffa-8d09-a05727ee241e",
          "display": "Iva Kratochvílová"
        },
        "effectiveDateTime": "2016-01-14T21:25:29Z",
        "specimen": {
          "reference": "urn:uuid:f4c3ef9e-cc13-4f01-8ed9-415f15fca0ca"
        }
      }
    },
    {
      "fullUrl": "urn:uuid:96356bc8-db3a-4d5d-b2a3-00648045a240",
      "resource": {
        "resourceType": "Observation",
        "id": "96356bc8-db3a-4d5d-b2a3-00648045a240",
        "meta": {
          "profile": [
            "http://hl7.eu/fhir/laboratory/StructureDefinition/Observation-resultslab-eu-lab"
          ]
        },
        "performer": [
          {
            "display": "The Central European Lab"
          }
        ],
        "category": [
          {
            "coding": [
              {
                "system": "http://terminology.hl7.org/CodeSystem/observation-category",
                "code": "laboratory"
              }
            ]
          }
        ],
        "code": {
          "coding": [
            {
              "code": "20565-8",
              "system": "http://loinc.org",
              "display": "Carbon dioxide, total [Moles/volume] in Blood"
            }
          ],
          "text": "Carbon dioxide, total [Moles/volume] in Blood"
        },
        "valueQuantity": {
          "system": "http://unitsofmeasure.org",
          "value": 28.7,
          "unit": "mmol/L",
          "code": "mmol/L"
        },
        "referenceRange": [
          {
            "low": {
              "value": 22,
              "code": "mmol/L",
              "system": "http://unitsofmeasure.org"
            }
          },
          {
            "high": {
              "value": 29,
              "code": "mmol/L",
              "system": "http://unitsofmeasure.org"
            }
          }
        ],
        "text": {
          "status": "generated",
          "div": "<div xmlns=\"http://www.w3.org/1999/xhtml\"><table class=\"hl7__eu__lab__report\"><tr><th>Test</th><th>14-Jan-2016</th><th>Reference&#xA0;Range</th><th>Unit</th></tr><tr><td>Carbon dioxide, total [Moles/volume] in Blood</td><td>28.7</td><td>22 - 29</td><td></td><td>mmol/L</td></tr></table></div>"
        },
        "status": "final",
        "subject": {
          "reference": "urn:uuid:cc3df238-3b6b-4ffa-8d09-a05727ee241e",
          "display": "Iva Kratochvílová"
        },
        "effectiveDateTime": "2016-01-14T21:25:29Z",
        "specimen": {
          "reference": "urn:uuid:f4c3ef9e-cc13-4f01-8ed9-415f15fca0ca"
        }
      }
    },
    {
      "fullUrl": "urn:uuid:37a669d3-f5b0-4f2f-9121-08c25482040b",
      "resource": {
        "resourceType": "Observation",
        "id": "37a669d3-f5b0-4f2f-9121-08c25482040b",
        "meta": {
          "profile": [
            "http://hl7.eu/fhir/laboratory/StructureDefinition/Observation-resultslab-eu-lab"
          ]
        },
        "performer": [
          {
            "display": "The Central European Lab"
          }
        ],
        "category": [
          {
            "coding": [
              {
                "system": "http://terminology.hl7.org/CodeSystem/observation-category",
                "code": "laboratory"
              }
            ]
          }
        ],
        "code": {
          "coding": [
            {
              "code": "2885-2",
              "system": "http://loinc.org",
              "display": "Protein [Mass/volume] in Serum or Plasma"
            }
          ],
          "text": "Protein [Mass/volume] in Serum or Plasma"
        },
        "valueQuantity": {
          "system": "http://unitsofmeasure.org",
          "value": 7.6,
          "unit": "g/dL",
          "code": "g/dL"
        },
        "referenceRange": [
          {
            "low": {
              "value": 6.6,
              "code": "g/dL",
              "system": "http://unitsofmeasure.org"
            }
          },
          {
            "high": {
              "value": 8.3,
              "code": "g/dL",
              "system": "http://unitsofmeasure.org"
            }
          }
        ],
        "text": {
          "status": "generated",
          "div": "<div xmlns=\"http://www.w3.org/1999/xhtml\"><table class=\"hl7__eu__lab__report\"><tr><th>Test</th><th>14-Jan-2016</th><th>Reference&#xA0;Range</th><th>Unit</th></tr><tr><td>Protein [Mass/volume] in Serum or Plasma</td><td>7.6</td><td>6.6 - 8.3</td><td></td><td>g/dL</td></tr></table></div>"
        },
        "status": "final",
        "subject": {
          "reference": "urn:uuid:cc3df238-3b6b-4ffa-8d09-a05727ee241e",
          "display": "Iva Kratochvílová"
        },
        "effectiveDateTime": "2016-01-14T21:25:29Z",
        "specimen": {
          "reference": "urn:uuid:f919e8ba-70f9-4871-989b-562377ada236"
        }
      }
    },
    {
      "fullUrl": "urn:uuid:5a534990-24dc-4f2e-8ff8-0e9cd0652e45",
      "resource": {
        "resourceType": "Observation",
        "id": "5a534990-24dc-4f2e-8ff8-0e9cd0652e45",
        "meta": {
          "profile": [
            "http://hl7.eu/fhir/laboratory/StructureDefinition/Observation-resultslab-eu-lab"
          ]
        },
        "performer": [
          {
            "display": "The Central European Lab"
          }
        ],
        "category": [
          {
            "coding": [
              {
                "system": "http://terminology.hl7.org/CodeSystem/observation-category",
                "code": "laboratory"
              }
            ]
          }
        ],
        "code": {
          "coding": [
            {
              "code": "1751-7",
              "system": "http://loinc.org",
              "display": "Albumin [Mass/volume] in Serum or Plasma"
            }
          ],
          "text": "Albumin [Mass/volume] in Serum or Plasma"
        },
        "valueQuantity": {
          "system": "http://unitsofmeasure.org",
          "value": 4.5,
          "unit": "g/dL",
          "code": "g/dL"
        },
        "referenceRange": [
          {
            "low": {
              "value": 3.5,
              "code": "g/dL",
              "system": "http://unitsofmeasure.org"
            }
          },
          {
            "high": {
              "value": 5,
              "code": "g/dL",
              "system": "http://unitsofmeasure.org"
            }
          }
        ],
        "text": {
          "status": "generated",
          "div": "<div xmlns=\"http://www.w3.org/1999/xhtml\"><table class=\"hl7__eu__lab__report\"><tr><th>Test</th><th>14-Jan-2016</th><th>Reference&#xA0;Range</th><th>Unit</th></tr><tr><td>Albumin [Mass/volume] in Serum or Plasma</td><td>4.5</td><td>3.5 - 5</td><td></td><td>g/dL</td></tr></table></div>"
        },
        "status": "final",
        "subject": {
          "reference": "urn:uuid:cc3df238-3b6b-4ffa-8d09-a05727ee241e",
          "display": "Iva Kratochvílová"
        },
        "effectiveDateTime": "2016-01-14T21:25:29Z",
        "specimen": {
          "reference": "urn:uuid:f919e8ba-70f9-4871-989b-562377ada236"
        }
      }
    },
    {
      "fullUrl": "urn:uuid:0ec526d3-c085-4416-8edf-e83a6f59dbad",
      "resource": {
        "resourceType": "Observation",
        "id": "0ec526d3-c085-4416-8edf-e83a6f59dbad",
        "meta": {
          "profile": [
            "http://hl7.eu/fhir/laboratory/StructureDefinition/Observation-resultslab-eu-lab"
          ]
        },
        "performer": [
          {
            "display": "The Central European Lab"
          }
        ],
        "category": [
          {
            "coding": [
              {
                "system": "http://terminology.hl7.org/CodeSystem/observation-category",
                "code": "laboratory"
              }
            ]
          }
        ],
        "code": {
          "coding": [
            {
              "code": "10834-0",
              "system": "http://loinc.org",
              "display": "Globulin [Mass/volume] in Serum by calculation"
            }
          ],
          "text": "Globulin [Mass/volume] in Serum by calculation"
        },
        "valueQuantity": {
          "system": "http://unitsofmeasure.org",
          "value": 2.8,
          "unit": "g/L",
          "code": "g/L"
        },
        "referenceRange": [
          {
            "low": {
              "value": 2,
              "code": "g/L",
              "system": "http://unitsofmeasure.org"
            }
          },
          {
            "high": {
              "value": 3.5,
              "code": "g/L",
              "system": "http://unitsofmeasure.org"
            }
          }
        ],
        "text": {
          "status": "generated",
          "div": "<div xmlns=\"http://www.w3.org/1999/xhtml\"><table class=\"hl7__eu__lab__report\"><tr><th>Test</th><th>14-Jan-2016</th><th>Reference&#xA0;Range</th><th>Unit</th></tr><tr><td>Globulin [Mass/volume] in Serum by calculation</td><td>2.8</td><td>2 - 3.5</td><td></td><td>g/L</td></tr></table></div>"
        },
        "status": "final",
        "subject": {
          "reference": "urn:uuid:cc3df238-3b6b-4ffa-8d09-a05727ee241e",
          "display": "Iva Kratochvílová"
        },
        "effectiveDateTime": "2016-01-14T21:25:29Z",
        "specimen": {
          "reference": "urn:uuid:f59acc9a-1136-4ad1-bbdf-a901009d8911"
        }
      }
    },
    {
      "fullUrl": "urn:uuid:fe68ceb0-0393-4434-8492-c8d4f4b844e2",
      "resource": {
        "resourceType": "Observation",
        "id": "fe68ceb0-0393-4434-8492-c8d4f4b844e2",
        "meta": {
          "profile": [
            "http://hl7.eu/fhir/laboratory/StructureDefinition/Observation-resultslab-eu-lab"
          ]
        },
        "performer": [
          {
            "display": "The Central European Lab"
          }
        ],
        "category": [
          {
            "coding": [
              {
                "system": "http://terminology.hl7.org/CodeSystem/observation-category",
                "code": "laboratory"
              }
            ]
          }
        ],
        "code": {
          "coding": [
            {
              "code": "1975-2",
              "system": "http://loinc.org",
              "display": "Bilirubin.total [Mass/volume] in Serum or Plasma"
            }
          ],
          "text": "Bilirubin.total [Mass/volume] in Serum or Plasma"
        },
        "valueQuantity": {
          "system": "http://unitsofmeasure.org",
          "value": 1.2,
          "unit": "mg/dL",
          "code": "mg/dL"
        },
        "referenceRange": [
          {
            "low": {
              "value": 0.3,
              "code": "mg/dL",
              "system": "http://unitsofmeasure.org"
            }
          },
          {
            "high": {
              "value": 1.2,
              "code": "mg/dL",
              "system": "http://unitsofmeasure.org"
            }
          }
        ],
        "text": {
          "status": "generated",
          "div": "<div xmlns=\"http://www.w3.org/1999/xhtml\"><table class=\"hl7__eu__lab__report\"><tr><th>Test</th><th>14-Jan-2016</th><th>Reference&#xA0;Range</th><th>Unit</th></tr><tr><td>Bilirubin.total [Mass/volume] in Serum or Plasma</td><td>1.2</td><td>0.3 - 1.2</td><td></td><td>mg/dL</td></tr></table></div>"
        },
        "status": "final",
        "subject": {
          "reference": "urn:uuid:cc3df238-3b6b-4ffa-8d09-a05727ee241e",
          "display": "Iva Kratochvílová"
        },
        "effectiveDateTime": "2016-01-14T21:25:29Z",
        "specimen": {
          "reference": "urn:uuid:f919e8ba-70f9-4871-989b-562377ada236"
        }
      }
    },
    {
      "fullUrl": "urn:uuid:793d454d-4297-4d3c-a115-eca9876bcbb6",
      "resource": {
        "resourceType": "Observation",
        "id": "793d454d-4297-4d3c-a115-eca9876bcbb6",
        "meta": {
          "profile": [
            "http://hl7.eu/fhir/laboratory/StructureDefinition/Observation-resultslab-eu-lab"
          ]
        },
        "performer": [
          {
            "display": "The Central European Lab"
          }
        ],
        "category": [
          {
            "coding": [
              {
                "system": "http://terminology.hl7.org/CodeSystem/observation-category",
                "code": "laboratory"
              }
            ]
          }
        ],
        "code": {
          "coding": [
            {
              "code": "6768-6",
              "system": "http://loinc.org",
              "display": "Alkaline phosphatase [Enzymatic activity/volume] in Serum or Plasma"
            }
          ],
          "text": "Alkaline phosphatase [Enzymatic activity/volume] in Serum or Plasma"
        },
        "valueQuantity": {
          "system": "http://unitsofmeasure.org",
          "value": 78.4,
          "unit": "U/L",
          "code": "U/L"
        },
        "referenceRange": [
          {
            "low": {
              "value": 39,
              "code": "U/L",
              "system": "http://unitsofmeasure.org"
            }
          },
          {
            "high": {
              "value": 141,
              "code": "U/L",
              "system": "http://unitsofmeasure.org"
            }
          }
        ],
        "text": {
          "status": "generated",
          "div": "<div xmlns=\"http://www.w3.org/1999/xhtml\"><table class=\"hl7__eu__lab__report\"><tr><th>Test</th><th>14-Jan-2016</th><th>Reference&#xA0;Range</th><th>Unit</th></tr><tr><td>Alkaline phosphatase [Enzymatic activity/volume] in Serum or Plasma</td><td>78.4</td><td>39 - 141</td><td></td><td>U/L</td></tr></table></div>"
        },
        "status": "final",
        "subject": {
          "reference": "urn:uuid:cc3df238-3b6b-4ffa-8d09-a05727ee241e",
          "display": "Iva Kratochvílová"
        },
        "effectiveDateTime": "2016-01-14T21:25:29Z",
        "specimen": {
          "reference": "urn:uuid:f919e8ba-70f9-4871-989b-562377ada236"
        }
      }
    },
    {
      "fullUrl": "urn:uuid:cd5a655a-f212-4e88-bf60-4769b26dd1da",
      "resource": {
        "resourceType": "Observation",
        "id": "cd5a655a-f212-4e88-bf60-4769b26dd1da",
        "meta": {
          "profile": [
            "http://hl7.eu/fhir/laboratory/StructureDefinition/Observation-resultslab-eu-lab"
          ]
        },
        "performer": [
          {
            "display": "The Central European Lab"
          }
        ],
        "category": [
          {
            "coding": [
              {
                "system": "http://terminology.hl7.org/CodeSystem/observation-category",
                "code": "laboratory"
              }
            ]
          }
        ],
        "code": {
          "coding": [
            {
              "code": "1742-6",
              "system": "http://loinc.org",
              "display": "Alanine aminotransferase [Enzymatic activity/volume] in Serum or Plasma"
            }
          ],
          "text": "Alanine aminotransferase [Enzymatic activity/volume] in Serum or Plasma"
        },
        "valueQuantity": {
          "system": "http://unitsofmeasure.org",
          "value": 53.6,
          "unit": "U/L",
          "code": "U/L"
        },
        "referenceRange": [
          {
            "low": {
              "value": 7,
              "code": "U/L",
              "system": "http://unitsofmeasure.org"
            }
          },
          {
            "high": {
              "value": 40,
              "code": "U/L",
              "system": "http://unitsofmeasure.org"
            }
          }
        ],
        "interpretation": [
          {
            "coding": [
              {
                "code": "H",
                "system": "http://terminology.hl7.org/CodeSystem/v3-ObservationInterpretation",
                "display": "High"
              }
            ]
          }
        ],
        "text": {
          "status": "generated",
          "div": "<div xmlns=\"http://www.w3.org/1999/xhtml\"><table class=\"hl7__eu__lab__report\"><tr><th>Test</th><th>14-Jan-2016</th><th>Reference&#xA0;Range</th><th>Unit</th></tr><tr><td>Alanine aminotransferase [Enzymatic activity/volume] in Serum or Plasma</td><td>53.6</td><td>7 - 40</td><td>H</td><td>U/L</td></tr></table></div>"
        },
        "status": "final",
        "subject": {
          "reference": "urn:uuid:cc3df238-3b6b-4ffa-8d09-a05727ee241e",
          "display": "Iva Kratochvílová"
        },
        "effectiveDateTime": "2016-01-14T21:25:29Z",
        "specimen": {
          "reference": "urn:uuid:f919e8ba-70f9-4871-989b-562377ada236"
        }
      }
    },
    {
      "fullUrl": "urn:uuid:d6c0ad28-65af-46d3-9adb-50daf0924f90",
      "resource": {
        "resourceType": "Observation",
        "id": "d6c0ad28-65af-46d3-9adb-50daf0924f90",
        "meta": {
          "profile": [
            "http://hl7.eu/fhir/laboratory/StructureDefinition/Observation-resultslab-eu-lab"
          ]
        },
        "performer": [
          {
            "display": "The Central European Lab"
          }
        ],
        "category": [
          {
            "coding": [
              {
                "system": "http://terminology.hl7.org/CodeSystem/observation-category",
                "code": "laboratory"
              }
            ]
          }
        ],
        "code": {
          "coding": [
            {
              "code": "1920-8",
              "system": "http://loinc.org",
              "display": "Aspartate aminotransferase [Enzymatic activity/volume] in Serum or Plasma"
            }
          ],
          "text": "Aspartate aminotransferase [Enzymatic activity/volume] in Serum or Plasma"
        },
        "valueQuantity": {
          "system": "http://unitsofmeasure.org",
          "value": 13.4,
          "unit": "U/L",
          "code": "U/L"
        },
        "referenceRange": [
          {
            "low": {
              "value": 10,
              "code": "U/L",
              "system": "http://unitsofmeasure.org"
            }
          },
          {
            "high": {
              "value": 32,
              "code": "U/L",
              "system": "http://unitsofmeasure.org"
            }
          }
        ],
        "text": {
          "status": "generated",
          "div": "<div xmlns=\"http://www.w3.org/1999/xhtml\"><table class=\"hl7__eu__lab__report\"><tr><th>Test</th><th>14-Jan-2016</th><th>Reference&#xA0;Range</th><th>Unit</th></tr><tr><td>Aspartate aminotransferase [Enzymatic activity/volume] in Serum or Plasma</td><td>13.4</td><td>10 - 32</td><td></td><td>U/L</td></tr></table></div>"
        },
        "status": "final",
        "subject": {
          "reference": "urn:uuid:cc3df238-3b6b-4ffa-8d09-a05727ee241e",
          "display": "Iva Kratochvílová"
        },
        "effectiveDateTime": "2016-01-14T21:25:29Z",
        "specimen": {
          "reference": "urn:uuid:f919e8ba-70f9-4871-989b-562377ada236"
        }
      }
    },
    {
      "fullUrl": "urn:uuid:7fbe653d-de1a-4eca-996b-3f720c1b5d41",
      "resource": {
        "resourceType": "Observation",
        "id": "7fbe653d-de1a-4eca-996b-3f720c1b5d41",
        "meta": {
          "profile": [
            "http://hl7.eu/fhir/laboratory/StructureDefinition/Observation-resultslab-eu-lab"
          ]
        },
        "performer": [
          {
            "display": "The Central European Lab"
          }
        ],
        "category": [
          {
            "coding": [
              {
                "system": "http://terminology.hl7.org/CodeSystem/observation-category",
                "code": "laboratory"
              }
            ]
          }
        ],
        "code": {
          "coding": [
            {
              "code": "5767-9",
              "system": "http://loinc.org",
              "display": "Appearance of Urine"
            }
          ],
          "text": "Appearance of Urine"
        },
        "text": {
          "status": "generated",
          "div": "<div xmlns=\"http://www.w3.org/1999/xhtml\"><table class=\"hl7__eu__lab__report\"><tr><th>Test</th><th>14-Jan-2016</th><th>Reference&#xA0;Range</th><th>Unit</th></tr><tr><td>Appearance of Urine</td></tr></table></div>"
        },
        "status": "final",
        "subject": {
          "reference": "urn:uuid:cc3df238-3b6b-4ffa-8d09-a05727ee241e",
          "display": "Iva Kratochvílová"
        },
        "effectiveDateTime": "2016-01-14T21:25:29Z",
        "specimen": {
          "reference": "urn:uuid:a2094929-89fd-4b86-bb80-38a3681524a0"
        }
      }
    },
    {
      "fullUrl": "urn:uuid:c69745f5-28f8-43b3-89f8-652381e03491",
      "resource": {
        "resourceType": "Observation",
        "id": "c69745f5-28f8-43b3-89f8-652381e03491",
        "meta": {
          "profile": [
            "http://hl7.eu/fhir/laboratory/StructureDefinition/Observation-resultslab-eu-lab"
          ]
        },
        "performer": [
          {
            "display": "The Central European Lab"
          }
        ],
        "category": [
          {
            "coding": [
              {
                "system": "http://terminology.hl7.org/CodeSystem/observation-category",
                "code": "laboratory"
              }
            ]
          }
        ],
        "code": {
          "coding": [
            {
              "code": "34533-0",
              "system": "http://loinc.org",
              "display": "Odor of Urine"
            }
          ],
          "text": "Odor of Urine"
        },
        "text": {
          "status": "generated",
          "div": "<div xmlns=\"http://www.w3.org/1999/xhtml\"><table class=\"hl7__eu__lab__report\"><tr><th>Test</th><th>14-Jan-2016</th><th>Reference&#xA0;Range</th><th>Unit</th></tr><tr><td>Odor of Urine</td></tr></table></div>"
        },
        "status": "final",
        "subject": {
          "reference": "urn:uuid:cc3df238-3b6b-4ffa-8d09-a05727ee241e",
          "display": "Iva Kratochvílová"
        },
        "effectiveDateTime": "2016-01-14T21:25:29Z",
        "specimen": {
          "reference": "urn:uuid:a2094929-89fd-4b86-bb80-38a3681524a0"
        }
      }
    },
    {
      "fullUrl": "urn:uuid:587735e2-9efc-4c87-a697-267212c46473",
      "resource": {
        "resourceType": "Observation",
        "id": "587735e2-9efc-4c87-a697-267212c46473",
        "meta": {
          "profile": [
            "http://hl7.eu/fhir/laboratory/StructureDefinition/Observation-resultslab-eu-lab"
          ]
        },
        "performer": [
          {
            "display": "The Central European Lab"
          }
        ],
        "category": [
          {
            "coding": [
              {
                "system": "http://terminology.hl7.org/CodeSystem/observation-category",
                "code": "laboratory"
              }
            ]
          }
        ],
        "code": {
          "coding": [
            {
              "code": "32167-9",
              "system": "http://loinc.org",
              "display": "Clarity of Urine"
            }
          ],
          "text": "Clarity of Urine"
        },
        "text": {
          "status": "generated",
          "div": "<div xmlns=\"http://www.w3.org/1999/xhtml\"><table class=\"hl7__eu__lab__report\"><tr><th>Test</th><th>14-Jan-2016</th><th>Reference&#xA0;Range</th><th>Unit</th></tr><tr><td>Clarity of Urine</td></tr></table></div>"
        },
        "status": "final",
        "subject": {
          "reference": "urn:uuid:cc3df238-3b6b-4ffa-8d09-a05727ee241e",
          "display": "Iva Kratochvílová"
        },
        "effectiveDateTime": "2016-01-14T21:25:29Z",
        "specimen": {
          "reference": "urn:uuid:a2094929-89fd-4b86-bb80-38a3681524a0"
        }
      }
    },
    {
      "fullUrl": "urn:uuid:fcaee1b4-12f6-4f1a-87ed-a3dff1931e99",
      "resource": {
        "resourceType": "Observation",
        "id": "fcaee1b4-12f6-4f1a-87ed-a3dff1931e99",
        "meta": {
          "profile": [
            "http://hl7.eu/fhir/laboratory/StructureDefinition/Observation-resultslab-eu-lab"
          ]
        },
        "performer": [
          {
            "display": "The Central European Lab"
          }
        ],
        "category": [
          {
            "coding": [
              {
                "system": "http://terminology.hl7.org/CodeSystem/observation-category",
                "code": "laboratory"
              }
            ]
          }
        ],
        "code": {
          "coding": [
            {
              "code": "5778-6",
              "system": "http://loinc.org",
              "display": "Color of Urine"
            }
          ],
          "text": "Color of Urine"
        },
        "text": {
          "status": "generated",
          "div": "<div xmlns=\"http://www.w3.org/1999/xhtml\"><table class=\"hl7__eu__lab__report\"><tr><th>Test</th><th>14-Jan-2016</th><th>Reference&#xA0;Range</th><th>Unit</th></tr><tr><td>Color of Urine</td></tr></table></div>"
        },
        "status": "final",
        "subject": {
          "reference": "urn:uuid:cc3df238-3b6b-4ffa-8d09-a05727ee241e",
          "display": "Iva Kratochvílová"
        },
        "effectiveDateTime": "2016-01-14T21:25:29Z",
        "specimen": {
          "reference": "urn:uuid:a2094929-89fd-4b86-bb80-38a3681524a0"
        }
      }
    },
    {
      "fullUrl": "urn:uuid:db087680-e4fd-4c72-b666-4a58acc246f7",
      "resource": {
        "resourceType": "Observation",
        "id": "db087680-e4fd-4c72-b666-4a58acc246f7",
        "meta": {
          "profile": [
            "http://hl7.eu/fhir/laboratory/StructureDefinition/Observation-resultslab-eu-lab"
          ]
        },
        "performer": [
          {
            "display": "The Central European Lab"
          }
        ],
        "category": [
          {
            "coding": [
              {
                "system": "http://terminology.hl7.org/CodeSystem/observation-category",
                "code": "laboratory"
              }
            ]
          }
        ],
        "code": {
          "coding": [
            {
              "code": "5792-7",
              "system": "http://loinc.org",
              "display": "Glucose [Mass/volume] in Urine by Test strip"
            }
          ],
          "text": "Glucose [Mass/volume] in Urine by Test strip"
        },
        "valueQuantity": {
          "system": "http://unitsofmeasure.org",
          "value": 1.3,
          "unit": "mg/dL",
          "code": "mg/dL"
        },
        "referenceRange": [
          {
            "low": {
              "value": 0,
              "code": "mg/dL",
              "system": "http://unitsofmeasure.org"
            }
          },
          {
            "high": {
              "value": 0.8,
              "code": "mg/dL",
              "system": "http://unitsofmeasure.org"
            }
          }
        ],
        "interpretation": [
          {
            "coding": [
              {
                "code": "H",
                "system": "http://terminology.hl7.org/CodeSystem/v3-ObservationInterpretation",
                "display": "High"
              }
            ]
          }
        ],
        "text": {
          "status": "generated",
          "div": "<div xmlns=\"http://www.w3.org/1999/xhtml\"><table class=\"hl7__eu__lab__report\"><tr><th>Test</th><th>14-Jan-2016</th><th>Reference&#xA0;Range</th><th>Unit</th></tr><tr><td>Glucose [Mass/volume] in Urine by Test strip</td><td>1.3</td><td>0 - 0.8</td><td>H</td><td>mg/dL</td></tr></table></div>"
        },
        "status": "final",
        "subject": {
          "reference": "urn:uuid:cc3df238-3b6b-4ffa-8d09-a05727ee241e",
          "display": "Iva Kratochvílová"
        },
        "effectiveDateTime": "2016-01-14T21:25:29Z",
        "specimen": {
          "reference": "urn:uuid:a2094929-89fd-4b86-bb80-38a3681524a0"
        }
      }
    },
    {
      "fullUrl": "urn:uuid:37efef30-3593-42d4-a084-94a00796496d",
      "resource": {
        "resourceType": "Observation",
        "id": "37efef30-3593-42d4-a084-94a00796496d",
        "meta": {
          "profile": [
            "http://hl7.eu/fhir/laboratory/StructureDefinition/Observation-resultslab-eu-lab"
          ]
        },
        "performer": [
          {
            "display": "The Central European Lab"
          }
        ],
        "category": [
          {
            "coding": [
              {
                "system": "http://terminology.hl7.org/CodeSystem/observation-category",
                "code": "laboratory"
              }
            ]
          }
        ],
        "code": {
          "coding": [
            {
              "code": "25428-4",
              "system": "http://loinc.org",
              "display": "Glucose [Presence] in Urine by Test strip"
            }
          ],
          "text": "Glucose [Presence] in Urine by Test strip"
        },
        "text": {
          "status": "generated",
          "div": "<div xmlns=\"http://www.w3.org/1999/xhtml\"><table class=\"hl7__eu__lab__report\"><tr><th>Test</th><th>14-Jan-2016</th><th>Reference&#xA0;Range</th><th>Unit</th></tr><tr><td>Glucose [Presence] in Urine by Test strip</td></tr></table></div>"
        },
        "status": "final",
        "subject": {
          "reference": "urn:uuid:cc3df238-3b6b-4ffa-8d09-a05727ee241e",
          "display": "Iva Kratochvílová"
        },
        "effectiveDateTime": "2016-01-14T21:25:29Z",
        "specimen": {
          "reference": "urn:uuid:a2094929-89fd-4b86-bb80-38a3681524a0"
        }
      }
    },
    {
      "fullUrl": "urn:uuid:75420358-420f-4dab-b5c4-475c56dbab30",
      "resource": {
        "resourceType": "Observation",
        "id": "75420358-420f-4dab-b5c4-475c56dbab30",
        "meta": {
          "profile": [
            "http://hl7.eu/fhir/laboratory/StructureDefinition/Observation-resultslab-eu-lab"
          ]
        },
        "performer": [
          {
            "display": "The Central European Lab"
          }
        ],
        "category": [
          {
            "coding": [
              {
                "system": "http://terminology.hl7.org/CodeSystem/observation-category",
                "code": "laboratory"
              }
            ]
          }
        ],
        "code": {
          "coding": [
            {
              "code": "20505-4",
              "system": "http://loinc.org",
              "display": "Bilirubin.total [Mass/volume] in Urine by Test strip"
            }
          ],
          "text": "Bilirubin.total [Mass/volume] in Urine by Test strip"
        },
        "valueQuantity": {
          "system": "http://unitsofmeasure.org",
          "value": 0.6,
          "unit": "mg/dL",
          "code": "mg/dL"
        },
        "referenceRange": [
          {
            "low": {
              "value": 0,
              "code": "mg/dL",
              "system": "http://unitsofmeasure.org"
            }
          },
          {
            "high": {
              "value": 1,
              "code": "mg/dL",
              "system": "http://unitsofmeasure.org"
            }
          }
        ],
        "text": {
          "status": "generated",
          "div": "<div xmlns=\"http://www.w3.org/1999/xhtml\"><table class=\"hl7__eu__lab__report\"><tr><th>Test</th><th>14-Jan-2016</th><th>Reference&#xA0;Range</th><th>Unit</th></tr><tr><td>Bilirubin.total [Mass/volume] in Urine by Test strip</td><td>0.6</td><td>0 - 1</td><td></td><td>mg/dL</td></tr></table></div>"
        },
        "status": "final",
        "subject": {
          "reference": "urn:uuid:cc3df238-3b6b-4ffa-8d09-a05727ee241e",
          "display": "Iva Kratochvílová"
        },
        "effectiveDateTime": "2016-01-14T21:25:29Z",
        "specimen": {
          "reference": "urn:uuid:a2094929-89fd-4b86-bb80-38a3681524a0"
        }
      }
    },
    {
      "fullUrl": "urn:uuid:3daa3e06-dab1-4118-b142-79e0515a3dca",
      "resource": {
        "resourceType": "Observation",
        "id": "3daa3e06-dab1-4118-b142-79e0515a3dca",
        "meta": {
          "profile": [
            "http://hl7.eu/fhir/laboratory/StructureDefinition/Observation-resultslab-eu-lab"
          ]
        },
        "performer": [
          {
            "display": "The Central European Lab"
          }
        ],
        "category": [
          {
            "coding": [
              {
                "system": "http://terminology.hl7.org/CodeSystem/observation-category",
                "code": "laboratory"
              }
            ]
          }
        ],
        "code": {
          "coding": [
            {
              "code": "5770-3",
              "system": "http://loinc.org",
              "display": "Bilirubin.total [Presence] in Urine by Test strip"
            }
          ],
          "text": "Bilirubin.total [Presence] in Urine by Test strip"
        },
        "text": {
          "status": "generated",
          "div": "<div xmlns=\"http://www.w3.org/1999/xhtml\"><table class=\"hl7__eu__lab__report\"><tr><th>Test</th><th>14-Jan-2016</th><th>Reference&#xA0;Range</th><th>Unit</th></tr><tr><td>Bilirubin.total [Presence] in Urine by Test strip</td></tr></table></div>"
        },
        "status": "final",
        "subject": {
          "reference": "urn:uuid:cc3df238-3b6b-4ffa-8d09-a05727ee241e",
          "display": "Iva Kratochvílová"
        },
        "effectiveDateTime": "2016-01-14T21:25:29Z",
        "specimen": {
          "reference": "urn:uuid:a2094929-89fd-4b86-bb80-38a3681524a0"
        }
      }
    },
    {
      "fullUrl": "urn:uuid:1be100fb-2668-4e1a-8b4d-4ad8063a06c0",
      "resource": {
        "resourceType": "Observation",
        "id": "1be100fb-2668-4e1a-8b4d-4ad8063a06c0",
        "meta": {
          "profile": [
            "http://hl7.eu/fhir/laboratory/StructureDefinition/Observation-resultslab-eu-lab"
          ]
        },
        "performer": [
          {
            "display": "The Central European Lab"
          }
        ],
        "category": [
          {
            "coding": [
              {
                "system": "http://terminology.hl7.org/CodeSystem/observation-category",
                "code": "laboratory"
              }
            ]
          }
        ],
        "code": {
          "coding": [
            {
              "code": "5797-6",
              "system": "http://loinc.org",
              "display": "Ketones [Mass/volume] in Urine by Test strip"
            }
          ],
          "text": "Ketones [Mass/volume] in Urine by Test strip"
        },
        "valueQuantity": {
          "system": "http://unitsofmeasure.org",
          "value": 3.6,
          "unit": "mg/dL",
          "code": "mg/dL"
        },
        "referenceRange": [
          {
            "low": {
              "value": 0,
              "code": "mg/dL",
              "system": "http://unitsofmeasure.org"
            }
          },
          {
            "high": {
              "value": 4,
              "code": "mg/dL",
              "system": "http://unitsofmeasure.org"
            }
          }
        ],
        "text": {
          "status": "generated",
          "div": "<div xmlns=\"http://www.w3.org/1999/xhtml\"><table class=\"hl7__eu__lab__report\"><tr><th>Test</th><th>14-Jan-2016</th><th>Reference&#xA0;Range</th><th>Unit</th></tr><tr><td>Ketones [Mass/volume] in Urine by Test strip</td><td>3.6</td><td>0 - 4</td><td></td><td>mg/dL</td></tr></table></div>"
        },
        "status": "final",
        "subject": {
          "reference": "urn:uuid:cc3df238-3b6b-4ffa-8d09-a05727ee241e",
          "display": "Iva Kratochvílová"
        },
        "effectiveDateTime": "2016-01-14T21:25:29Z",
        "specimen": {
          "reference": "urn:uuid:a2094929-89fd-4b86-bb80-38a3681524a0"
        }
      }
    },
    {
      "fullUrl": "urn:uuid:a7f2f207-0b29-4a77-b3fa-1d1d80ffcffb",
      "resource": {
        "resourceType": "Observation",
        "id": "a7f2f207-0b29-4a77-b3fa-1d1d80ffcffb",
        "meta": {
          "profile": [
            "http://hl7.eu/fhir/laboratory/StructureDefinition/Observation-resultslab-eu-lab"
          ]
        },
        "performer": [
          {
            "display": "The Central European Lab"
          }
        ],
        "category": [
          {
            "coding": [
              {
                "system": "http://terminology.hl7.org/CodeSystem/observation-category",
                "code": "laboratory"
              }
            ]
          }
        ],
        "code": {
          "coding": [
            {
              "code": "2514-8",
              "system": "http://loinc.org",
              "display": "Ketones [Presence] in Urine by Test strip"
            }
          ],
          "text": "Ketones [Presence] in Urine by Test strip"
        },
        "text": {
          "status": "generated",
          "div": "<div xmlns=\"http://www.w3.org/1999/xhtml\"><table class=\"hl7__eu__lab__report\"><tr><th>Test</th><th>14-Jan-2016</th><th>Reference&#xA0;Range</th><th>Unit</th></tr><tr><td>Ketones [Presence] in Urine by Test strip</td></tr></table></div>"
        },
        "status": "final",
        "subject": {
          "reference": "urn:uuid:cc3df238-3b6b-4ffa-8d09-a05727ee241e",
          "display": "Iva Kratochvílová"
        },
        "effectiveDateTime": "2016-01-14T21:25:29Z",
        "specimen": {
          "reference": "urn:uuid:a2094929-89fd-4b86-bb80-38a3681524a0"
        }
      }
    },
    {
      "fullUrl": "urn:uuid:e220a0f4-0266-4f62-8d07-a2f655e91ce0",
      "resource": {
        "resourceType": "Observation",
        "id": "e220a0f4-0266-4f62-8d07-a2f655e91ce0",
        "meta": {
          "profile": [
            "http://hl7.eu/fhir/laboratory/StructureDefinition/Observation-resultslab-eu-lab"
          ]
        },
        "performer": [
          {
            "display": "The Central European Lab"
          }
        ],
        "category": [
          {
            "coding": [
              {
                "system": "http://terminology.hl7.org/CodeSystem/observation-category",
                "code": "laboratory"
              }
            ]
          }
        ],
        "code": {
          "coding": [
            {
              "code": "5811-5",
              "system": "http://loinc.org",
              "display": "Specific gravity of Urine by Test strip"
            }
          ],
          "text": "Specific gravity of Urine by Test strip"
        },
        "valueQuantity": {
          "system": "http://unitsofmeasure.org",
          "value": 1,
          "unit": "{nominal}",
          "code": "{nominal}"
        },
        "referenceRange": [
          {
            "low": {
              "value": 1.005,
              "code": "g/mL",
              "system": "http://unitsofmeasure.org"
            }
          },
          {
            "high": {
              "value": 1.03,
              "code": "g/mL",
              "system": "http://unitsofmeasure.org"
            }
          }
        ],
        "interpretation": [
          {
            "coding": [
              {
                "code": "L",
                "system": "http://terminology.hl7.org/CodeSystem/v3-ObservationInterpretation",
                "display": "Low"
              }
            ]
          }
        ],
        "text": {
          "status": "generated",
          "div": "<div xmlns=\"http://www.w3.org/1999/xhtml\"><table class=\"hl7__eu__lab__report\"><tr><th>Test</th><th>14-Jan-2016</th><th>Reference&#xA0;Range</th><th>Unit</th></tr><tr><td>Specific gravity of Urine by Test strip</td><td>1.0</td><td>1.005 - 1.03</td><td>L</td><td>{nominal}</td></tr></table></div>"
        },
        "status": "final",
        "subject": {
          "reference": "urn:uuid:cc3df238-3b6b-4ffa-8d09-a05727ee241e",
          "display": "Iva Kratochvílová"
        },
        "effectiveDateTime": "2016-01-14T21:25:29Z",
        "specimen": {
          "reference": "urn:uuid:a2094929-89fd-4b86-bb80-38a3681524a0"
        }
      }
    },
    {
      "fullUrl": "urn:uuid:d06b49da-fa73-4863-aa03-dd3bf2f7aefd",
      "resource": {
        "resourceType": "Observation",
        "id": "d06b49da-fa73-4863-aa03-dd3bf2f7aefd",
        "meta": {
          "profile": [
            "http://hl7.eu/fhir/laboratory/StructureDefinition/Observation-resultslab-eu-lab"
          ]
        },
        "performer": [
          {
            "display": "The Central European Lab"
          }
        ],
        "category": [
          {
            "coding": [
              {
                "system": "http://terminology.hl7.org/CodeSystem/observation-category",
                "code": "laboratory"
              }
            ]
          }
        ],
        "code": {
          "coding": [
            {
              "code": "5803-2",
              "system": "http://loinc.org",
              "display": "pH of Urine by Test strip"
            }
          ],
          "text": "pH of Urine by Test strip"
        },
        "valueQuantity": {
          "system": "http://unitsofmeasure.org",
          "value": 6.5,
          "unit": "pH",
          "code": "pH"
        },
        "referenceRange": [
          {
            "low": {
              "value": 4.5,
              "code": "pH",
              "system": "http://unitsofmeasure.org"
            }
          },
          {
            "high": {
              "value": 7,
              "code": "pH",
              "system": "http://unitsofmeasure.org"
            }
          }
        ],
        "text": {
          "status": "generated",
          "div": "<div xmlns=\"http://www.w3.org/1999/xhtml\"><table class=\"hl7__eu__lab__report\"><tr><th>Test</th><th>14-Jan-2016</th><th>Reference&#xA0;Range</th><th>Unit</th></tr><tr><td>pH of Urine by Test strip</td><td>6.5</td><td>4.5 - 7</td><td></td><td>pH</td></tr></table></div>"
        },
        "status": "final",
        "subject": {
          "reference": "urn:uuid:cc3df238-3b6b-4ffa-8d09-a05727ee241e",
          "display": "Iva Kratochvílová"
        },
        "effectiveDateTime": "2016-01-14T21:25:29Z",
        "specimen": {
          "reference": "urn:uuid:a2094929-89fd-4b86-bb80-38a3681524a0"
        }
      }
    },
    {
      "fullUrl": "urn:uuid:9b7234f7-30f5-4fe4-926f-72e11b6e35a3",
      "resource": {
        "resourceType": "Observation",
        "id": "9b7234f7-30f5-4fe4-926f-72e11b6e35a3",
        "meta": {
          "profile": [
            "http://hl7.eu/fhir/laboratory/StructureDefinition/Observation-resultslab-eu-lab"
          ]
        },
        "performer": [
          {
            "display": "The Central European Lab"
          }
        ],
        "category": [
          {
            "coding": [
              {
                "system": "http://terminology.hl7.org/CodeSystem/observation-category",
                "code": "laboratory"
              }
            ]
          }
        ],
        "code": {
          "coding": [
            {
              "code": "5804-0",
              "system": "http://loinc.org",
              "display": "Protein [Mass/volume] in Urine by Test strip"
            }
          ],
          "text": "Protein [Mass/volume] in Urine by Test strip"
        },
        "valueQuantity": {
          "system": "http://unitsofmeasure.org",
          "value": 321.8,
          "unit": "mg/dL",
          "code": "mg/dL"
        },
        "referenceRange": [
          {
            "low": {
              "value": 0,
              "code": "mg/dL",
              "system": "http://unitsofmeasure.org"
            }
          },
          {
            "high": {
              "value": 145,
              "code": "mg/dL",
              "system": "http://unitsofmeasure.org"
            }
          }
        ],
        "interpretation": [
          {
            "coding": [
              {
                "code": "H",
                "system": "http://terminology.hl7.org/CodeSystem/v3-ObservationInterpretation",
                "display": "High"
              }
            ]
          }
        ],
        "text": {
          "status": "generated",
          "div": "<div xmlns=\"http://www.w3.org/1999/xhtml\"><table class=\"hl7__eu__lab__report\"><tr><th>Test</th><th>14-Jan-2016</th><th>Reference&#xA0;Range</th><th>Unit</th></tr><tr><td>Protein [Mass/volume] in Urine by Test strip</td><td>321.8</td><td>0 - 145</td><td>H</td><td>mg/dL</td></tr></table></div>"
        },
        "status": "final",
        "subject": {
          "reference": "urn:uuid:cc3df238-3b6b-4ffa-8d09-a05727ee241e",
          "display": "Iva Kratochvílová"
        },
        "effectiveDateTime": "2016-01-14T21:25:29Z",
        "specimen": {
          "reference": "urn:uuid:a2094929-89fd-4b86-bb80-38a3681524a0"
        }
      }
    },
    {
      "fullUrl": "urn:uuid:975f0027-6fa8-4f6a-a55c-c49ce61f0d72",
      "resource": {
        "resourceType": "Observation",
        "id": "975f0027-6fa8-4f6a-a55c-c49ce61f0d72",
        "meta": {
          "profile": [
            "http://hl7.eu/fhir/laboratory/StructureDefinition/Observation-resultslab-eu-lab"
          ]
        },
        "performer": [
          {
            "display": "The Central European Lab"
          }
        ],
        "category": [
          {
            "coding": [
              {
                "system": "http://terminology.hl7.org/CodeSystem/observation-category",
                "code": "laboratory"
              }
            ]
          }
        ],
        "code": {
          "coding": [
            {
              "code": "20454-5",
              "system": "http://loinc.org",
              "display": "Protein [Presence] in Urine by Test strip"
            }
          ],
          "text": "Protein [Presence] in Urine by Test strip"
        },
        "text": {
          "status": "generated",
          "div": "<div xmlns=\"http://www.w3.org/1999/xhtml\"><table class=\"hl7__eu__lab__report\"><tr><th>Test</th><th>14-Jan-2016</th><th>Reference&#xA0;Range</th><th>Unit</th></tr><tr><td>Protein [Presence] in Urine by Test strip</td></tr></table></div>"
        },
        "status": "final",
        "subject": {
          "reference": "urn:uuid:cc3df238-3b6b-4ffa-8d09-a05727ee241e",
          "display": "Iva Kratochvílová"
        },
        "effectiveDateTime": "2016-01-14T21:25:29Z",
        "specimen": {
          "reference": "urn:uuid:a2094929-89fd-4b86-bb80-38a3681524a0"
        }
      }
    },
    {
      "fullUrl": "urn:uuid:80645292-6692-4ffc-bab6-81109a24bca7",
      "resource": {
        "resourceType": "Observation",
        "id": "80645292-6692-4ffc-bab6-81109a24bca7",
        "meta": {
          "profile": [
            "http://hl7.eu/fhir/laboratory/StructureDefinition/Observation-resultslab-eu-lab"
          ]
        },
        "performer": [
          {
            "display": "The Central European Lab"
          }
        ],
        "category": [
          {
            "coding": [
              {
                "system": "http://terminology.hl7.org/CodeSystem/observation-category",
                "code": "laboratory"
              }
            ]
          }
        ],
        "code": {
          "coding": [
            {
              "code": "5802-4",
              "system": "http://loinc.org",
              "display": "Nitrite [Presence] in Urine by Test strip"
            }
          ],
          "text": "Nitrite [Presence] in Urine by Test strip"
        },
        "text": {
          "status": "generated",
          "div": "<div xmlns=\"http://www.w3.org/1999/xhtml\"><table class=\"hl7__eu__lab__report\"><tr><th>Test</th><th>14-Jan-2016</th><th>Reference&#xA0;Range</th><th>Unit</th></tr><tr><td>Nitrite [Presence] in Urine by Test strip</td></tr></table></div>"
        },
        "status": "final",
        "subject": {
          "reference": "urn:uuid:cc3df238-3b6b-4ffa-8d09-a05727ee241e",
          "display": "Iva Kratochvílová"
        },
        "effectiveDateTime": "2016-01-14T21:25:29Z",
        "specimen": {
          "reference": "urn:uuid:a2094929-89fd-4b86-bb80-38a3681524a0"
        }
      }
    },
    {
      "fullUrl": "urn:uuid:d9672778-97c9-4cf0-9d08-45c97d4ae3ca",
      "resource": {
        "resourceType": "Observation",
        "id": "d9672778-97c9-4cf0-9d08-45c97d4ae3ca",
        "meta": {
          "profile": [
            "http://hl7.eu/fhir/laboratory/StructureDefinition/Observation-resultslab-eu-lab"
          ]
        },
        "performer": [
          {
            "display": "The Central European Lab"
          }
        ],
        "category": [
          {
            "coding": [
              {
                "system": "http://terminology.hl7.org/CodeSystem/observation-category",
                "code": "laboratory"
              }
            ]
          }
        ],
        "code": {
          "coding": [
            {
              "code": "5794-3",
              "system": "http://loinc.org",
              "display": "Hemoglobin [Presence] in Urine by Test strip"
            }
          ],
          "text": "Hemoglobin [Presence] in Urine by Test strip"
        },
        "text": {
          "status": "generated",
          "div": "<div xmlns=\"http://www.w3.org/1999/xhtml\"><table class=\"hl7__eu__lab__report\"><tr><th>Test</th><th>14-Jan-2016</th><th>Reference&#xA0;Range</th><th>Unit</th></tr><tr><td>Hemoglobin [Presence] in Urine by Test strip</td></tr></table></div>"
        },
        "status": "final",
        "subject": {
          "reference": "urn:uuid:cc3df238-3b6b-4ffa-8d09-a05727ee241e",
          "display": "Iva Kratochvílová"
        },
        "effectiveDateTime": "2016-01-14T21:25:29Z",
        "specimen": {
          "reference": "urn:uuid:a2094929-89fd-4b86-bb80-38a3681524a0"
        }
      }
    },
    {
      "fullUrl": "urn:uuid:f3562536-7025-493d-99ca-8c0e065ccf2f",
      "resource": {
        "resourceType": "Observation",
        "id": "f3562536-7025-493d-99ca-8c0e065ccf2f",
        "meta": {
          "profile": [
            "http://hl7.eu/fhir/laboratory/StructureDefinition/Observation-resultslab-eu-lab"
          ]
        },
        "performer": [
          {
            "display": "The Central European Lab"
          }
        ],
        "category": [
          {
            "coding": [
              {
                "system": "http://terminology.hl7.org/CodeSystem/observation-category",
                "code": "laboratory"
              }
            ]
          }
        ],
        "code": {
          "coding": [
            {
              "code": "5799-2",
              "system": "http://loinc.org",
              "display": "Leukocyte esterase [Presence] in Urine by Test strip"
            }
          ],
          "text": "Leukocyte esterase [Presence] in Urine by Test strip"
        },
        "text": {
          "status": "generated",
          "div": "<div xmlns=\"http://www.w3.org/1999/xhtml\"><table class=\"hl7__eu__lab__report\"><tr><th>Test</th><th>14-Jan-2016</th><th>Reference&#xA0;Range</th><th>Unit</th></tr><tr><td>Leukocyte esterase [Presence] in Urine by Test strip</td></tr></table></div>"
        },
        "status": "final",
        "subject": {
          "reference": "urn:uuid:cc3df238-3b6b-4ffa-8d09-a05727ee241e",
          "display": "Iva Kratochvílová"
        },
        "effectiveDateTime": "2016-01-14T21:25:29Z",
        "specimen": {
          "reference": "urn:uuid:a2094929-89fd-4b86-bb80-38a3681524a0"
        }
      }
    },
    {
      "fullUrl": "urn:uuid:d570d5da-9ed5-4649-b277-f626536c5a46",
      "resource": {
        "resourceType": "Device",
        "id": "d570d5da-9ed5-4649-b277-f626536c5a46",
        "deviceName": [
          {
            "name": "SYNDERAI Synthetic Generator",
            "type": "manufacturer-name"
          }
        ],
        "version": [
          {
            "value": "5.0"
          }
        ],
        "text": {
          "status": "generated",
          "div": "<div xmlns=\"http://www.w3.org/1999/xhtml\">SYNDERAI Synthetic Generator v5.0</div>"
        },
        "status": "active\"",
        "distinctIdentifier": "synderai-generator-50",
        "manufacturer": "SYNDERAI Project"
      }
    },
    {
      "fullUrl": "urn:uuid:d01e6d86-043f-41b3-88ce-14444323332e",
      "resource": {
        "resourceType": "Provenance",
        "id": "d01e6d86-043f-41b3-88ce-14444323332e",
        "target": [
          {
            "reference": "Patient/cc3df238-3b6b-4ffa-8d09-a05727ee241e"
          },
          {
            "reference": "Bundle/99c43ec7-9e56-4288-aaee-3c7ab52dbda4"
          },
          {
            "reference": "Composition/c88e7cc2-cdf1-4905-891c-c9d611164975"
          },
          {
            "reference": "PractitionerRole/c40df043-e922-4cc6-acdf-7482aad5506c"
          },
          {
            "reference": "Practitioner/9279d59a-b9d6-4642-a832-d42abaeae251"
          },
          {
            "reference": "PractitionerRole/17407a2a-27ae-4b1f-87be-18f6fd1c0c09"
          },
          {
            "reference": "Organization/380000f2-1837-4679-b981-d7d5d3f460a6"
          }
        ],
        "activity": {
          "text": "Synthetic Example Data Generation"
        },
        "policy": [
          "https://synderai.net/synderai-synthetic-data-policy"
        ],
        "agent": [
          {
            "type": {
              "text": "author"
            },
            "who": {
              "reference": "Device/d570d5da-9ed5-4649-b277-f626536c5a46"
            }
          }
        ],
        "reason": [
          {
            "text": "Interoperability Testing and Training (non-clinical use)"
          }
        ],
        "text": {
          "status": "generated",
          "div": "<div xmlns=\"http://www.w3.org/1999/xhtml\">Provenance for SYNDERAI Synthetic Example Data Resource</div>"
        },
        "recorded": "2016-01-14T22:25:29Z"
      }
    },
    {
      "fullUrl": "urn:uuid:c40df043-e922-4cc6-acdf-7482aad5506c",
      "resource": {
        "resourceType": "PractitionerRole",
        "id": "c40df043-e922-4cc6-acdf-7482aad5506c",
        "meta": {
          "profile": [
            "http://hl7.eu/fhir/base/StructureDefinition/practitionerRole-eu"
          ]
        },
        "text": {
          "status": "generated",
          "div": "<div xmlns=\"http://www.w3.org/1999/xhtml\">Laboratory Role Id: c40df043-e922-4cc6-acdf-7482aad5506c</div>"
        },
        "practitioner": {
          "reference": "urn:uuid:9279d59a-b9d6-4642-a832-d42abaeae251"
        }
      }
    },
    {
      "fullUrl": "urn:uuid:9279d59a-b9d6-4642-a832-d42abaeae251",
      "resource": {
        "resourceType": "Practitioner",
        "id": "9279d59a-b9d6-4642-a832-d42abaeae251",
        "meta": {
          "profile": [
            "http://hl7.eu/fhir/base/StructureDefinition/practitioner-eu"
          ]
        },
        "identifier": [
          {
            "assigner": {
              "display": "HL7 Europe"
            },
            "system": "urn:oid:2.16.840.1.113883.2.51.999",
            "value": "65e5b492-3973-4164-9976-1048e0d94d2e"
          }
        ],
        "name": [
          {
            "prefix": [
              "dr"
            ],
            "given": [
              "Ex"
            ],
            "family": "Ample"
          }
        ],
        "address": [
          {
            "line": [
              "Laboratoire Central Européenne",
              "Boulevard du Jardin Botanique 32"
            ],
            "postalCode": "1000",
            "city": "Brussels",
            "country": "Belgium"
          }
        ],
        "text": {
          "status": "generated",
          "div": "<div xmlns=\"http://www.w3.org/1999/xhtml\">Laboratory: Laboratoire Central Européenne, 1000 Brussels, Belgium</div>"
        }
      }
    }
  ],
  "type": "document",
  "timestamp": "2016-01-14T22:25:29Z"
}
