{
  "resourceType": "Bundle",
  "id": "989882a8-0540-4e76-b115-1d26a3118f26",
  "meta": {
    "profile": [
      "http://hl7.eu/fhir/laboratory/StructureDefinition/Bundle-eu-lab"
    ]
  },
  "identifier": {
    "assigner": {
      "display": "HL7 Europe"
    },
    "system": "urn:oid:2.16.840.1.113883.2.51.999",
    "value": "ac273402-29c8-48e5-9ba0-e1c9f9c270dd"
  },
  "entry": [
    {
      "fullUrl": "urn:uuid:f288b18c-85e8-4617-95b8-20c9b6578568",
      "resource": {
        "resourceType": "Composition",
        "id": "f288b18c-85e8-4617-95b8-20c9b6578568",
        "meta": {
          "profile": [
            "http://hl7.eu/fhir/laboratory/StructureDefinition/Composition-eu-lab"
          ]
        },
        "identifier": {
          "assigner": {
            "display": "HL7 Europe"
          },
          "system": "urn:oid:2.16.840.1.113883.2.51.999",
          "value": "2f6b6a0d-4e37-429b-a285-627f13893c4a"
        },
        "author": [
          {
            "reference": "urn:uuid:69588c84-e4e5-4def-89c8-f1ac284a5a9d"
          }
        ],
        "category": [
          {
            "coding": [
              {
                "code": "26436-6",
                "system": "http://loinc.org",
                "display": "Laboratory studies (set)"
              }
            ]
          }
        ],
        "type": {
          "coding": [
            {
              "code": "11502-2",
              "system": "http://loinc.org",
              "display": "Laboratory report"
            }
          ],
          "text": "Laboratory Report"
        },
        "section": [
          {
            "code": {
              "coding": [
                {
                  "code": "26436-6",
                  "system": "http://loinc.org",
                  "display": "Laboratory studies (set)"
                }
              ],
              "text": "Laboratory studies"
            },
            "section": [
              {
                "code": {
                  "coding": [
                    {
                      "code": "$18719-5",
                      "system": "http://loinc.org",
                      "display": "Chemistry studies (set)"
                    }
                  ],
                  "text": "Chemistry"
                },
                "entry": [
                  {
                    "reference": "urn:uuid:8b634992-68c5-440d-9b6c-7aada82d3f32"
                  },
                  {
                    "reference": "urn:uuid:c7b2e0b8-6510-47a7-8b30-796b6446c174"
                  },
                  {
                    "reference": "urn:uuid:9e50aaab-1b9c-4e57-b1cc-5d6acf334d75"
                  },
                  {
                    "reference": "urn:uuid:798961c9-0a2c-4d9d-9d50-b3264b1098f7"
                  },
                  {
                    "reference": "urn:uuid:695cd32c-35b9-45fc-81e2-ff6548bed85f"
                  },
                  {
                    "reference": "urn:uuid:4b9f3fdf-e017-467d-bf3d-4a9434430cc4"
                  },
                  {
                    "reference": "urn:uuid:3e8857da-e5f9-479f-931f-18205904d220"
                  },
                  {
                    "reference": "urn:uuid:9191b028-edf2-4228-91aa-521445f274da"
                  },
                  {
                    "reference": "urn:uuid:279276cf-90d4-416c-aaa8-162b64b84280"
                  },
                  {
                    "reference": "urn:uuid:f2fc2ee8-ce1a-46be-82dc-8350fdb73bec"
                  },
                  {
                    "reference": "urn:uuid:b8c62b3e-a184-48ab-86ce-e8985d6355fa"
                  },
                  {
                    "reference": "urn:uuid:688cb671-b50e-4d0f-895d-342a3dbcfede"
                  },
                  {
                    "reference": "urn:uuid:d90d17f6-c7c4-4816-92c8-4583b2911377"
                  }
                ],
                "text": {
                  "status": "generated",
                  "div": "<div xmlns=\"http://www.w3.org/1999/xhtml\"><h3>Chemistry</h3><table class=\"hl7__eu__lab__report\"><thead><tr><th>Test</th><th>15-FEB-2024</th><th>Reference&#xA0;Range</th><th>Unit</th></tr></thead><tbody><tr><td>Hemoglobin A1c/Hemoglobin.total in Blood</td><td>6.0</td><td>4.5 - 6.4</td><td>%</td></tr><tr><td>Glucose [Mass/volume] in Blood</td><td>95.1</td><td>70 - 99</td><td>mg/dL</td></tr><tr><td>Urea nitrogen [Mass/volume] in Blood</td><td>16.0</td><td>7 - 20</td><td>mg/dL</td></tr><tr><td>Creatinine [Mass/volume] in Blood</td><td>1.2</td><td>0.7 - 1.3</td><td>mg/dL</td></tr><tr><td>Calcium [Mass/volume] in Blood</td><td>10.2</td><td>8.5 - 10.5</td><td>mg/dL</td></tr><tr><td>Sodium [Moles/volume] in Blood</td><td>137.4</td><td>135 - 145</td><td>mmol/L</td></tr><tr><td>Potassium [Moles/volume] in Blood</td><td>4.9</td><td>3.5 - 5.3</td><td>mmol/L</td></tr><tr><td>Chloride [Moles/volume] in Blood</td><td>107.4</td><td>98 - 110</td><td>mmol/L</td></tr><tr><td>Carbon dioxide, total [Moles/volume] in Blood</td><td>22.5</td><td>22 - 29</td><td>mmol/L</td></tr><tr><td>Cholesterol [Mass/volume] in Serum or Plasma</td><td>148.7</td><td>125 - 200</td><td>mg/dL</td></tr><tr><td>Triglyceride [Mass/volume] in Serum or Plasma</td><td>103.3</td><td>0 - 150</td><td>mg/dL</td></tr><tr><td>Cholesterol in LDL [Mass/volume] in Serum or Plasma by Direct assay</td><td>93.2</td><td>0 - 130</td><td>mg/dL</td></tr><tr><td>Cholesterol in HDL [Mass/volume] in Serum or Plasma</td><td><strong>34.8 L</strong></td><td>40 - 60</td><td>mg/dL</td></tr></tbody></table></div>"
                },
                "title": "Chemistry"
              }
            ],
            "title": "Laboratory Report"
          },
          {
            "text": {
              "status": "generated",
              "div": "<div xmlns=\"http://www.w3.org/1999/xhtml\"><h3>Annotation</h3><table class=\"hl7__eu__lab__report\"><tr><th>Conclusion and Recommendations based on this report and previous findings known to us</th></tr><tr><td>All measured parameters are within normal limits except for a mildly decreased HDL cholesterol (34.8 mg/dL). Glycemic, renal, electrolyte, and lipid profiles are otherwise unremarkable. Low HDL is a cardiovascular risk factor; lifestyle modification and cardiovascular risk assessment are recommended. No acute laboratory abnormalities detected.</td></tr></table></div>"
            },
            "code": {
              "coding": [
                {
                  "system": "http://loinc.org",
                  "code": "48767-8",
                  "display": "Annotation comment"
                }
              ]
            },
            "title": "Annotation comment"
          }
        ],
        "status": "final",
        "subject": {
          "reference": "urn:uuid:97691299-45a8-41e5-902b-f5cb78d57b4b",
          "display": "Alfred Rémy"
        },
        "date": "2024-02-15T07:54:36Z",
        "title": "Laboratory Report",
        "confidentiality": "N"
      }
    },
    {
      "fullUrl": "urn:uuid:2f566d7f-c277-4563-a8e3-ae3df8a1292f",
      "resource": {
        "resourceType": "DiagnosticReport",
        "id": "2f566d7f-c277-4563-a8e3-ae3df8a1292f",
        "meta": {
          "profile": [
            "http://hl7.eu/fhir/laboratory/StructureDefinition/DiagnosticReport-eu-lab"
          ]
        },
        "identifier": [
          {
            "assigner": {
              "display": "HL7 Europe"
            },
            "system": "urn:oid:2.16.840.1.113883.2.51.999",
            "value": "8dbd146b-11a7-4f99-a805-960cf94c76b8"
          }
        ],
        "extension": [
          {
            "url": "http://hl7.org/fhir/5.0/StructureDefinition/extension-DiagnosticReport.composition",
            "valueReference": {
              "reference": "urn:uuid:2f6b6a0d-4e37-429b-a285-627f13893c4a"
            }
          }
        ],
        "category": [
          {
            "coding": [
              {
                "code": "26436-6",
                "system": "http://loinc.org",
                "display": "Laboratory studies (set)"
              }
            ]
          }
        ],
        "specimen": [
          {
            "reference": "urn:uuid:a5dc7da9-0a63-453b-a4c0-e71501158a23"
          },
          {
            "reference": "urn:uuid:7e7a6d6e-8b88-40c1-9e07-7222ac4c3a97"
          }
        ],
        "result": [
          {
            "reference": "urn:uuid:8b634992-68c5-440d-9b6c-7aada82d3f32"
          },
          {
            "reference": "urn:uuid:c7b2e0b8-6510-47a7-8b30-796b6446c174"
          },
          {
            "reference": "urn:uuid:9e50aaab-1b9c-4e57-b1cc-5d6acf334d75"
          },
          {
            "reference": "urn:uuid:798961c9-0a2c-4d9d-9d50-b3264b1098f7"
          },
          {
            "reference": "urn:uuid:695cd32c-35b9-45fc-81e2-ff6548bed85f"
          },
          {
            "reference": "urn:uuid:4b9f3fdf-e017-467d-bf3d-4a9434430cc4"
          },
          {
            "reference": "urn:uuid:3e8857da-e5f9-479f-931f-18205904d220"
          },
          {
            "reference": "urn:uuid:9191b028-edf2-4228-91aa-521445f274da"
          },
          {
            "reference": "urn:uuid:279276cf-90d4-416c-aaa8-162b64b84280"
          },
          {
            "reference": "urn:uuid:f2fc2ee8-ce1a-46be-82dc-8350fdb73bec"
          },
          {
            "reference": "urn:uuid:b8c62b3e-a184-48ab-86ce-e8985d6355fa"
          },
          {
            "reference": "urn:uuid:688cb671-b50e-4d0f-895d-342a3dbcfede"
          },
          {
            "reference": "urn:uuid:d90d17f6-c7c4-4816-92c8-4583b2911377"
          }
        ],
        "status": "registered",
        "code": {
          "coding": [
            {
              "code": "11502-2",
              "system": "http://loinc.org",
              "display": "Laboratory report"
            }
          ]
        },
        "subject": {
          "reference": "urn:uuid:97691299-45a8-41e5-902b-f5cb78d57b4b",
          "display": "Alfred Rémy"
        }
      }
    },
    {
      "fullUrl": "urn:uuid:97691299-45a8-41e5-902b-f5cb78d57b4b",
      "resource": {
        "resourceType": "Patient",
        "id": "97691299-45a8-41e5-902b-f5cb78d57b4b",
        "meta": {
          "security": [
            {
              "system": "http://terminology.hl7.org/CodeSystem/v3-ActReason",
              "code": "HTEST"
            },
            {
              "system": "http://terminology.hl7.org/CodeSystem/v3-ActReason",
              "code": "TRAIN"
            }
          ],
          "tag": [
            {
              "system": "https://synderai.net/fhir/CodeSystem/tags",
              "code": "synthetic",
              "display": "SYNDERAI Synthetic data"
            }
          ],
          "profile": [
            "http://hl7.eu/fhir/base/StructureDefinition/patient-eu-core"
          ]
        },
        "identifier": [
          {
            "type": {
              "coding": [
                {
                  "code": "PT",
                  "system": "http://terminology.hl7.org/CodeSystem/v2-0203"
                }
              ]
            },
            "system": "http://ec.europa.eu/identifier/eci",
            "value": "9962-084919-2"
          },
          {
            "type": {
              "coding": [
                {
                  "code": "MR",
                  "system": "http://terminology.hl7.org/CodeSystem/v2-0203"
                }
              ]
            },
            "system": "http://local.setting.eu/identifier",
            "value": "cc3b7d7f-bed4-5811-99b9-3468e2f4203c"
          }
        ],
        "name": [
          {
            "family": "Rémy"
          },
          {
            "given": [
              "Alfred"
            ]
          },
          {
            "text": "Alfred Rémy"
          }
        ],
        "address": [
          {
            "line": [
              "88, rue de Jacquot"
            ],
            "use": "home",
            "type": "physical",
            "postalCode": "75018",
            "city": "Paris",
            "country": "France"
          }
        ],
        "telecom": [
          {
            "system": "phone",
            "value": "+33 (0)4 73 74 17 67"
          }
        ],
        "extension": [
          {
            "url": "http://hl7.org/fhir/StructureDefinition/patient-nationality",
            "valueCodeableConcept": {
              "coding": [
                {
                  "code": "FR",
                  "system": "http://hl7.org/fhir/ValueSet/country"
                }
              ]
            }
          }
        ],
        "text": {
          "status": "generated",
          "div": "<div xmlns=\"http://www.w3.org/1999/xhtml\"><table class=\"hl7__ips\"><tr><td>Alfred Rémy</td><td>male</td><td>05-Jul-1967</td></tr></table></div>"
        },
        "gender": "male",
        "birthDate": "1967-07-05"
      }
    },
    {
      "fullUrl": "urn:uuid:60f38837-59fc-43db-95e8-135a15af102e",
      "resource": {
        "resourceType": "ServiceRequest",
        "id": "60f38837-59fc-43db-95e8-135a15af102e",
        "meta": {
          "profile": [
            "http://hl7.eu/fhir/laboratory/StructureDefinition/ServiceRequest-eu-lab"
          ]
        },
        "identifier": [
          {
            "system": "http://example.org",
            "value": "3b18db1a-46cc-4ee4-903c-38bb3c4b8147"
          }
        ],
        "specimen": [
          {
            "reference": "urn:uuid:a5dc7da9-0a63-453b-a4c0-e71501158a23"
          },
          {
            "reference": "urn:uuid:7e7a6d6e-8b88-40c1-9e07-7222ac4c3a97"
          }
        ],
        "reasonCode": [
          {
            "coding": [
              {
                "code": "271737000",
                "system": "http://snomed.info/sct",
                "display": "Anemia"
              }
            ]
          },
          {
            "coding": [
              {
                "code": "15777000",
                "system": "http://snomed.info/sct",
                "display": "Prediabetes"
              }
            ]
          }
        ],
        "status": "active",
        "intent": "order",
        "code": {
          "coding": [
            {
              "code": "108252007",
              "system": "http://snomed.info/sct",
              "display": "Laboratory procedure"
            }
          ]
        },
        "subject": {
          "reference": "urn:uuid:97691299-45a8-41e5-902b-f5cb78d57b4b",
          "display": "Alfred Rémy"
        },
        "requester": {
          "reference": "urn:uuid:5751ce50-6eaa-4d61-89b5-20ede997c7b3"
        }
      }
    },
    {
      "fullUrl": "urn:uuid:5751ce50-6eaa-4d61-89b5-20ede997c7b3",
      "resource": {
        "resourceType": "PractitionerRole",
        "id": "5751ce50-6eaa-4d61-89b5-20ede997c7b3",
        "meta": {
          "profile": [
            "http://hl7.eu/fhir/base/StructureDefinition/practitionerRole-eu"
          ]
        },
        "text": {
          "status": "generated",
          "div": "<div xmlns=\"http://www.w3.org/1999/xhtml\">Provider Role Id: 5751ce50-6eaa-4d61-89b5-20ede997c7b3</div>"
        },
        "organization": {
          "reference": "urn:uuid:47923fdc-31c8-4338-aafa-66c56c25afc4"
        }
      }
    },
    {
      "fullUrl": "urn:uuid:47923fdc-31c8-4338-aafa-66c56c25afc4",
      "resource": {
        "resourceType": "Organization",
        "id": "47923fdc-31c8-4338-aafa-66c56c25afc4",
        "meta": {
          "profile": [
            "http://hl7.eu/fhir/base/StructureDefinition/organization-eu"
          ]
        },
        "identifier": [
          {
            "assigner": {
              "display": "HL7 Europe"
            },
            "system": "urn:oid:2.16.840.1.113883.2.51.999",
            "value": "b8a795a5-56e2-4e41-bbb8-d4ffb9b15c57"
          }
        ],
        "address": [
          {
            "city": "Paris",
            "postalCode": "75005",
            "country": "France"
          }
        ],
        "text": {
          "status": "generated",
          "div": "<div xmlns=\"http://www.w3.org/1999/xhtml\">Provider Organization: Maison des parents Irène Joliot-Curie</div>"
        },
        "name": "Maison des parents Irène Joliot-Curie"
      }
    },
    {
      "fullUrl": "urn:uuid:a5dc7da9-0a63-453b-a4c0-e71501158a23",
      "resource": {
        "resourceType": "Specimen",
        "id": "a5dc7da9-0a63-453b-a4c0-e71501158a23",
        "meta": {
          "profile": [
            "http://hl7.eu/fhir/laboratory/StructureDefinition/Specimen-eu-lab"
          ]
        },
        "collection": {
          "collectedDateTime": "2024-02-15"
        },
        "text": {
          "status": "generated",
          "div": "<div xmlns=\"http://www.w3.org/1999/xhtml\"><table class=\"hl7__eu__lab__report\"><tr><th>Specimen</th><th>Collection Date</th></tr><tr><td>Whole blood specimen (specimen)</td><td><span class=\"nb\">15-Feb-2024</span></td></tr></table></div>"
        },
        "type": {
          "coding": [
            {
              "code": "258580003",
              "system": "http://snomed.info/sct",
              "display": "Whole blood specimen (specimen)"
            }
          ]
        }
      }
    },
    {
      "fullUrl": "urn:uuid:7e7a6d6e-8b88-40c1-9e07-7222ac4c3a97",
      "resource": {
        "resourceType": "Specimen",
        "id": "7e7a6d6e-8b88-40c1-9e07-7222ac4c3a97",
        "meta": {
          "profile": [
            "http://hl7.eu/fhir/laboratory/StructureDefinition/Specimen-eu-lab"
          ]
        },
        "collection": {
          "collectedDateTime": "2024-02-15"
        },
        "text": {
          "status": "generated",
          "div": "<div xmlns=\"http://www.w3.org/1999/xhtml\"><table class=\"hl7__eu__lab__report\"><tr><th>Specimen</th><th>Collection Date</th></tr><tr><td>Acellular blood (serum or plasma) specimen</td><td><span class=\"nb\">15-Feb-2024</span></td></tr></table></div>"
        },
        "type": {
          "coding": [
            {
              "code": "122592007",
              "system": "http://snomed.info/sct",
              "display": "Acellular blood (serum or plasma) specimen"
            }
          ]
        }
      }
    },
    {
      "fullUrl": "urn:uuid:8b634992-68c5-440d-9b6c-7aada82d3f32",
      "resource": {
        "resourceType": "Observation",
        "id": "8b634992-68c5-440d-9b6c-7aada82d3f32",
        "meta": {
          "profile": [
            "http://hl7.eu/fhir/laboratory/StructureDefinition/Observation-resultslab-eu-lab"
          ]
        },
        "performer": [
          {
            "display": "The Central European Lab"
          }
        ],
        "category": [
          {
            "coding": [
              {
                "system": "http://terminology.hl7.org/CodeSystem/observation-category",
                "code": "laboratory"
              }
            ]
          }
        ],
        "code": {
          "coding": [
            {
              "code": "4548-4",
              "system": "http://loinc.org",
              "display": "Hemoglobin A1c/Hemoglobin.total in Blood"
            }
          ],
          "text": "Hemoglobin A1c/Hemoglobin.total in Blood"
        },
        "valueQuantity": {
          "system": "http://unitsofmeasure.org",
          "value": 6,
          "unit": "%",
          "code": "%"
        },
        "referenceRange": [
          {
            "low": {
              "value": 4.5,
              "code": "%",
              "system": "http://unitsofmeasure.org"
            }
          },
          {
            "high": {
              "value": 6.4,
              "code": "%",
              "system": "http://unitsofmeasure.org"
            }
          }
        ],
        "text": {
          "status": "generated",
          "div": "<div xmlns=\"http://www.w3.org/1999/xhtml\"><table class=\"hl7__eu__lab__report\"><tr><th>Test</th><th>15-Feb-2024</th><th>Reference&#xA0;Range</th><th>Unit</th></tr><tr><td>Hemoglobin A1c/Hemoglobin.total in Blood</td><td>6.0</td><td>4.5 - 6.4</td><td></td><td>%</td></tr></table></div>"
        },
        "status": "final",
        "subject": {
          "reference": "urn:uuid:97691299-45a8-41e5-902b-f5cb78d57b4b",
          "display": "Alfred Rémy"
        },
        "effectiveDateTime": "2024-02-15T06:54:36Z",
        "specimen": {
          "reference": "urn:uuid:a5dc7da9-0a63-453b-a4c0-e71501158a23"
        }
      }
    },
    {
      "fullUrl": "urn:uuid:c7b2e0b8-6510-47a7-8b30-796b6446c174",
      "resource": {
        "resourceType": "Observation",
        "id": "c7b2e0b8-6510-47a7-8b30-796b6446c174",
        "meta": {
          "profile": [
            "http://hl7.eu/fhir/laboratory/StructureDefinition/Observation-resultslab-eu-lab"
          ]
        },
        "performer": [
          {
            "display": "The Central European Lab"
          }
        ],
        "category": [
          {
            "coding": [
              {
                "system": "http://terminology.hl7.org/CodeSystem/observation-category",
                "code": "laboratory"
              }
            ]
          }
        ],
        "code": {
          "coding": [
            {
              "code": "2339-0",
              "system": "http://loinc.org",
              "display": "Glucose [Mass/volume] in Blood"
            }
          ],
          "text": "Glucose [Mass/volume] in Blood"
        },
        "valueQuantity": {
          "system": "http://unitsofmeasure.org",
          "value": 95.1,
          "unit": "mg/dL",
          "code": "mg/dL"
        },
        "referenceRange": [
          {
            "low": {
              "value": 70,
              "code": "mg/dL",
              "system": "http://unitsofmeasure.org"
            }
          },
          {
            "high": {
              "value": 99,
              "code": "mg/dL",
              "system": "http://unitsofmeasure.org"
            }
          }
        ],
        "text": {
          "status": "generated",
          "div": "<div xmlns=\"http://www.w3.org/1999/xhtml\"><table class=\"hl7__eu__lab__report\"><tr><th>Test</th><th>15-Feb-2024</th><th>Reference&#xA0;Range</th><th>Unit</th></tr><tr><td>Glucose [Mass/volume] in Blood</td><td>95.1</td><td>70 - 99</td><td></td><td>mg/dL</td></tr></table></div>"
        },
        "status": "final",
        "subject": {
          "reference": "urn:uuid:97691299-45a8-41e5-902b-f5cb78d57b4b",
          "display": "Alfred Rémy"
        },
        "effectiveDateTime": "2024-02-15T06:54:36Z",
        "specimen": {
          "reference": "urn:uuid:a5dc7da9-0a63-453b-a4c0-e71501158a23"
        }
      }
    },
    {
      "fullUrl": "urn:uuid:9e50aaab-1b9c-4e57-b1cc-5d6acf334d75",
      "resource": {
        "resourceType": "Observation",
        "id": "9e50aaab-1b9c-4e57-b1cc-5d6acf334d75",
        "meta": {
          "profile": [
            "http://hl7.eu/fhir/laboratory/StructureDefinition/Observation-resultslab-eu-lab"
          ]
        },
        "performer": [
          {
            "display": "The Central European Lab"
          }
        ],
        "category": [
          {
            "coding": [
              {
                "system": "http://terminology.hl7.org/CodeSystem/observation-category",
                "code": "laboratory"
              }
            ]
          }
        ],
        "code": {
          "coding": [
            {
              "code": "6299-2",
              "system": "http://loinc.org",
              "display": "Urea nitrogen [Mass/volume] in Blood"
            }
          ],
          "text": "Urea nitrogen [Mass/volume] in Blood"
        },
        "valueQuantity": {
          "system": "http://unitsofmeasure.org",
          "value": 16,
          "unit": "mg/dL",
          "code": "mg/dL"
        },
        "referenceRange": [
          {
            "low": {
              "value": 7,
              "code": "mg/dL",
              "system": "http://unitsofmeasure.org"
            }
          },
          {
            "high": {
              "value": 20,
              "code": "mg/dL",
              "system": "http://unitsofmeasure.org"
            }
          }
        ],
        "text": {
          "status": "generated",
          "div": "<div xmlns=\"http://www.w3.org/1999/xhtml\"><table class=\"hl7__eu__lab__report\"><tr><th>Test</th><th>15-Feb-2024</th><th>Reference&#xA0;Range</th><th>Unit</th></tr><tr><td>Urea nitrogen [Mass/volume] in Blood</td><td>16.0</td><td>7 - 20</td><td></td><td>mg/dL</td></tr></table></div>"
        },
        "status": "final",
        "subject": {
          "reference": "urn:uuid:97691299-45a8-41e5-902b-f5cb78d57b4b",
          "display": "Alfred Rémy"
        },
        "effectiveDateTime": "2024-02-15T06:54:36Z",
        "specimen": {
          "reference": "urn:uuid:a5dc7da9-0a63-453b-a4c0-e71501158a23"
        }
      }
    },
    {
      "fullUrl": "urn:uuid:798961c9-0a2c-4d9d-9d50-b3264b1098f7",
      "resource": {
        "resourceType": "Observation",
        "id": "798961c9-0a2c-4d9d-9d50-b3264b1098f7",
        "meta": {
          "profile": [
            "http://hl7.eu/fhir/laboratory/StructureDefinition/Observation-resultslab-eu-lab"
          ]
        },
        "performer": [
          {
            "display": "The Central European Lab"
          }
        ],
        "category": [
          {
            "coding": [
              {
                "system": "http://terminology.hl7.org/CodeSystem/observation-category",
                "code": "laboratory"
              }
            ]
          }
        ],
        "code": {
          "coding": [
            {
              "code": "38483-4",
              "system": "http://loinc.org",
              "display": "Creatinine [Mass/volume] in Blood"
            }
          ],
          "text": "Creatinine [Mass/volume] in Blood"
        },
        "valueQuantity": {
          "system": "http://unitsofmeasure.org",
          "value": 1.2,
          "unit": "mg/dL",
          "code": "mg/dL"
        },
        "referenceRange": [
          {
            "low": {
              "value": 0.7,
              "code": "mg/dL",
              "system": "http://unitsofmeasure.org"
            }
          },
          {
            "high": {
              "value": 1.3,
              "code": "mg/dL",
              "system": "http://unitsofmeasure.org"
            }
          }
        ],
        "text": {
          "status": "generated",
          "div": "<div xmlns=\"http://www.w3.org/1999/xhtml\"><table class=\"hl7__eu__lab__report\"><tr><th>Test</th><th>15-Feb-2024</th><th>Reference&#xA0;Range</th><th>Unit</th></tr><tr><td>Creatinine [Mass/volume] in Blood</td><td>1.2</td><td>0.7 - 1.3</td><td></td><td>mg/dL</td></tr></table></div>"
        },
        "status": "final",
        "subject": {
          "reference": "urn:uuid:97691299-45a8-41e5-902b-f5cb78d57b4b",
          "display": "Alfred Rémy"
        },
        "effectiveDateTime": "2024-02-15T06:54:36Z",
        "specimen": {
          "reference": "urn:uuid:a5dc7da9-0a63-453b-a4c0-e71501158a23"
        }
      }
    },
    {
      "fullUrl": "urn:uuid:695cd32c-35b9-45fc-81e2-ff6548bed85f",
      "resource": {
        "resourceType": "Observation",
        "id": "695cd32c-35b9-45fc-81e2-ff6548bed85f",
        "meta": {
          "profile": [
            "http://hl7.eu/fhir/laboratory/StructureDefinition/Observation-resultslab-eu-lab"
          ]
        },
        "performer": [
          {
            "display": "The Central European Lab"
          }
        ],
        "category": [
          {
            "coding": [
              {
                "system": "http://terminology.hl7.org/CodeSystem/observation-category",
                "code": "laboratory"
              }
            ]
          }
        ],
        "code": {
          "coding": [
            {
              "code": "49765-1",
              "system": "http://loinc.org",
              "display": "Calcium [Mass/volume] in Blood"
            }
          ],
          "text": "Calcium [Mass/volume] in Blood"
        },
        "valueQuantity": {
          "system": "http://unitsofmeasure.org",
          "value": 10.2,
          "unit": "mg/dL",
          "code": "mg/dL"
        },
        "referenceRange": [
          {
            "low": {
              "value": 8.5,
              "code": "mg/dL",
              "system": "http://unitsofmeasure.org"
            }
          },
          {
            "high": {
              "value": 10.5,
              "code": "mg/dL",
              "system": "http://unitsofmeasure.org"
            }
          }
        ],
        "text": {
          "status": "generated",
          "div": "<div xmlns=\"http://www.w3.org/1999/xhtml\"><table class=\"hl7__eu__lab__report\"><tr><th>Test</th><th>15-Feb-2024</th><th>Reference&#xA0;Range</th><th>Unit</th></tr><tr><td>Calcium [Mass/volume] in Blood</td><td>10.2</td><td>8.5 - 10.5</td><td></td><td>mg/dL</td></tr></table></div>"
        },
        "status": "final",
        "subject": {
          "reference": "urn:uuid:97691299-45a8-41e5-902b-f5cb78d57b4b",
          "display": "Alfred Rémy"
        },
        "effectiveDateTime": "2024-02-15T06:54:36Z",
        "specimen": {
          "reference": "urn:uuid:a5dc7da9-0a63-453b-a4c0-e71501158a23"
        }
      }
    },
    {
      "fullUrl": "urn:uuid:4b9f3fdf-e017-467d-bf3d-4a9434430cc4",
      "resource": {
        "resourceType": "Observation",
        "id": "4b9f3fdf-e017-467d-bf3d-4a9434430cc4",
        "meta": {
          "profile": [
            "http://hl7.eu/fhir/laboratory/StructureDefinition/Observation-resultslab-eu-lab"
          ]
        },
        "performer": [
          {
            "display": "The Central European Lab"
          }
        ],
        "category": [
          {
            "coding": [
              {
                "system": "http://terminology.hl7.org/CodeSystem/observation-category",
                "code": "laboratory"
              }
            ]
          }
        ],
        "code": {
          "coding": [
            {
              "code": "2947-0",
              "system": "http://loinc.org",
              "display": "Sodium [Moles/volume] in Blood"
            }
          ],
          "text": "Sodium [Moles/volume] in Blood"
        },
        "valueQuantity": {
          "system": "http://unitsofmeasure.org",
          "value": 137.4,
          "unit": "mmol/L",
          "code": "mmol/L"
        },
        "referenceRange": [
          {
            "low": {
              "value": 135,
              "code": "mmol/L",
              "system": "http://unitsofmeasure.org"
            }
          },
          {
            "high": {
              "value": 145,
              "code": "mmol/L",
              "system": "http://unitsofmeasure.org"
            }
          }
        ],
        "text": {
          "status": "generated",
          "div": "<div xmlns=\"http://www.w3.org/1999/xhtml\"><table class=\"hl7__eu__lab__report\"><tr><th>Test</th><th>15-Feb-2024</th><th>Reference&#xA0;Range</th><th>Unit</th></tr><tr><td>Sodium [Moles/volume] in Blood</td><td>137.4</td><td>135 - 145</td><td></td><td>mmol/L</td></tr></table></div>"
        },
        "status": "final",
        "subject": {
          "reference": "urn:uuid:97691299-45a8-41e5-902b-f5cb78d57b4b",
          "display": "Alfred Rémy"
        },
        "effectiveDateTime": "2024-02-15T06:54:36Z",
        "specimen": {
          "reference": "urn:uuid:a5dc7da9-0a63-453b-a4c0-e71501158a23"
        }
      }
    },
    {
      "fullUrl": "urn:uuid:3e8857da-e5f9-479f-931f-18205904d220",
      "resource": {
        "resourceType": "Observation",
        "id": "3e8857da-e5f9-479f-931f-18205904d220",
        "meta": {
          "profile": [
            "http://hl7.eu/fhir/laboratory/StructureDefinition/Observation-resultslab-eu-lab"
          ]
        },
        "performer": [
          {
            "display": "The Central European Lab"
          }
        ],
        "category": [
          {
            "coding": [
              {
                "system": "http://terminology.hl7.org/CodeSystem/observation-category",
                "code": "laboratory"
              }
            ]
          }
        ],
        "code": {
          "coding": [
            {
              "code": "6298-4",
              "system": "http://loinc.org",
              "display": "Potassium [Moles/volume] in Blood"
            }
          ],
          "text": "Potassium [Moles/volume] in Blood"
        },
        "valueQuantity": {
          "system": "http://unitsofmeasure.org",
          "value": 4.9,
          "unit": "mmol/L",
          "code": "mmol/L"
        },
        "referenceRange": [
          {
            "low": {
              "value": 3.5,
              "code": "mmol/L",
              "system": "http://unitsofmeasure.org"
            }
          },
          {
            "high": {
              "value": 5.3,
              "code": "mmol/L",
              "system": "http://unitsofmeasure.org"
            }
          }
        ],
        "text": {
          "status": "generated",
          "div": "<div xmlns=\"http://www.w3.org/1999/xhtml\"><table class=\"hl7__eu__lab__report\"><tr><th>Test</th><th>15-Feb-2024</th><th>Reference&#xA0;Range</th><th>Unit</th></tr><tr><td>Potassium [Moles/volume] in Blood</td><td>4.9</td><td>3.5 - 5.3</td><td></td><td>mmol/L</td></tr></table></div>"
        },
        "status": "final",
        "subject": {
          "reference": "urn:uuid:97691299-45a8-41e5-902b-f5cb78d57b4b",
          "display": "Alfred Rémy"
        },
        "effectiveDateTime": "2024-02-15T06:54:36Z",
        "specimen": {
          "reference": "urn:uuid:a5dc7da9-0a63-453b-a4c0-e71501158a23"
        }
      }
    },
    {
      "fullUrl": "urn:uuid:9191b028-edf2-4228-91aa-521445f274da",
      "resource": {
        "resourceType": "Observation",
        "id": "9191b028-edf2-4228-91aa-521445f274da",
        "meta": {
          "profile": [
            "http://hl7.eu/fhir/laboratory/StructureDefinition/Observation-resultslab-eu-lab"
          ]
        },
        "performer": [
          {
            "display": "The Central European Lab"
          }
        ],
        "category": [
          {
            "coding": [
              {
                "system": "http://terminology.hl7.org/CodeSystem/observation-category",
                "code": "laboratory"
              }
            ]
          }
        ],
        "code": {
          "coding": [
            {
              "code": "2069-3",
              "system": "http://loinc.org",
              "display": "Chloride [Moles/volume] in Blood"
            }
          ],
          "text": "Chloride [Moles/volume] in Blood"
        },
        "valueQuantity": {
          "system": "http://unitsofmeasure.org",
          "value": 107.4,
          "unit": "mmol/L",
          "code": "mmol/L"
        },
        "referenceRange": [
          {
            "low": {
              "value": 98,
              "code": "mmol/L",
              "system": "http://unitsofmeasure.org"
            }
          },
          {
            "high": {
              "value": 110,
              "code": "mmol/L",
              "system": "http://unitsofmeasure.org"
            }
          }
        ],
        "text": {
          "status": "generated",
          "div": "<div xmlns=\"http://www.w3.org/1999/xhtml\"><table class=\"hl7__eu__lab__report\"><tr><th>Test</th><th>15-Feb-2024</th><th>Reference&#xA0;Range</th><th>Unit</th></tr><tr><td>Chloride [Moles/volume] in Blood</td><td>107.4</td><td>98 - 110</td><td></td><td>mmol/L</td></tr></table></div>"
        },
        "status": "final",
        "subject": {
          "reference": "urn:uuid:97691299-45a8-41e5-902b-f5cb78d57b4b",
          "display": "Alfred Rémy"
        },
        "effectiveDateTime": "2024-02-15T06:54:36Z",
        "specimen": {
          "reference": "urn:uuid:a5dc7da9-0a63-453b-a4c0-e71501158a23"
        }
      }
    },
    {
      "fullUrl": "urn:uuid:279276cf-90d4-416c-aaa8-162b64b84280",
      "resource": {
        "resourceType": "Observation",
        "id": "279276cf-90d4-416c-aaa8-162b64b84280",
        "meta": {
          "profile": [
            "http://hl7.eu/fhir/laboratory/StructureDefinition/Observation-resultslab-eu-lab"
          ]
        },
        "performer": [
          {
            "display": "The Central European Lab"
          }
        ],
        "category": [
          {
            "coding": [
              {
                "system": "http://terminology.hl7.org/CodeSystem/observation-category",
                "code": "laboratory"
              }
            ]
          }
        ],
        "code": {
          "coding": [
            {
              "code": "20565-8",
              "system": "http://loinc.org",
              "display": "Carbon dioxide, total [Moles/volume] in Blood"
            }
          ],
          "text": "Carbon dioxide, total [Moles/volume] in Blood"
        },
        "valueQuantity": {
          "system": "http://unitsofmeasure.org",
          "value": 22.5,
          "unit": "mmol/L",
          "code": "mmol/L"
        },
        "referenceRange": [
          {
            "low": {
              "value": 22,
              "code": "mmol/L",
              "system": "http://unitsofmeasure.org"
            }
          },
          {
            "high": {
              "value": 29,
              "code": "mmol/L",
              "system": "http://unitsofmeasure.org"
            }
          }
        ],
        "text": {
          "status": "generated",
          "div": "<div xmlns=\"http://www.w3.org/1999/xhtml\"><table class=\"hl7__eu__lab__report\"><tr><th>Test</th><th>15-Feb-2024</th><th>Reference&#xA0;Range</th><th>Unit</th></tr><tr><td>Carbon dioxide, total [Moles/volume] in Blood</td><td>22.5</td><td>22 - 29</td><td></td><td>mmol/L</td></tr></table></div>"
        },
        "status": "final",
        "subject": {
          "reference": "urn:uuid:97691299-45a8-41e5-902b-f5cb78d57b4b",
          "display": "Alfred Rémy"
        },
        "effectiveDateTime": "2024-02-15T06:54:36Z",
        "specimen": {
          "reference": "urn:uuid:a5dc7da9-0a63-453b-a4c0-e71501158a23"
        }
      }
    },
    {
      "fullUrl": "urn:uuid:f2fc2ee8-ce1a-46be-82dc-8350fdb73bec",
      "resource": {
        "resourceType": "Observation",
        "id": "f2fc2ee8-ce1a-46be-82dc-8350fdb73bec",
        "meta": {
          "profile": [
            "http://hl7.eu/fhir/laboratory/StructureDefinition/Observation-resultslab-eu-lab"
          ]
        },
        "performer": [
          {
            "display": "The Central European Lab"
          }
        ],
        "category": [
          {
            "coding": [
              {
                "system": "http://terminology.hl7.org/CodeSystem/observation-category",
                "code": "laboratory"
              }
            ]
          }
        ],
        "code": {
          "coding": [
            {
              "code": "2093-3",
              "system": "http://loinc.org",
              "display": "Cholesterol [Mass/volume] in Serum or Plasma"
            }
          ],
          "text": "Cholesterol [Mass/volume] in Serum or Plasma"
        },
        "valueQuantity": {
          "system": "http://unitsofmeasure.org",
          "value": 148.7,
          "unit": "mg/dL",
          "code": "mg/dL"
        },
        "referenceRange": [
          {
            "low": {
              "value": 125,
              "code": "mg/dL",
              "system": "http://unitsofmeasure.org"
            }
          },
          {
            "high": {
              "value": 200,
              "code": "mg/dL",
              "system": "http://unitsofmeasure.org"
            }
          }
        ],
        "text": {
          "status": "generated",
          "div": "<div xmlns=\"http://www.w3.org/1999/xhtml\"><table class=\"hl7__eu__lab__report\"><tr><th>Test</th><th>15-Feb-2024</th><th>Reference&#xA0;Range</th><th>Unit</th></tr><tr><td>Cholesterol [Mass/volume] in Serum or Plasma</td><td>148.7</td><td>125 - 200</td><td></td><td>mg/dL</td></tr></table></div>"
        },
        "status": "final",
        "subject": {
          "reference": "urn:uuid:97691299-45a8-41e5-902b-f5cb78d57b4b",
          "display": "Alfred Rémy"
        },
        "effectiveDateTime": "2024-02-15T06:54:36Z",
        "specimen": {
          "reference": "urn:uuid:7e7a6d6e-8b88-40c1-9e07-7222ac4c3a97"
        }
      }
    },
    {
      "fullUrl": "urn:uuid:b8c62b3e-a184-48ab-86ce-e8985d6355fa",
      "resource": {
        "resourceType": "Observation",
        "id": "b8c62b3e-a184-48ab-86ce-e8985d6355fa",
        "meta": {
          "profile": [
            "http://hl7.eu/fhir/laboratory/StructureDefinition/Observation-resultslab-eu-lab"
          ]
        },
        "performer": [
          {
            "display": "The Central European Lab"
          }
        ],
        "category": [
          {
            "coding": [
              {
                "system": "http://terminology.hl7.org/CodeSystem/observation-category",
                "code": "laboratory"
              }
            ]
          }
        ],
        "code": {
          "coding": [
            {
              "code": "2571-8",
              "system": "http://loinc.org",
              "display": "Triglyceride [Mass/volume] in Serum or Plasma"
            }
          ],
          "text": "Triglyceride [Mass/volume] in Serum or Plasma"
        },
        "valueQuantity": {
          "system": "http://unitsofmeasure.org",
          "value": 103.3,
          "unit": "mg/dL",
          "code": "mg/dL"
        },
        "referenceRange": [
          {
            "low": {
              "value": 0,
              "code": "mg/dL",
              "system": "http://unitsofmeasure.org"
            }
          },
          {
            "high": {
              "value": 150,
              "code": "mg/dL",
              "system": "http://unitsofmeasure.org"
            }
          }
        ],
        "text": {
          "status": "generated",
          "div": "<div xmlns=\"http://www.w3.org/1999/xhtml\"><table class=\"hl7__eu__lab__report\"><tr><th>Test</th><th>15-Feb-2024</th><th>Reference&#xA0;Range</th><th>Unit</th></tr><tr><td>Triglyceride [Mass/volume] in Serum or Plasma</td><td>103.3</td><td>0 - 150</td><td></td><td>mg/dL</td></tr></table></div>"
        },
        "status": "final",
        "subject": {
          "reference": "urn:uuid:97691299-45a8-41e5-902b-f5cb78d57b4b",
          "display": "Alfred Rémy"
        },
        "effectiveDateTime": "2024-02-15T06:54:36Z",
        "specimen": {
          "reference": "urn:uuid:7e7a6d6e-8b88-40c1-9e07-7222ac4c3a97"
        }
      }
    },
    {
      "fullUrl": "urn:uuid:688cb671-b50e-4d0f-895d-342a3dbcfede",
      "resource": {
        "resourceType": "Observation",
        "id": "688cb671-b50e-4d0f-895d-342a3dbcfede",
        "meta": {
          "profile": [
            "http://hl7.eu/fhir/laboratory/StructureDefinition/Observation-resultslab-eu-lab"
          ]
        },
        "performer": [
          {
            "display": "The Central European Lab"
          }
        ],
        "category": [
          {
            "coding": [
              {
                "system": "http://terminology.hl7.org/CodeSystem/observation-category",
                "code": "laboratory"
              }
            ]
          }
        ],
        "code": {
          "coding": [
            {
              "code": "18262-6",
              "system": "http://loinc.org",
              "display": "Cholesterol in LDL [Mass/volume] in Serum or Plasma by Direct assay"
            }
          ],
          "text": "Cholesterol in LDL [Mass/volume] in Serum or Plasma by Direct assay"
        },
        "valueQuantity": {
          "system": "http://unitsofmeasure.org",
          "value": 93.2,
          "unit": "mg/dL",
          "code": "mg/dL"
        },
        "referenceRange": [
          {
            "low": {
              "value": 0,
              "code": "mg/dL",
              "system": "http://unitsofmeasure.org"
            }
          },
          {
            "high": {
              "value": 130,
              "code": "mg/dL",
              "system": "http://unitsofmeasure.org"
            }
          }
        ],
        "text": {
          "status": "generated",
          "div": "<div xmlns=\"http://www.w3.org/1999/xhtml\"><table class=\"hl7__eu__lab__report\"><tr><th>Test</th><th>15-Feb-2024</th><th>Reference&#xA0;Range</th><th>Unit</th></tr><tr><td>Cholesterol in LDL [Mass/volume] in Serum or Plasma by Direct assay</td><td>93.2</td><td>0 - 130</td><td></td><td>mg/dL</td></tr></table></div>"
        },
        "status": "final",
        "subject": {
          "reference": "urn:uuid:97691299-45a8-41e5-902b-f5cb78d57b4b",
          "display": "Alfred Rémy"
        },
        "effectiveDateTime": "2024-02-15T06:54:36Z",
        "specimen": {
          "reference": "urn:uuid:7e7a6d6e-8b88-40c1-9e07-7222ac4c3a97"
        }
      }
    },
    {
      "fullUrl": "urn:uuid:d90d17f6-c7c4-4816-92c8-4583b2911377",
      "resource": {
        "resourceType": "Observation",
        "id": "d90d17f6-c7c4-4816-92c8-4583b2911377",
        "meta": {
          "profile": [
            "http://hl7.eu/fhir/laboratory/StructureDefinition/Observation-resultslab-eu-lab"
          ]
        },
        "performer": [
          {
            "display": "The Central European Lab"
          }
        ],
        "category": [
          {
            "coding": [
              {
                "system": "http://terminology.hl7.org/CodeSystem/observation-category",
                "code": "laboratory"
              }
            ]
          }
        ],
        "code": {
          "coding": [
            {
              "code": "2085-9",
              "system": "http://loinc.org",
              "display": "Cholesterol in HDL [Mass/volume] in Serum or Plasma"
            }
          ],
          "text": "Cholesterol in HDL [Mass/volume] in Serum or Plasma"
        },
        "valueQuantity": {
          "system": "http://unitsofmeasure.org",
          "value": 34.8,
          "unit": "mg/dL",
          "code": "mg/dL"
        },
        "referenceRange": [
          {
            "low": {
              "value": 40,
              "code": "mg/dL",
              "system": "http://unitsofmeasure.org"
            }
          },
          {
            "high": {
              "value": 60,
              "code": "mg/dL",
              "system": "http://unitsofmeasure.org"
            }
          }
        ],
        "interpretation": [
          {
            "coding": [
              {
                "code": "L",
                "system": "http://terminology.hl7.org/CodeSystem/v3-ObservationInterpretation",
                "display": "Low"
              }
            ]
          }
        ],
        "text": {
          "status": "generated",
          "div": "<div xmlns=\"http://www.w3.org/1999/xhtml\"><table class=\"hl7__eu__lab__report\"><tr><th>Test</th><th>15-Feb-2024</th><th>Reference&#xA0;Range</th><th>Unit</th></tr><tr><td>Cholesterol in HDL [Mass/volume] in Serum or Plasma</td><td>34.8</td><td>40 - 60</td><td>L</td><td>mg/dL</td></tr></table></div>"
        },
        "status": "final",
        "subject": {
          "reference": "urn:uuid:97691299-45a8-41e5-902b-f5cb78d57b4b",
          "display": "Alfred Rémy"
        },
        "effectiveDateTime": "2024-02-15T06:54:36Z",
        "specimen": {
          "reference": "urn:uuid:7e7a6d6e-8b88-40c1-9e07-7222ac4c3a97"
        }
      }
    },
    {
      "fullUrl": "urn:uuid:e051ce9f-1cea-458b-940f-eec633940448",
      "resource": {
        "resourceType": "Device",
        "id": "e051ce9f-1cea-458b-940f-eec633940448",
        "deviceName": [
          {
            "name": "SYNDERAI Synthetic Generator",
            "type": "manufacturer-name"
          }
        ],
        "version": [
          {
            "value": "5.0"
          }
        ],
        "text": {
          "status": "generated",
          "div": "<div xmlns=\"http://www.w3.org/1999/xhtml\">SYNDERAI Synthetic Generator v5.0</div>"
        },
        "status": "active\"",
        "distinctIdentifier": "synderai-generator-50",
        "manufacturer": "SYNDERAI Project"
      }
    },
    {
      "fullUrl": "urn:uuid:b6f246c2-f8ad-4453-a06b-8be31b02a6ea",
      "resource": {
        "resourceType": "Provenance",
        "id": "b6f246c2-f8ad-4453-a06b-8be31b02a6ea",
        "target": [
          {
            "reference": "Patient/97691299-45a8-41e5-902b-f5cb78d57b4b"
          },
          {
            "reference": "Bundle/989882a8-0540-4e76-b115-1d26a3118f26"
          },
          {
            "reference": "Composition/f288b18c-85e8-4617-95b8-20c9b6578568"
          },
          {
            "reference": "PractitionerRole/69588c84-e4e5-4def-89c8-f1ac284a5a9d"
          },
          {
            "reference": "Practitioner/3dee7efa-ba5a-40aa-8725-852cd5326e2b"
          },
          {
            "reference": "PractitionerRole/5751ce50-6eaa-4d61-89b5-20ede997c7b3"
          },
          {
            "reference": "Organization/47923fdc-31c8-4338-aafa-66c56c25afc4"
          }
        ],
        "activity": {
          "text": "Synthetic Example Data Generation"
        },
        "policy": [
          "https://synderai.net/synderai-synthetic-data-policy"
        ],
        "agent": [
          {
            "type": {
              "text": "author"
            },
            "who": {
              "reference": "Device/e051ce9f-1cea-458b-940f-eec633940448"
            }
          }
        ],
        "reason": [
          {
            "text": "Interoperability Testing and Training (non-clinical use)"
          }
        ],
        "text": {
          "status": "generated",
          "div": "<div xmlns=\"http://www.w3.org/1999/xhtml\">Provenance for SYNDERAI Synthetic Example Data Resource</div>"
        },
        "recorded": "2024-02-15T07:54:36Z"
      }
    },
    {
      "fullUrl": "urn:uuid:69588c84-e4e5-4def-89c8-f1ac284a5a9d",
      "resource": {
        "resourceType": "PractitionerRole",
        "id": "69588c84-e4e5-4def-89c8-f1ac284a5a9d",
        "meta": {
          "profile": [
            "http://hl7.eu/fhir/base/StructureDefinition/practitionerRole-eu"
          ]
        },
        "text": {
          "status": "generated",
          "div": "<div xmlns=\"http://www.w3.org/1999/xhtml\">Laboratory Role Id: 69588c84-e4e5-4def-89c8-f1ac284a5a9d</div>"
        },
        "practitioner": {
          "reference": "urn:uuid:3dee7efa-ba5a-40aa-8725-852cd5326e2b"
        }
      }
    },
    {
      "fullUrl": "urn:uuid:3dee7efa-ba5a-40aa-8725-852cd5326e2b",
      "resource": {
        "resourceType": "Practitioner",
        "id": "3dee7efa-ba5a-40aa-8725-852cd5326e2b",
        "meta": {
          "profile": [
            "http://hl7.eu/fhir/base/StructureDefinition/practitioner-eu"
          ]
        },
        "identifier": [
          {
            "assigner": {
              "display": "HL7 Europe"
            },
            "system": "urn:oid:2.16.840.1.113883.2.51.999",
            "value": "6067f637-7f58-435d-a0af-d8c06b860efd"
          }
        ],
        "name": [
          {
            "prefix": [
              "dr"
            ],
            "given": [
              "Ex"
            ],
            "family": "Ample"
          }
        ],
        "address": [
          {
            "line": [
              "Laboratoire Central Européenne",
              "Boulevard du Jardin Botanique 32"
            ],
            "postalCode": "1000",
            "city": "Brussels",
            "country": "Belgium"
          }
        ],
        "text": {
          "status": "generated",
          "div": "<div xmlns=\"http://www.w3.org/1999/xhtml\">Laboratory: Laboratoire Central Européenne, 1000 Brussels, Belgium</div>"
        }
      }
    }
  ],
  "type": "document",
  "timestamp": "2024-02-15T07:54:36Z"
}
