{
  "resourceType": "Bundle",
  "id": "a8317472-4517-4fd8-8621-13b8910eb22e",
  "meta": {
    "profile": [
      "http://hl7.eu/fhir/laboratory/StructureDefinition/Bundle-eu-lab"
    ]
  },
  "identifier": {
    "assigner": {
      "display": "HL7 Europe"
    },
    "system": "urn:oid:2.16.840.1.113883.2.51.999",
    "value": "d6f53e17-debf-4dd2-8b29-8de6dbba6d8b"
  },
  "entry": [
    {
      "fullUrl": "urn:uuid:67f8521e-92e1-44c4-a703-33d1695e4ebc",
      "resource": {
        "resourceType": "Composition",
        "id": "67f8521e-92e1-44c4-a703-33d1695e4ebc",
        "meta": {
          "profile": [
            "http://hl7.eu/fhir/laboratory/StructureDefinition/Composition-eu-lab"
          ]
        },
        "identifier": {
          "assigner": {
            "display": "HL7 Europe"
          },
          "system": "urn:oid:2.16.840.1.113883.2.51.999",
          "value": "1dd0f638-8060-4b57-9526-14aab486e599"
        },
        "author": [
          {
            "reference": "urn:uuid:95ce61be-c715-4cc2-ab08-af257c7ac5e7"
          }
        ],
        "category": [
          {
            "coding": [
              {
                "code": "26436-6",
                "system": "http://loinc.org",
                "display": "Laboratory studies (set)"
              }
            ]
          }
        ],
        "type": {
          "coding": [
            {
              "code": "11502-2",
              "system": "http://loinc.org",
              "display": "Laboratory report"
            }
          ],
          "text": "Laboratory Report"
        },
        "section": [
          {
            "code": {
              "coding": [
                {
                  "code": "26436-6",
                  "system": "http://loinc.org",
                  "display": "Laboratory studies (set)"
                }
              ],
              "text": "Laboratory studies"
            },
            "section": [
              {
                "code": {
                  "coding": [
                    {
                      "code": "$18719-5",
                      "system": "http://loinc.org",
                      "display": "Chemistry studies (set)"
                    }
                  ],
                  "text": "Chemistry"
                },
                "entry": [
                  {
                    "reference": "urn:uuid:c21e72ae-3afb-49f9-8c85-cdedff17b21d"
                  },
                  {
                    "reference": "urn:uuid:b8bd0ebc-5264-454f-84a8-e2a72c808e98"
                  },
                  {
                    "reference": "urn:uuid:c55c9387-f122-4d11-ac19-c6e46654618c"
                  },
                  {
                    "reference": "urn:uuid:3fa1fcc0-965f-47ea-b565-16946fe5bc4b"
                  },
                  {
                    "reference": "urn:uuid:03b9de01-144c-4677-9f40-580b3604037d"
                  },
                  {
                    "reference": "urn:uuid:e3b8b547-22bf-4404-aec7-4c819203587d"
                  },
                  {
                    "reference": "urn:uuid:c815b552-cfa6-42e9-a7c1-f265373739db"
                  },
                  {
                    "reference": "urn:uuid:3262cb6c-7579-4adf-9bd0-3b31893ced0a"
                  },
                  {
                    "reference": "urn:uuid:39526e5f-5244-44b8-9d3e-29ee7ff6c2f8"
                  },
                  {
                    "reference": "urn:uuid:36ade72f-6151-488d-8128-a6575c8dc8e7"
                  },
                  {
                    "reference": "urn:uuid:f9e1648b-9657-4292-8a84-6b99df90e466"
                  },
                  {
                    "reference": "urn:uuid:5e9ee268-f2ec-44a6-8f18-2d7673c6daba"
                  },
                  {
                    "reference": "urn:uuid:2506e475-fba2-4544-86b8-682f7f1ebc7a"
                  },
                  {
                    "reference": "urn:uuid:b0c70c6c-8627-4fad-a112-ed70fa5a5633"
                  },
                  {
                    "reference": "urn:uuid:5c2a41bc-c00b-4168-ae20-756a4d0cb0be"
                  },
                  {
                    "reference": "urn:uuid:103b8c67-45d1-43ef-b411-b6bdeb577406"
                  },
                  {
                    "reference": "urn:uuid:748d090e-4577-4991-8656-f55cb74e3c20"
                  },
                  {
                    "reference": "urn:uuid:df11663b-287d-4080-8ef7-71bce6c092d9"
                  }
                ],
                "text": {
                  "status": "generated",
                  "div": "<div xmlns=\"http://www.w3.org/1999/xhtml\"><h3>Chemistry</h3><table class=\"hl7__eu__lab__report\"><thead><tr><th>Test</th><th>17-NOV-2023</th><th>Reference&#xA0;Range</th><th>Unit</th></tr></thead><tbody><tr><td>Glucose [Mass/volume] in Serum or Plasma</td><td>76.5</td><td>70 - 140</td><td>mg/dL</td></tr><tr><td>Urea nitrogen [Mass/volume] in Serum or Plasma</td><td>19.0</td><td>7 - 20</td><td>mg/dL</td></tr><tr><td>Creatinine [Mass/volume] in Serum or Plasma</td><td><strong>2.0 H</strong></td><td>0.9 - 1.3</td><td>mg/dL</td></tr><tr><td>Calcium [Mass/volume] in Serum or Plasma</td><td>9.4</td><td>8.5 - 10.5</td><td>mg/dL</td></tr><tr><td>Sodium [Moles/volume] in Serum or Plasma</td><td>141.6</td><td>135 - 145</td><td>mmol/L</td></tr><tr><td>Potassium [Moles/volume] in Serum or Plasma</td><td>4.2</td><td>3.5 - 5.3</td><td>mmol/L</td></tr><tr><td>Chloride [Moles/volume] in Serum or Plasma</td><td>102.4</td><td>98 - 107</td><td>mmol/L</td></tr><tr><td>Carbon dioxide, total [Moles/volume] in Serum or Plasma</td><td>29.0</td><td>22 - 33</td><td>mmol/L</td></tr><tr><td>Ketones [Presence] in Urine by Test strip</td><td>Urine ketone test = ++</td><td></td><td></td></tr><tr><td>Hemoglobin A1c/Hemoglobin.total in Blood</td><td><strong>3.4 L</strong></td><td>4.3 - 6</td><td>%</td></tr><tr><td>Glucose [Mass/volume] in Blood</td><td>76.5</td><td>70 - 140</td><td>mg/dL</td></tr><tr><td>Urea nitrogen [Mass/volume] in Blood</td><td>19.0</td><td>7 - 20</td><td>mg/dL</td></tr><tr><td>Creatinine [Mass/volume] in Blood</td><td><strong>2.7 H</strong></td><td>0.9 - 1.3</td><td>mg/dL</td></tr><tr><td>Calcium [Mass/volume] in Blood</td><td>9.4</td><td>8.5 - 10.5</td><td>mg/dL</td></tr><tr><td>Sodium [Moles/volume] in Blood</td><td>141.6</td><td>135 - 145</td><td>mmol/L</td></tr><tr><td>Potassium [Moles/volume] in Blood</td><td>4.2</td><td>3.5 - 5.1</td><td>mmol/L</td></tr><tr><td>Chloride [Moles/volume] in Blood</td><td>102.4</td><td>98 - 108</td><td>mmol/L</td></tr><tr><td>Carbon dioxide, total [Moles/volume] in Blood</td><td>29.0</td><td>22 - 29</td><td>mmol/L</td></tr></tbody></table></div>"
                },
                "title": "Chemistry"
              },
              {
                "code": {
                  "coding": [
                    {
                      "code": "$18729-4",
                      "system": "http://loinc.org",
                      "display": "Urinalysis studies (set)"
                    }
                  ],
                  "text": "Urinalysis"
                },
                "entry": [
                  {
                    "reference": "urn:uuid:3e71b9dd-d442-4706-a652-808f70a5568c"
                  },
                  {
                    "reference": "urn:uuid:9c31e67c-7d31-4157-a5df-6729dde9fedb"
                  },
                  {
                    "reference": "urn:uuid:07bdd7ff-3022-40db-b1fa-8582cf51c878"
                  },
                  {
                    "reference": "urn:uuid:e2511ae1-2fcd-4eee-ae83-7cf2e9b91f03"
                  },
                  {
                    "reference": "urn:uuid:9f35e4e2-8f05-4ff1-8ff8-1b8eddccb8e5"
                  },
                  {
                    "reference": "urn:uuid:56cfa87c-0b06-4581-8049-d46152c4edce"
                  },
                  {
                    "reference": "urn:uuid:834fb254-f5d8-4671-8640-29f50c300290"
                  },
                  {
                    "reference": "urn:uuid:5739cdb5-af4f-4536-af51-9a92f2ee1553"
                  },
                  {
                    "reference": "urn:uuid:8f60c2eb-183e-4a2d-af39-bc32d715af84"
                  },
                  {
                    "reference": "urn:uuid:a4deb29c-015e-4865-b8ac-c38684b82ba2"
                  },
                  {
                    "reference": "urn:uuid:6da1116b-30a8-49ea-b39f-97b2825e9b95"
                  },
                  {
                    "reference": "urn:uuid:dee9d447-4f7d-46c0-a721-8959ef75ee9e"
                  }
                ],
                "text": {
                  "status": "generated",
                  "div": "<div xmlns=\"http://www.w3.org/1999/xhtml\"><h3>Urinalysis</h3><table class=\"hl7__eu__lab__report\"><thead><tr><th>Test</th><th>17-NOV-2023</th><th>Reference&#xA0;Range</th><th>Unit</th></tr></thead><tbody><tr><td>Glucose [Mass/volume] in Urine by Test strip</td><td><strong>0.9 H</strong></td><td>0 - 0.8</td><td>mg/dL</td></tr><tr><td>Glucose [Presence] in Urine by Test strip</td><td>++</td><td></td><td></td></tr><tr><td>Bilirubin.total [Mass/volume] in Urine by Test strip</td><td>0.2</td><td>0 - 1.9</td><td>mg/dL</td></tr><tr><td>Bilirubin.total [Presence] in Urine by Test strip</td><td>Finding of bilirubin in urine</td><td></td><td></td></tr><tr><td>Ketones [Mass/volume] in Urine by Test strip</td><td>2.3</td><td>0 - 3</td><td>mg/dL</td></tr><tr><td>Specific gravity of Urine by Test strip</td><td><strong>1.0 L</strong></td><td>1.01 - 1.03</td><td>{nominal}</td></tr><tr><td>pH of Urine by Test strip</td><td>5.8</td><td>4.5 - 7.5</td><td>pH</td></tr><tr><td>Protein [Mass/volume] in Urine by Test strip</td><td><strong>303.7 H</strong></td><td>0 - 149</td><td>mg/dL</td></tr><tr><td>Protein [Presence] in Urine by Test strip</td><td>Urine protein test = ++</td><td></td><td></td></tr><tr><td>Nitrite [Presence] in Urine by Test strip</td><td>Urine nitrite negative</td><td></td><td></td></tr><tr><td>Hemoglobin [Presence] in Urine by Test strip</td><td>Urine blood test = negative</td><td></td><td></td></tr><tr><td>Leukocyte esterase [Presence] in Urine by Test strip</td><td>Urine leukocyte test negative</td><td></td><td></td></tr></tbody></table></div>"
                },
                "title": "Urinalysis"
              },
              {
                "code": {
                  "coding": [
                    {
                      "code": "$LP7846-1",
                      "system": "http://loinc.org",
                      "display": "Specimen information"
                    }
                  ],
                  "text": "Specimen information"
                },
                "entry": [
                  {
                    "reference": "urn:uuid:c5b5a370-3d93-4c79-9d62-ccd48271eb6d"
                  },
                  {
                    "reference": "urn:uuid:e6244719-5fa1-4c43-82b3-507103f302ab"
                  },
                  {
                    "reference": "urn:uuid:1a27007f-5588-4286-9187-42033c98e977"
                  },
                  {
                    "reference": "urn:uuid:70607555-5b44-4e1f-acf9-416c3e664ad2"
                  }
                ],
                "text": {
                  "status": "generated",
                  "div": "<div xmlns=\"http://www.w3.org/1999/xhtml\"><h3>Specimen information</h3><table class=\"hl7__eu__lab__report\"><thead><tr><th>Test</th><th>17-NOV-2023</th><th>Specimen</th><th></th></tr></thead><tbody><tr><td>Appearance of Urine</td><td>Cloudy urine</td><td>Urine</td><td></td></tr><tr><td>Odor of Urine</td><td>Urine smell ammoniacal</td><td>Urine</td><td></td></tr><tr><td>Clarity of Urine</td><td>Translucent</td><td>Urine</td><td></td></tr><tr><td>Color of Urine</td><td>Brown color</td><td>Urine</td><td></td></tr></tbody></table></div>"
                },
                "title": "Specimen information"
              }
            ],
            "title": "Laboratory Report"
          },
          {
            "text": {
              "status": "generated",
              "div": "<div xmlns=\"http://www.w3.org/1999/xhtml\"><h3>Annotation</h3><table class=\"hl7__eu__lab__report\"><tr><th>Conclusion and Recommendations based on this report and previous findings known to us</th></tr><tr><td>The patient shows elevated creatinine, indicating impaired renal function, and significant proteinuria, suggesting possible nephropathy. Urine findings (cloudy, brown, low specific gravity, ammoniacal odor) may indicate urinary tract pathology. Mild glycosuria and ketonuria are present despite low-normal blood glucose and low HbA1c, possibly reflecting altered renal threshold or recent dietary changes. No evidence of infection (negative nitrites/leukocytes). Recommend further nephrological evaluation and clinical correlation for underlying renal disease and urinary abnormalities.</td></tr></table></div>"
            },
            "code": {
              "coding": [
                {
                  "system": "http://loinc.org",
                  "code": "48767-8",
                  "display": "Annotation comment"
                }
              ]
            },
            "title": "Annotation comment"
          }
        ],
        "status": "final",
        "subject": {
          "reference": "urn:uuid:d32d923f-7bf1-45d6-ab57-12947e5f6fea",
          "display": "Victor Lagarde"
        },
        "date": "2023-11-17T05:48:18Z",
        "title": "Laboratory Report",
        "confidentiality": "N"
      }
    },
    {
      "fullUrl": "urn:uuid:bffd3c33-6dff-4506-83a7-6368560179c9",
      "resource": {
        "resourceType": "DiagnosticReport",
        "id": "bffd3c33-6dff-4506-83a7-6368560179c9",
        "meta": {
          "profile": [
            "http://hl7.eu/fhir/laboratory/StructureDefinition/DiagnosticReport-eu-lab"
          ]
        },
        "identifier": [
          {
            "assigner": {
              "display": "HL7 Europe"
            },
            "system": "urn:oid:2.16.840.1.113883.2.51.999",
            "value": "7195fa69-74d3-429b-b72c-050345ceab10"
          }
        ],
        "extension": [
          {
            "url": "http://hl7.org/fhir/5.0/StructureDefinition/extension-DiagnosticReport.composition",
            "valueReference": {
              "reference": "urn:uuid:1dd0f638-8060-4b57-9526-14aab486e599"
            }
          }
        ],
        "category": [
          {
            "coding": [
              {
                "code": "26436-6",
                "system": "http://loinc.org",
                "display": "Laboratory studies (set)"
              }
            ]
          }
        ],
        "specimen": [
          {
            "reference": "urn:uuid:d08fdcd5-a66f-4730-bca1-5ba020c915a7"
          },
          {
            "reference": "urn:uuid:96a44ed0-81ab-4c24-a72d-c2e8f796b729"
          },
          {
            "reference": "urn:uuid:93c6e38b-6b99-42a6-8082-1214a14aba13"
          }
        ],
        "result": [
          {
            "reference": "urn:uuid:c21e72ae-3afb-49f9-8c85-cdedff17b21d"
          },
          {
            "reference": "urn:uuid:b8bd0ebc-5264-454f-84a8-e2a72c808e98"
          },
          {
            "reference": "urn:uuid:c55c9387-f122-4d11-ac19-c6e46654618c"
          },
          {
            "reference": "urn:uuid:3fa1fcc0-965f-47ea-b565-16946fe5bc4b"
          },
          {
            "reference": "urn:uuid:03b9de01-144c-4677-9f40-580b3604037d"
          },
          {
            "reference": "urn:uuid:e3b8b547-22bf-4404-aec7-4c819203587d"
          },
          {
            "reference": "urn:uuid:c815b552-cfa6-42e9-a7c1-f265373739db"
          },
          {
            "reference": "urn:uuid:3262cb6c-7579-4adf-9bd0-3b31893ced0a"
          },
          {
            "reference": "urn:uuid:c5b5a370-3d93-4c79-9d62-ccd48271eb6d"
          },
          {
            "reference": "urn:uuid:e6244719-5fa1-4c43-82b3-507103f302ab"
          },
          {
            "reference": "urn:uuid:1a27007f-5588-4286-9187-42033c98e977"
          },
          {
            "reference": "urn:uuid:70607555-5b44-4e1f-acf9-416c3e664ad2"
          },
          {
            "reference": "urn:uuid:3e71b9dd-d442-4706-a652-808f70a5568c"
          },
          {
            "reference": "urn:uuid:9c31e67c-7d31-4157-a5df-6729dde9fedb"
          },
          {
            "reference": "urn:uuid:07bdd7ff-3022-40db-b1fa-8582cf51c878"
          },
          {
            "reference": "urn:uuid:e2511ae1-2fcd-4eee-ae83-7cf2e9b91f03"
          },
          {
            "reference": "urn:uuid:9f35e4e2-8f05-4ff1-8ff8-1b8eddccb8e5"
          },
          {
            "reference": "urn:uuid:39526e5f-5244-44b8-9d3e-29ee7ff6c2f8"
          },
          {
            "reference": "urn:uuid:56cfa87c-0b06-4581-8049-d46152c4edce"
          },
          {
            "reference": "urn:uuid:834fb254-f5d8-4671-8640-29f50c300290"
          },
          {
            "reference": "urn:uuid:5739cdb5-af4f-4536-af51-9a92f2ee1553"
          },
          {
            "reference": "urn:uuid:8f60c2eb-183e-4a2d-af39-bc32d715af84"
          },
          {
            "reference": "urn:uuid:a4deb29c-015e-4865-b8ac-c38684b82ba2"
          },
          {
            "reference": "urn:uuid:6da1116b-30a8-49ea-b39f-97b2825e9b95"
          },
          {
            "reference": "urn:uuid:dee9d447-4f7d-46c0-a721-8959ef75ee9e"
          },
          {
            "reference": "urn:uuid:36ade72f-6151-488d-8128-a6575c8dc8e7"
          },
          {
            "reference": "urn:uuid:f9e1648b-9657-4292-8a84-6b99df90e466"
          },
          {
            "reference": "urn:uuid:5e9ee268-f2ec-44a6-8f18-2d7673c6daba"
          },
          {
            "reference": "urn:uuid:2506e475-fba2-4544-86b8-682f7f1ebc7a"
          },
          {
            "reference": "urn:uuid:b0c70c6c-8627-4fad-a112-ed70fa5a5633"
          },
          {
            "reference": "urn:uuid:5c2a41bc-c00b-4168-ae20-756a4d0cb0be"
          },
          {
            "reference": "urn:uuid:103b8c67-45d1-43ef-b411-b6bdeb577406"
          },
          {
            "reference": "urn:uuid:748d090e-4577-4991-8656-f55cb74e3c20"
          },
          {
            "reference": "urn:uuid:df11663b-287d-4080-8ef7-71bce6c092d9"
          }
        ],
        "status": "registered",
        "code": {
          "coding": [
            {
              "code": "11502-2",
              "system": "http://loinc.org",
              "display": "Laboratory report"
            }
          ]
        },
        "subject": {
          "reference": "urn:uuid:d32d923f-7bf1-45d6-ab57-12947e5f6fea",
          "display": "Victor Lagarde"
        }
      }
    },
    {
      "fullUrl": "urn:uuid:d32d923f-7bf1-45d6-ab57-12947e5f6fea",
      "resource": {
        "resourceType": "Patient",
        "id": "d32d923f-7bf1-45d6-ab57-12947e5f6fea",
        "meta": {
          "security": [
            {
              "system": "http://terminology.hl7.org/CodeSystem/v3-ActReason",
              "code": "HTEST"
            },
            {
              "system": "http://terminology.hl7.org/CodeSystem/v3-ActReason",
              "code": "TRAIN"
            }
          ],
          "tag": [
            {
              "system": "https://synderai.net/fhir/CodeSystem/tags",
              "code": "synthetic",
              "display": "SYNDERAI Synthetic data"
            }
          ],
          "profile": [
            "http://hl7.eu/fhir/base/StructureDefinition/patient-eu-core"
          ]
        },
        "identifier": [
          {
            "type": {
              "coding": [
                {
                  "code": "PT",
                  "system": "http://terminology.hl7.org/CodeSystem/v2-0203"
                }
              ]
            },
            "system": "http://ec.europa.eu/identifier/eci",
            "value": "9925-001801-9"
          },
          {
            "type": {
              "coding": [
                {
                  "code": "MR",
                  "system": "http://terminology.hl7.org/CodeSystem/v2-0203"
                }
              ]
            },
            "system": "http://local.setting.eu/identifier",
            "value": "22c2dfd0-ac57-8833-2532-848f180896a4"
          }
        ],
        "name": [
          {
            "family": "Lagarde"
          },
          {
            "given": [
              "Victor"
            ]
          },
          {
            "text": "Victor Lagarde"
          }
        ],
        "address": [
          {
            "line": [
              "avenue Robert"
            ],
            "use": "home",
            "type": "physical",
            "postalCode": "80300",
            "city": "Albert",
            "country": "France"
          }
        ],
        "telecom": [
          {
            "system": "phone",
            "value": "0177941801"
          }
        ],
        "extension": [
          {
            "url": "http://hl7.org/fhir/StructureDefinition/patient-nationality",
            "valueCodeableConcept": {
              "coding": [
                {
                  "code": "FR",
                  "system": "http://hl7.org/fhir/ValueSet/country"
                }
              ]
            }
          }
        ],
        "text": {
          "status": "generated",
          "div": "<div xmlns=\"http://www.w3.org/1999/xhtml\"><table class=\"hl7__ips\"><tr><td>Victor Lagarde</td><td>male</td><td>31-Aug-1939</td></tr></table></div>"
        },
        "gender": "male",
        "birthDate": "1939-08-31"
      }
    },
    {
      "fullUrl": "urn:uuid:cdc8bcfd-398f-4edd-ab17-954021ac0b95",
      "resource": {
        "resourceType": "ServiceRequest",
        "id": "cdc8bcfd-398f-4edd-ab17-954021ac0b95",
        "meta": {
          "profile": [
            "http://hl7.eu/fhir/laboratory/StructureDefinition/ServiceRequest-eu-lab"
          ]
        },
        "identifier": [
          {
            "system": "http://example.org",
            "value": "c04b714b-2e7d-43f2-91c4-171fec941322"
          }
        ],
        "specimen": [
          {
            "reference": "urn:uuid:d08fdcd5-a66f-4730-bca1-5ba020c915a7"
          },
          {
            "reference": "urn:uuid:96a44ed0-81ab-4c24-a72d-c2e8f796b729"
          },
          {
            "reference": "urn:uuid:93c6e38b-6b99-42a6-8082-1214a14aba13"
          }
        ],
        "reasonCode": [
          {
            "coding": [
              {
                "code": "433144002",
                "system": "http://snomed.info/sct",
                "display": "Chronic kidney disease stage 3"
              }
            ]
          },
          {
            "coding": [
              {
                "code": "157141000119108",
                "system": "http://snomed.info/sct",
                "display": "Proteinuria due to type 2 diabetes mellitus"
              }
            ]
          },
          {
            "coding": [
              {
                "code": "431856006",
                "system": "http://snomed.info/sct",
                "display": "Chronic kidney disease stage 2"
              }
            ]
          },
          {
            "coding": [
              {
                "code": "90781000119102",
                "system": "http://snomed.info/sct",
                "display": "Microalbuminuria due to type 2 diabetes mellitus"
              }
            ]
          },
          {
            "coding": [
              {
                "code": "127013003",
                "system": "http://snomed.info/sct",
                "display": "Disorder of kidney due to diabetes mellitus"
              }
            ]
          },
          {
            "coding": [
              {
                "code": "431855005",
                "system": "http://snomed.info/sct",
                "display": "Chronic kidney disease stage 1"
              }
            ]
          },
          {
            "coding": [
              {
                "code": "55822004",
                "system": "http://snomed.info/sct",
                "display": "Hyperlipidemia"
              }
            ]
          },
          {
            "coding": [
              {
                "code": "59621000",
                "system": "http://snomed.info/sct",
                "display": "Essential hypertension"
              }
            ]
          },
          {
            "coding": [
              {
                "code": "237602007",
                "system": "http://snomed.info/sct",
                "display": "Metabolic syndrome X"
              }
            ]
          },
          {
            "coding": [
              {
                "code": "414545008",
                "system": "http://snomed.info/sct",
                "display": "Ischemic heart disease"
              }
            ]
          },
          {
            "coding": [
              {
                "code": "40055000",
                "system": "http://snomed.info/sct",
                "display": "Chronic sinusitis"
              }
            ]
          },
          {
            "coding": [
              {
                "code": "15777000",
                "system": "http://snomed.info/sct",
                "display": "Prediabetes"
              }
            ]
          },
          {
            "coding": [
              {
                "code": "271737000",
                "system": "http://snomed.info/sct",
                "display": "Anemia"
              }
            ]
          }
        ],
        "status": "active",
        "intent": "order",
        "code": {
          "coding": [
            {
              "code": "108252007",
              "system": "http://snomed.info/sct",
              "display": "Laboratory procedure"
            }
          ]
        },
        "subject": {
          "reference": "urn:uuid:d32d923f-7bf1-45d6-ab57-12947e5f6fea",
          "display": "Victor Lagarde"
        },
        "requester": {
          "reference": "urn:uuid:929b6cf7-b564-47a1-af3b-1b34c5179e8e"
        }
      }
    },
    {
      "fullUrl": "urn:uuid:929b6cf7-b564-47a1-af3b-1b34c5179e8e",
      "resource": {
        "resourceType": "PractitionerRole",
        "id": "929b6cf7-b564-47a1-af3b-1b34c5179e8e",
        "meta": {
          "profile": [
            "http://hl7.eu/fhir/base/StructureDefinition/practitionerRole-eu"
          ]
        },
        "text": {
          "status": "generated",
          "div": "<div xmlns=\"http://www.w3.org/1999/xhtml\">Provider Role Id: 929b6cf7-b564-47a1-af3b-1b34c5179e8e</div>"
        },
        "organization": {
          "reference": "urn:uuid:2663fd6d-260d-4680-8121-98c8b74dc6a7"
        }
      }
    },
    {
      "fullUrl": "urn:uuid:2663fd6d-260d-4680-8121-98c8b74dc6a7",
      "resource": {
        "resourceType": "Organization",
        "id": "2663fd6d-260d-4680-8121-98c8b74dc6a7",
        "meta": {
          "profile": [
            "http://hl7.eu/fhir/base/StructureDefinition/organization-eu"
          ]
        },
        "identifier": [
          {
            "assigner": {
              "display": "HL7 Europe"
            },
            "system": "urn:oid:2.16.840.1.113883.2.51.999",
            "value": "a92deb92-4f1f-41e1-adc0-7a2819c0d13b"
          }
        ],
        "address": [
          {
            "city": "Auxerre",
            "postalCode": "89000",
            "country": "France"
          }
        ],
        "text": {
          "status": "generated",
          "div": "<div xmlns=\"http://www.w3.org/1999/xhtml\">Provider Organization: Thiriot Didier (Cardiologie)</div>"
        },
        "name": "Thiriot Didier (Cardiologie)"
      }
    },
    {
      "fullUrl": "urn:uuid:d08fdcd5-a66f-4730-bca1-5ba020c915a7",
      "resource": {
        "resourceType": "Specimen",
        "id": "d08fdcd5-a66f-4730-bca1-5ba020c915a7",
        "meta": {
          "profile": [
            "http://hl7.eu/fhir/laboratory/StructureDefinition/Specimen-eu-lab"
          ]
        },
        "collection": {
          "collectedDateTime": "2023-11-17"
        },
        "text": {
          "status": "generated",
          "div": "<div xmlns=\"http://www.w3.org/1999/xhtml\"><table class=\"hl7__eu__lab__report\"><tr><th>Specimen</th><th>Collection Date</th></tr><tr><td>Acellular blood (serum or plasma) specimen</td><td><span class=\"nb\">17-Nov-2023</span></td></tr></table></div>"
        },
        "type": {
          "coding": [
            {
              "code": "122592007",
              "system": "http://snomed.info/sct",
              "display": "Acellular blood (serum or plasma) specimen"
            }
          ]
        }
      }
    },
    {
      "fullUrl": "urn:uuid:96a44ed0-81ab-4c24-a72d-c2e8f796b729",
      "resource": {
        "resourceType": "Specimen",
        "id": "96a44ed0-81ab-4c24-a72d-c2e8f796b729",
        "meta": {
          "profile": [
            "http://hl7.eu/fhir/laboratory/StructureDefinition/Specimen-eu-lab"
          ]
        },
        "collection": {
          "collectedDateTime": "2023-11-17"
        },
        "text": {
          "status": "generated",
          "div": "<div xmlns=\"http://www.w3.org/1999/xhtml\"><table class=\"hl7__eu__lab__report\"><tr><th>Specimen</th><th>Collection Date</th></tr><tr><td>Urine specimen</td><td><span class=\"nb\">17-Nov-2023</span></td></tr></table></div>"
        },
        "type": {
          "coding": [
            {
              "code": "122575003",
              "system": "http://snomed.info/sct",
              "display": "Urine specimen"
            }
          ]
        }
      }
    },
    {
      "fullUrl": "urn:uuid:93c6e38b-6b99-42a6-8082-1214a14aba13",
      "resource": {
        "resourceType": "Specimen",
        "id": "93c6e38b-6b99-42a6-8082-1214a14aba13",
        "meta": {
          "profile": [
            "http://hl7.eu/fhir/laboratory/StructureDefinition/Specimen-eu-lab"
          ]
        },
        "collection": {
          "collectedDateTime": "2023-11-17"
        },
        "text": {
          "status": "generated",
          "div": "<div xmlns=\"http://www.w3.org/1999/xhtml\"><table class=\"hl7__eu__lab__report\"><tr><th>Specimen</th><th>Collection Date</th></tr><tr><td>Whole blood specimen (specimen)</td><td><span class=\"nb\">17-Nov-2023</span></td></tr></table></div>"
        },
        "type": {
          "coding": [
            {
              "code": "258580003",
              "system": "http://snomed.info/sct",
              "display": "Whole blood specimen (specimen)"
            }
          ]
        }
      }
    },
    {
      "fullUrl": "urn:uuid:c21e72ae-3afb-49f9-8c85-cdedff17b21d",
      "resource": {
        "resourceType": "Observation",
        "id": "c21e72ae-3afb-49f9-8c85-cdedff17b21d",
        "meta": {
          "profile": [
            "http://hl7.eu/fhir/laboratory/StructureDefinition/Observation-resultslab-eu-lab"
          ]
        },
        "performer": [
          {
            "display": "The Central European Lab"
          }
        ],
        "category": [
          {
            "coding": [
              {
                "system": "http://terminology.hl7.org/CodeSystem/observation-category",
                "code": "laboratory"
              }
            ]
          }
        ],
        "code": {
          "coding": [
            {
              "code": "2345-7",
              "system": "http://loinc.org",
              "display": "Glucose [Mass/volume] in Serum or Plasma"
            }
          ],
          "text": "Glucose [Mass/volume] in Serum or Plasma"
        },
        "valueQuantity": {
          "system": "http://unitsofmeasure.org",
          "value": 76.5,
          "unit": "mg/dL",
          "code": "mg/dL"
        },
        "referenceRange": [
          {
            "low": {
              "value": 70,
              "code": "mg/dL",
              "system": "http://unitsofmeasure.org"
            }
          },
          {
            "high": {
              "value": 140,
              "code": "mg/dL",
              "system": "http://unitsofmeasure.org"
            }
          }
        ],
        "text": {
          "status": "generated",
          "div": "<div xmlns=\"http://www.w3.org/1999/xhtml\"><table class=\"hl7__eu__lab__report\"><tr><th>Test</th><th>17-Nov-2023</th><th>Reference&#xA0;Range</th><th>Unit</th></tr><tr><td>Glucose [Mass/volume] in Serum or Plasma</td><td>76.5</td><td>70 - 140</td><td></td><td>mg/dL</td></tr></table></div>"
        },
        "status": "final",
        "subject": {
          "reference": "urn:uuid:d32d923f-7bf1-45d6-ab57-12947e5f6fea",
          "display": "Victor Lagarde"
        },
        "effectiveDateTime": "2023-11-17T04:48:18Z",
        "specimen": {
          "reference": "urn:uuid:d08fdcd5-a66f-4730-bca1-5ba020c915a7"
        }
      }
    },
    {
      "fullUrl": "urn:uuid:b8bd0ebc-5264-454f-84a8-e2a72c808e98",
      "resource": {
        "resourceType": "Observation",
        "id": "b8bd0ebc-5264-454f-84a8-e2a72c808e98",
        "meta": {
          "profile": [
            "http://hl7.eu/fhir/laboratory/StructureDefinition/Observation-resultslab-eu-lab"
          ]
        },
        "performer": [
          {
            "display": "The Central European Lab"
          }
        ],
        "category": [
          {
            "coding": [
              {
                "system": "http://terminology.hl7.org/CodeSystem/observation-category",
                "code": "laboratory"
              }
            ]
          }
        ],
        "code": {
          "coding": [
            {
              "code": "3094-0",
              "system": "http://loinc.org",
              "display": "Urea nitrogen [Mass/volume] in Serum or Plasma"
            }
          ],
          "text": "Urea nitrogen [Mass/volume] in Serum or Plasma"
        },
        "valueQuantity": {
          "system": "http://unitsofmeasure.org",
          "value": 19,
          "unit": "mg/dL",
          "code": "mg/dL"
        },
        "referenceRange": [
          {
            "low": {
              "value": 7,
              "code": "mg/dL",
              "system": "http://unitsofmeasure.org"
            }
          },
          {
            "high": {
              "value": 20,
              "code": "mg/dL",
              "system": "http://unitsofmeasure.org"
            }
          }
        ],
        "text": {
          "status": "generated",
          "div": "<div xmlns=\"http://www.w3.org/1999/xhtml\"><table class=\"hl7__eu__lab__report\"><tr><th>Test</th><th>17-Nov-2023</th><th>Reference&#xA0;Range</th><th>Unit</th></tr><tr><td>Urea nitrogen [Mass/volume] in Serum or Plasma</td><td>19.0</td><td>7 - 20</td><td></td><td>mg/dL</td></tr></table></div>"
        },
        "status": "final",
        "subject": {
          "reference": "urn:uuid:d32d923f-7bf1-45d6-ab57-12947e5f6fea",
          "display": "Victor Lagarde"
        },
        "effectiveDateTime": "2023-11-17T04:48:18Z",
        "specimen": {
          "reference": "urn:uuid:d08fdcd5-a66f-4730-bca1-5ba020c915a7"
        }
      }
    },
    {
      "fullUrl": "urn:uuid:c55c9387-f122-4d11-ac19-c6e46654618c",
      "resource": {
        "resourceType": "Observation",
        "id": "c55c9387-f122-4d11-ac19-c6e46654618c",
        "meta": {
          "profile": [
            "http://hl7.eu/fhir/laboratory/StructureDefinition/Observation-resultslab-eu-lab"
          ]
        },
        "performer": [
          {
            "display": "The Central European Lab"
          }
        ],
        "category": [
          {
            "coding": [
              {
                "system": "http://terminology.hl7.org/CodeSystem/observation-category",
                "code": "laboratory"
              }
            ]
          }
        ],
        "code": {
          "coding": [
            {
              "code": "2160-0",
              "system": "http://loinc.org",
              "display": "Creatinine [Mass/volume] in Serum or Plasma"
            }
          ],
          "text": "Creatinine [Mass/volume] in Serum or Plasma"
        },
        "valueQuantity": {
          "system": "http://unitsofmeasure.org",
          "value": 2,
          "unit": "mg/dL",
          "code": "mg/dL"
        },
        "referenceRange": [
          {
            "low": {
              "value": 0.9,
              "code": "mg/dL",
              "system": "http://unitsofmeasure.org"
            }
          },
          {
            "high": {
              "value": 1.3,
              "code": "mg/dL",
              "system": "http://unitsofmeasure.org"
            }
          }
        ],
        "interpretation": [
          {
            "coding": [
              {
                "code": "H",
                "system": "http://terminology.hl7.org/CodeSystem/v3-ObservationInterpretation",
                "display": "High"
              }
            ]
          }
        ],
        "text": {
          "status": "generated",
          "div": "<div xmlns=\"http://www.w3.org/1999/xhtml\"><table class=\"hl7__eu__lab__report\"><tr><th>Test</th><th>17-Nov-2023</th><th>Reference&#xA0;Range</th><th>Unit</th></tr><tr><td>Creatinine [Mass/volume] in Serum or Plasma</td><td>2.0</td><td>0.9 - 1.3</td><td>H</td><td>mg/dL</td></tr></table></div>"
        },
        "status": "final",
        "subject": {
          "reference": "urn:uuid:d32d923f-7bf1-45d6-ab57-12947e5f6fea",
          "display": "Victor Lagarde"
        },
        "effectiveDateTime": "2023-11-17T04:48:18Z",
        "specimen": {
          "reference": "urn:uuid:d08fdcd5-a66f-4730-bca1-5ba020c915a7"
        }
      }
    },
    {
      "fullUrl": "urn:uuid:3fa1fcc0-965f-47ea-b565-16946fe5bc4b",
      "resource": {
        "resourceType": "Observation",
        "id": "3fa1fcc0-965f-47ea-b565-16946fe5bc4b",
        "meta": {
          "profile": [
            "http://hl7.eu/fhir/laboratory/StructureDefinition/Observation-resultslab-eu-lab"
          ]
        },
        "performer": [
          {
            "display": "The Central European Lab"
          }
        ],
        "category": [
          {
            "coding": [
              {
                "system": "http://terminology.hl7.org/CodeSystem/observation-category",
                "code": "laboratory"
              }
            ]
          }
        ],
        "code": {
          "coding": [
            {
              "code": "17861-6",
              "system": "http://loinc.org",
              "display": "Calcium [Mass/volume] in Serum or Plasma"
            }
          ],
          "text": "Calcium [Mass/volume] in Serum or Plasma"
        },
        "valueQuantity": {
          "system": "http://unitsofmeasure.org",
          "value": 9.4,
          "unit": "mg/dL",
          "code": "mg/dL"
        },
        "referenceRange": [
          {
            "low": {
              "value": 8.5,
              "code": "mg/dL",
              "system": "http://unitsofmeasure.org"
            }
          },
          {
            "high": {
              "value": 10.5,
              "code": "mg/dL",
              "system": "http://unitsofmeasure.org"
            }
          }
        ],
        "text": {
          "status": "generated",
          "div": "<div xmlns=\"http://www.w3.org/1999/xhtml\"><table class=\"hl7__eu__lab__report\"><tr><th>Test</th><th>17-Nov-2023</th><th>Reference&#xA0;Range</th><th>Unit</th></tr><tr><td>Calcium [Mass/volume] in Serum or Plasma</td><td>9.4</td><td>8.5 - 10.5</td><td></td><td>mg/dL</td></tr></table></div>"
        },
        "status": "final",
        "subject": {
          "reference": "urn:uuid:d32d923f-7bf1-45d6-ab57-12947e5f6fea",
          "display": "Victor Lagarde"
        },
        "effectiveDateTime": "2023-11-17T04:48:18Z",
        "specimen": {
          "reference": "urn:uuid:d08fdcd5-a66f-4730-bca1-5ba020c915a7"
        }
      }
    },
    {
      "fullUrl": "urn:uuid:03b9de01-144c-4677-9f40-580b3604037d",
      "resource": {
        "resourceType": "Observation",
        "id": "03b9de01-144c-4677-9f40-580b3604037d",
        "meta": {
          "profile": [
            "http://hl7.eu/fhir/laboratory/StructureDefinition/Observation-resultslab-eu-lab"
          ]
        },
        "performer": [
          {
            "display": "The Central European Lab"
          }
        ],
        "category": [
          {
            "coding": [
              {
                "system": "http://terminology.hl7.org/CodeSystem/observation-category",
                "code": "laboratory"
              }
            ]
          }
        ],
        "code": {
          "coding": [
            {
              "code": "2951-2",
              "system": "http://loinc.org",
              "display": "Sodium [Moles/volume] in Serum or Plasma"
            }
          ],
          "text": "Sodium [Moles/volume] in Serum or Plasma"
        },
        "valueQuantity": {
          "system": "http://unitsofmeasure.org",
          "value": 141.6,
          "unit": "mmol/L",
          "code": "mmol/L"
        },
        "referenceRange": [
          {
            "low": {
              "value": 135,
              "code": "mmol/L",
              "system": "http://unitsofmeasure.org"
            }
          },
          {
            "high": {
              "value": 145,
              "code": "mmol/L",
              "system": "http://unitsofmeasure.org"
            }
          }
        ],
        "text": {
          "status": "generated",
          "div": "<div xmlns=\"http://www.w3.org/1999/xhtml\"><table class=\"hl7__eu__lab__report\"><tr><th>Test</th><th>17-Nov-2023</th><th>Reference&#xA0;Range</th><th>Unit</th></tr><tr><td>Sodium [Moles/volume] in Serum or Plasma</td><td>141.6</td><td>135 - 145</td><td></td><td>mmol/L</td></tr></table></div>"
        },
        "status": "final",
        "subject": {
          "reference": "urn:uuid:d32d923f-7bf1-45d6-ab57-12947e5f6fea",
          "display": "Victor Lagarde"
        },
        "effectiveDateTime": "2023-11-17T04:48:18Z",
        "specimen": {
          "reference": "urn:uuid:d08fdcd5-a66f-4730-bca1-5ba020c915a7"
        }
      }
    },
    {
      "fullUrl": "urn:uuid:e3b8b547-22bf-4404-aec7-4c819203587d",
      "resource": {
        "resourceType": "Observation",
        "id": "e3b8b547-22bf-4404-aec7-4c819203587d",
        "meta": {
          "profile": [
            "http://hl7.eu/fhir/laboratory/StructureDefinition/Observation-resultslab-eu-lab"
          ]
        },
        "performer": [
          {
            "display": "The Central European Lab"
          }
        ],
        "category": [
          {
            "coding": [
              {
                "system": "http://terminology.hl7.org/CodeSystem/observation-category",
                "code": "laboratory"
              }
            ]
          }
        ],
        "code": {
          "coding": [
            {
              "code": "2823-3",
              "system": "http://loinc.org",
              "display": "Potassium [Moles/volume] in Serum or Plasma"
            }
          ],
          "text": "Potassium [Moles/volume] in Serum or Plasma"
        },
        "valueQuantity": {
          "system": "http://unitsofmeasure.org",
          "value": 4.2,
          "unit": "mmol/L",
          "code": "mmol/L"
        },
        "referenceRange": [
          {
            "low": {
              "value": 3.5,
              "code": "mmol/L",
              "system": "http://unitsofmeasure.org"
            }
          },
          {
            "high": {
              "value": 5.3,
              "code": "mmol/L",
              "system": "http://unitsofmeasure.org"
            }
          }
        ],
        "text": {
          "status": "generated",
          "div": "<div xmlns=\"http://www.w3.org/1999/xhtml\"><table class=\"hl7__eu__lab__report\"><tr><th>Test</th><th>17-Nov-2023</th><th>Reference&#xA0;Range</th><th>Unit</th></tr><tr><td>Potassium [Moles/volume] in Serum or Plasma</td><td>4.2</td><td>3.5 - 5.3</td><td></td><td>mmol/L</td></tr></table></div>"
        },
        "status": "final",
        "subject": {
          "reference": "urn:uuid:d32d923f-7bf1-45d6-ab57-12947e5f6fea",
          "display": "Victor Lagarde"
        },
        "effectiveDateTime": "2023-11-17T04:48:18Z",
        "specimen": {
          "reference": "urn:uuid:d08fdcd5-a66f-4730-bca1-5ba020c915a7"
        }
      }
    },
    {
      "fullUrl": "urn:uuid:c815b552-cfa6-42e9-a7c1-f265373739db",
      "resource": {
        "resourceType": "Observation",
        "id": "c815b552-cfa6-42e9-a7c1-f265373739db",
        "meta": {
          "profile": [
            "http://hl7.eu/fhir/laboratory/StructureDefinition/Observation-resultslab-eu-lab"
          ]
        },
        "performer": [
          {
            "display": "The Central European Lab"
          }
        ],
        "category": [
          {
            "coding": [
              {
                "system": "http://terminology.hl7.org/CodeSystem/observation-category",
                "code": "laboratory"
              }
            ]
          }
        ],
        "code": {
          "coding": [
            {
              "code": "2075-0",
              "system": "http://loinc.org",
              "display": "Chloride [Moles/volume] in Serum or Plasma"
            }
          ],
          "text": "Chloride [Moles/volume] in Serum or Plasma"
        },
        "valueQuantity": {
          "system": "http://unitsofmeasure.org",
          "value": 102.4,
          "unit": "mmol/L",
          "code": "mmol/L"
        },
        "referenceRange": [
          {
            "low": {
              "value": 98,
              "code": "mmol/L",
              "system": "http://unitsofmeasure.org"
            }
          },
          {
            "high": {
              "value": 107,
              "code": "mmol/L",
              "system": "http://unitsofmeasure.org"
            }
          }
        ],
        "text": {
          "status": "generated",
          "div": "<div xmlns=\"http://www.w3.org/1999/xhtml\"><table class=\"hl7__eu__lab__report\"><tr><th>Test</th><th>17-Nov-2023</th><th>Reference&#xA0;Range</th><th>Unit</th></tr><tr><td>Chloride [Moles/volume] in Serum or Plasma</td><td>102.4</td><td>98 - 107</td><td></td><td>mmol/L</td></tr></table></div>"
        },
        "status": "final",
        "subject": {
          "reference": "urn:uuid:d32d923f-7bf1-45d6-ab57-12947e5f6fea",
          "display": "Victor Lagarde"
        },
        "effectiveDateTime": "2023-11-17T04:48:18Z",
        "specimen": {
          "reference": "urn:uuid:d08fdcd5-a66f-4730-bca1-5ba020c915a7"
        }
      }
    },
    {
      "fullUrl": "urn:uuid:3262cb6c-7579-4adf-9bd0-3b31893ced0a",
      "resource": {
        "resourceType": "Observation",
        "id": "3262cb6c-7579-4adf-9bd0-3b31893ced0a",
        "meta": {
          "profile": [
            "http://hl7.eu/fhir/laboratory/StructureDefinition/Observation-resultslab-eu-lab"
          ]
        },
        "performer": [
          {
            "display": "The Central European Lab"
          }
        ],
        "category": [
          {
            "coding": [
              {
                "system": "http://terminology.hl7.org/CodeSystem/observation-category",
                "code": "laboratory"
              }
            ]
          }
        ],
        "code": {
          "coding": [
            {
              "code": "2028-9",
              "system": "http://loinc.org",
              "display": "Carbon dioxide, total [Moles/volume] in Serum or Plasma"
            }
          ],
          "text": "Carbon dioxide, total [Moles/volume] in Serum or Plasma"
        },
        "valueQuantity": {
          "system": "http://unitsofmeasure.org",
          "value": 29,
          "unit": "mmol/L",
          "code": "mmol/L"
        },
        "referenceRange": [
          {
            "low": {
              "value": 22,
              "code": "mmol/L",
              "system": "http://unitsofmeasure.org"
            }
          },
          {
            "high": {
              "value": 33,
              "code": "mmol/L",
              "system": "http://unitsofmeasure.org"
            }
          }
        ],
        "text": {
          "status": "generated",
          "div": "<div xmlns=\"http://www.w3.org/1999/xhtml\"><table class=\"hl7__eu__lab__report\"><tr><th>Test</th><th>17-Nov-2023</th><th>Reference&#xA0;Range</th><th>Unit</th></tr><tr><td>Carbon dioxide, total [Moles/volume] in Serum or Plasma</td><td>29.0</td><td>22 - 33</td><td></td><td>mmol/L</td></tr></table></div>"
        },
        "status": "final",
        "subject": {
          "reference": "urn:uuid:d32d923f-7bf1-45d6-ab57-12947e5f6fea",
          "display": "Victor Lagarde"
        },
        "effectiveDateTime": "2023-11-17T04:48:18Z",
        "specimen": {
          "reference": "urn:uuid:d08fdcd5-a66f-4730-bca1-5ba020c915a7"
        }
      }
    },
    {
      "fullUrl": "urn:uuid:c5b5a370-3d93-4c79-9d62-ccd48271eb6d",
      "resource": {
        "resourceType": "Observation",
        "id": "c5b5a370-3d93-4c79-9d62-ccd48271eb6d",
        "meta": {
          "profile": [
            "http://hl7.eu/fhir/laboratory/StructureDefinition/Observation-resultslab-eu-lab"
          ]
        },
        "performer": [
          {
            "display": "The Central European Lab"
          }
        ],
        "category": [
          {
            "coding": [
              {
                "system": "http://terminology.hl7.org/CodeSystem/observation-category",
                "code": "laboratory"
              }
            ]
          }
        ],
        "code": {
          "coding": [
            {
              "code": "5767-9",
              "system": "http://loinc.org",
              "display": "Appearance of Urine"
            }
          ],
          "text": "Appearance of Urine"
        },
        "text": {
          "status": "generated",
          "div": "<div xmlns=\"http://www.w3.org/1999/xhtml\"><table class=\"hl7__eu__lab__report\"><tr><th>Test</th><th>17-Nov-2023</th><th>Reference&#xA0;Range</th><th>Unit</th></tr><tr><td>Appearance of Urine</td></tr></table></div>"
        },
        "status": "final",
        "subject": {
          "reference": "urn:uuid:d32d923f-7bf1-45d6-ab57-12947e5f6fea",
          "display": "Victor Lagarde"
        },
        "effectiveDateTime": "2023-11-17T04:48:18Z",
        "specimen": {
          "reference": "urn:uuid:96a44ed0-81ab-4c24-a72d-c2e8f796b729"
        }
      }
    },
    {
      "fullUrl": "urn:uuid:e6244719-5fa1-4c43-82b3-507103f302ab",
      "resource": {
        "resourceType": "Observation",
        "id": "e6244719-5fa1-4c43-82b3-507103f302ab",
        "meta": {
          "profile": [
            "http://hl7.eu/fhir/laboratory/StructureDefinition/Observation-resultslab-eu-lab"
          ]
        },
        "performer": [
          {
            "display": "The Central European Lab"
          }
        ],
        "category": [
          {
            "coding": [
              {
                "system": "http://terminology.hl7.org/CodeSystem/observation-category",
                "code": "laboratory"
              }
            ]
          }
        ],
        "code": {
          "coding": [
            {
              "code": "34533-0",
              "system": "http://loinc.org",
              "display": "Odor of Urine"
            }
          ],
          "text": "Odor of Urine"
        },
        "text": {
          "status": "generated",
          "div": "<div xmlns=\"http://www.w3.org/1999/xhtml\"><table class=\"hl7__eu__lab__report\"><tr><th>Test</th><th>17-Nov-2023</th><th>Reference&#xA0;Range</th><th>Unit</th></tr><tr><td>Odor of Urine</td></tr></table></div>"
        },
        "status": "final",
        "subject": {
          "reference": "urn:uuid:d32d923f-7bf1-45d6-ab57-12947e5f6fea",
          "display": "Victor Lagarde"
        },
        "effectiveDateTime": "2023-11-17T04:48:18Z",
        "specimen": {
          "reference": "urn:uuid:96a44ed0-81ab-4c24-a72d-c2e8f796b729"
        }
      }
    },
    {
      "fullUrl": "urn:uuid:1a27007f-5588-4286-9187-42033c98e977",
      "resource": {
        "resourceType": "Observation",
        "id": "1a27007f-5588-4286-9187-42033c98e977",
        "meta": {
          "profile": [
            "http://hl7.eu/fhir/laboratory/StructureDefinition/Observation-resultslab-eu-lab"
          ]
        },
        "performer": [
          {
            "display": "The Central European Lab"
          }
        ],
        "category": [
          {
            "coding": [
              {
                "system": "http://terminology.hl7.org/CodeSystem/observation-category",
                "code": "laboratory"
              }
            ]
          }
        ],
        "code": {
          "coding": [
            {
              "code": "32167-9",
              "system": "http://loinc.org",
              "display": "Clarity of Urine"
            }
          ],
          "text": "Clarity of Urine"
        },
        "text": {
          "status": "generated",
          "div": "<div xmlns=\"http://www.w3.org/1999/xhtml\"><table class=\"hl7__eu__lab__report\"><tr><th>Test</th><th>17-Nov-2023</th><th>Reference&#xA0;Range</th><th>Unit</th></tr><tr><td>Clarity of Urine</td></tr></table></div>"
        },
        "status": "final",
        "subject": {
          "reference": "urn:uuid:d32d923f-7bf1-45d6-ab57-12947e5f6fea",
          "display": "Victor Lagarde"
        },
        "effectiveDateTime": "2023-11-17T04:48:18Z",
        "specimen": {
          "reference": "urn:uuid:96a44ed0-81ab-4c24-a72d-c2e8f796b729"
        }
      }
    },
    {
      "fullUrl": "urn:uuid:70607555-5b44-4e1f-acf9-416c3e664ad2",
      "resource": {
        "resourceType": "Observation",
        "id": "70607555-5b44-4e1f-acf9-416c3e664ad2",
        "meta": {
          "profile": [
            "http://hl7.eu/fhir/laboratory/StructureDefinition/Observation-resultslab-eu-lab"
          ]
        },
        "performer": [
          {
            "display": "The Central European Lab"
          }
        ],
        "category": [
          {
            "coding": [
              {
                "system": "http://terminology.hl7.org/CodeSystem/observation-category",
                "code": "laboratory"
              }
            ]
          }
        ],
        "code": {
          "coding": [
            {
              "code": "5778-6",
              "system": "http://loinc.org",
              "display": "Color of Urine"
            }
          ],
          "text": "Color of Urine"
        },
        "text": {
          "status": "generated",
          "div": "<div xmlns=\"http://www.w3.org/1999/xhtml\"><table class=\"hl7__eu__lab__report\"><tr><th>Test</th><th>17-Nov-2023</th><th>Reference&#xA0;Range</th><th>Unit</th></tr><tr><td>Color of Urine</td></tr></table></div>"
        },
        "status": "final",
        "subject": {
          "reference": "urn:uuid:d32d923f-7bf1-45d6-ab57-12947e5f6fea",
          "display": "Victor Lagarde"
        },
        "effectiveDateTime": "2023-11-17T04:48:18Z",
        "specimen": {
          "reference": "urn:uuid:96a44ed0-81ab-4c24-a72d-c2e8f796b729"
        }
      }
    },
    {
      "fullUrl": "urn:uuid:3e71b9dd-d442-4706-a652-808f70a5568c",
      "resource": {
        "resourceType": "Observation",
        "id": "3e71b9dd-d442-4706-a652-808f70a5568c",
        "meta": {
          "profile": [
            "http://hl7.eu/fhir/laboratory/StructureDefinition/Observation-resultslab-eu-lab"
          ]
        },
        "performer": [
          {
            "display": "The Central European Lab"
          }
        ],
        "category": [
          {
            "coding": [
              {
                "system": "http://terminology.hl7.org/CodeSystem/observation-category",
                "code": "laboratory"
              }
            ]
          }
        ],
        "code": {
          "coding": [
            {
              "code": "5792-7",
              "system": "http://loinc.org",
              "display": "Glucose [Mass/volume] in Urine by Test strip"
            }
          ],
          "text": "Glucose [Mass/volume] in Urine by Test strip"
        },
        "valueQuantity": {
          "system": "http://unitsofmeasure.org",
          "value": 0.9,
          "unit": "mg/dL",
          "code": "mg/dL"
        },
        "referenceRange": [
          {
            "low": {
              "value": 0,
              "code": "mg/dL",
              "system": "http://unitsofmeasure.org"
            }
          },
          {
            "high": {
              "value": 0.8,
              "code": "mg/dL",
              "system": "http://unitsofmeasure.org"
            }
          }
        ],
        "interpretation": [
          {
            "coding": [
              {
                "code": "H",
                "system": "http://terminology.hl7.org/CodeSystem/v3-ObservationInterpretation",
                "display": "High"
              }
            ]
          }
        ],
        "text": {
          "status": "generated",
          "div": "<div xmlns=\"http://www.w3.org/1999/xhtml\"><table class=\"hl7__eu__lab__report\"><tr><th>Test</th><th>17-Nov-2023</th><th>Reference&#xA0;Range</th><th>Unit</th></tr><tr><td>Glucose [Mass/volume] in Urine by Test strip</td><td>0.9</td><td>0 - 0.8</td><td>H</td><td>mg/dL</td></tr></table></div>"
        },
        "status": "final",
        "subject": {
          "reference": "urn:uuid:d32d923f-7bf1-45d6-ab57-12947e5f6fea",
          "display": "Victor Lagarde"
        },
        "effectiveDateTime": "2023-11-17T04:48:18Z",
        "specimen": {
          "reference": "urn:uuid:96a44ed0-81ab-4c24-a72d-c2e8f796b729"
        }
      }
    },
    {
      "fullUrl": "urn:uuid:9c31e67c-7d31-4157-a5df-6729dde9fedb",
      "resource": {
        "resourceType": "Observation",
        "id": "9c31e67c-7d31-4157-a5df-6729dde9fedb",
        "meta": {
          "profile": [
            "http://hl7.eu/fhir/laboratory/StructureDefinition/Observation-resultslab-eu-lab"
          ]
        },
        "performer": [
          {
            "display": "The Central European Lab"
          }
        ],
        "category": [
          {
            "coding": [
              {
                "system": "http://terminology.hl7.org/CodeSystem/observation-category",
                "code": "laboratory"
              }
            ]
          }
        ],
        "code": {
          "coding": [
            {
              "code": "25428-4",
              "system": "http://loinc.org",
              "display": "Glucose [Presence] in Urine by Test strip"
            }
          ],
          "text": "Glucose [Presence] in Urine by Test strip"
        },
        "text": {
          "status": "generated",
          "div": "<div xmlns=\"http://www.w3.org/1999/xhtml\"><table class=\"hl7__eu__lab__report\"><tr><th>Test</th><th>17-Nov-2023</th><th>Reference&#xA0;Range</th><th>Unit</th></tr><tr><td>Glucose [Presence] in Urine by Test strip</td></tr></table></div>"
        },
        "status": "final",
        "subject": {
          "reference": "urn:uuid:d32d923f-7bf1-45d6-ab57-12947e5f6fea",
          "display": "Victor Lagarde"
        },
        "effectiveDateTime": "2023-11-17T04:48:18Z",
        "specimen": {
          "reference": "urn:uuid:96a44ed0-81ab-4c24-a72d-c2e8f796b729"
        }
      }
    },
    {
      "fullUrl": "urn:uuid:07bdd7ff-3022-40db-b1fa-8582cf51c878",
      "resource": {
        "resourceType": "Observation",
        "id": "07bdd7ff-3022-40db-b1fa-8582cf51c878",
        "meta": {
          "profile": [
            "http://hl7.eu/fhir/laboratory/StructureDefinition/Observation-resultslab-eu-lab"
          ]
        },
        "performer": [
          {
            "display": "The Central European Lab"
          }
        ],
        "category": [
          {
            "coding": [
              {
                "system": "http://terminology.hl7.org/CodeSystem/observation-category",
                "code": "laboratory"
              }
            ]
          }
        ],
        "code": {
          "coding": [
            {
              "code": "20505-4",
              "system": "http://loinc.org",
              "display": "Bilirubin.total [Mass/volume] in Urine by Test strip"
            }
          ],
          "text": "Bilirubin.total [Mass/volume] in Urine by Test strip"
        },
        "valueQuantity": {
          "system": "http://unitsofmeasure.org",
          "value": 0.2,
          "unit": "mg/dL",
          "code": "mg/dL"
        },
        "referenceRange": [
          {
            "low": {
              "value": 0,
              "code": "mg/dL",
              "system": "http://unitsofmeasure.org"
            }
          },
          {
            "high": {
              "value": 1.9,
              "code": "mg/dL",
              "system": "http://unitsofmeasure.org"
            }
          }
        ],
        "text": {
          "status": "generated",
          "div": "<div xmlns=\"http://www.w3.org/1999/xhtml\"><table class=\"hl7__eu__lab__report\"><tr><th>Test</th><th>17-Nov-2023</th><th>Reference&#xA0;Range</th><th>Unit</th></tr><tr><td>Bilirubin.total [Mass/volume] in Urine by Test strip</td><td>0.2</td><td>0 - 1.9</td><td></td><td>mg/dL</td></tr></table></div>"
        },
        "status": "final",
        "subject": {
          "reference": "urn:uuid:d32d923f-7bf1-45d6-ab57-12947e5f6fea",
          "display": "Victor Lagarde"
        },
        "effectiveDateTime": "2023-11-17T04:48:18Z",
        "specimen": {
          "reference": "urn:uuid:96a44ed0-81ab-4c24-a72d-c2e8f796b729"
        }
      }
    },
    {
      "fullUrl": "urn:uuid:e2511ae1-2fcd-4eee-ae83-7cf2e9b91f03",
      "resource": {
        "resourceType": "Observation",
        "id": "e2511ae1-2fcd-4eee-ae83-7cf2e9b91f03",
        "meta": {
          "profile": [
            "http://hl7.eu/fhir/laboratory/StructureDefinition/Observation-resultslab-eu-lab"
          ]
        },
        "performer": [
          {
            "display": "The Central European Lab"
          }
        ],
        "category": [
          {
            "coding": [
              {
                "system": "http://terminology.hl7.org/CodeSystem/observation-category",
                "code": "laboratory"
              }
            ]
          }
        ],
        "code": {
          "coding": [
            {
              "code": "5770-3",
              "system": "http://loinc.org",
              "display": "Bilirubin.total [Presence] in Urine by Test strip"
            }
          ],
          "text": "Bilirubin.total [Presence] in Urine by Test strip"
        },
        "text": {
          "status": "generated",
          "div": "<div xmlns=\"http://www.w3.org/1999/xhtml\"><table class=\"hl7__eu__lab__report\"><tr><th>Test</th><th>17-Nov-2023</th><th>Reference&#xA0;Range</th><th>Unit</th></tr><tr><td>Bilirubin.total [Presence] in Urine by Test strip</td></tr></table></div>"
        },
        "status": "final",
        "subject": {
          "reference": "urn:uuid:d32d923f-7bf1-45d6-ab57-12947e5f6fea",
          "display": "Victor Lagarde"
        },
        "effectiveDateTime": "2023-11-17T04:48:18Z",
        "specimen": {
          "reference": "urn:uuid:96a44ed0-81ab-4c24-a72d-c2e8f796b729"
        }
      }
    },
    {
      "fullUrl": "urn:uuid:9f35e4e2-8f05-4ff1-8ff8-1b8eddccb8e5",
      "resource": {
        "resourceType": "Observation",
        "id": "9f35e4e2-8f05-4ff1-8ff8-1b8eddccb8e5",
        "meta": {
          "profile": [
            "http://hl7.eu/fhir/laboratory/StructureDefinition/Observation-resultslab-eu-lab"
          ]
        },
        "performer": [
          {
            "display": "The Central European Lab"
          }
        ],
        "category": [
          {
            "coding": [
              {
                "system": "http://terminology.hl7.org/CodeSystem/observation-category",
                "code": "laboratory"
              }
            ]
          }
        ],
        "code": {
          "coding": [
            {
              "code": "5797-6",
              "system": "http://loinc.org",
              "display": "Ketones [Mass/volume] in Urine by Test strip"
            }
          ],
          "text": "Ketones [Mass/volume] in Urine by Test strip"
        },
        "valueQuantity": {
          "system": "http://unitsofmeasure.org",
          "value": 2.3,
          "unit": "mg/dL",
          "code": "mg/dL"
        },
        "referenceRange": [
          {
            "low": {
              "value": 0,
              "code": "mg/dL",
              "system": "http://unitsofmeasure.org"
            }
          },
          {
            "high": {
              "value": 3,
              "code": "mg/dL",
              "system": "http://unitsofmeasure.org"
            }
          }
        ],
        "text": {
          "status": "generated",
          "div": "<div xmlns=\"http://www.w3.org/1999/xhtml\"><table class=\"hl7__eu__lab__report\"><tr><th>Test</th><th>17-Nov-2023</th><th>Reference&#xA0;Range</th><th>Unit</th></tr><tr><td>Ketones [Mass/volume] in Urine by Test strip</td><td>2.3</td><td>0 - 3</td><td></td><td>mg/dL</td></tr></table></div>"
        },
        "status": "final",
        "subject": {
          "reference": "urn:uuid:d32d923f-7bf1-45d6-ab57-12947e5f6fea",
          "display": "Victor Lagarde"
        },
        "effectiveDateTime": "2023-11-17T04:48:18Z",
        "specimen": {
          "reference": "urn:uuid:96a44ed0-81ab-4c24-a72d-c2e8f796b729"
        }
      }
    },
    {
      "fullUrl": "urn:uuid:39526e5f-5244-44b8-9d3e-29ee7ff6c2f8",
      "resource": {
        "resourceType": "Observation",
        "id": "39526e5f-5244-44b8-9d3e-29ee7ff6c2f8",
        "meta": {
          "profile": [
            "http://hl7.eu/fhir/laboratory/StructureDefinition/Observation-resultslab-eu-lab"
          ]
        },
        "performer": [
          {
            "display": "The Central European Lab"
          }
        ],
        "category": [
          {
            "coding": [
              {
                "system": "http://terminology.hl7.org/CodeSystem/observation-category",
                "code": "laboratory"
              }
            ]
          }
        ],
        "code": {
          "coding": [
            {
              "code": "2514-8",
              "system": "http://loinc.org",
              "display": "Ketones [Presence] in Urine by Test strip"
            }
          ],
          "text": "Ketones [Presence] in Urine by Test strip"
        },
        "text": {
          "status": "generated",
          "div": "<div xmlns=\"http://www.w3.org/1999/xhtml\"><table class=\"hl7__eu__lab__report\"><tr><th>Test</th><th>17-Nov-2023</th><th>Reference&#xA0;Range</th><th>Unit</th></tr><tr><td>Ketones [Presence] in Urine by Test strip</td></tr></table></div>"
        },
        "status": "final",
        "subject": {
          "reference": "urn:uuid:d32d923f-7bf1-45d6-ab57-12947e5f6fea",
          "display": "Victor Lagarde"
        },
        "effectiveDateTime": "2023-11-17T04:48:18Z",
        "specimen": {
          "reference": "urn:uuid:96a44ed0-81ab-4c24-a72d-c2e8f796b729"
        }
      }
    },
    {
      "fullUrl": "urn:uuid:56cfa87c-0b06-4581-8049-d46152c4edce",
      "resource": {
        "resourceType": "Observation",
        "id": "56cfa87c-0b06-4581-8049-d46152c4edce",
        "meta": {
          "profile": [
            "http://hl7.eu/fhir/laboratory/StructureDefinition/Observation-resultslab-eu-lab"
          ]
        },
        "performer": [
          {
            "display": "The Central European Lab"
          }
        ],
        "category": [
          {
            "coding": [
              {
                "system": "http://terminology.hl7.org/CodeSystem/observation-category",
                "code": "laboratory"
              }
            ]
          }
        ],
        "code": {
          "coding": [
            {
              "code": "5811-5",
              "system": "http://loinc.org",
              "display": "Specific gravity of Urine by Test strip"
            }
          ],
          "text": "Specific gravity of Urine by Test strip"
        },
        "valueQuantity": {
          "system": "http://unitsofmeasure.org",
          "value": 1,
          "unit": "{nominal}",
          "code": "{nominal}"
        },
        "referenceRange": [
          {
            "low": {
              "value": 1.01,
              "code": "g/mL",
              "system": "http://unitsofmeasure.org"
            }
          },
          {
            "high": {
              "value": 1.03,
              "code": "g/mL",
              "system": "http://unitsofmeasure.org"
            }
          }
        ],
        "interpretation": [
          {
            "coding": [
              {
                "code": "L",
                "system": "http://terminology.hl7.org/CodeSystem/v3-ObservationInterpretation",
                "display": "Low"
              }
            ]
          }
        ],
        "text": {
          "status": "generated",
          "div": "<div xmlns=\"http://www.w3.org/1999/xhtml\"><table class=\"hl7__eu__lab__report\"><tr><th>Test</th><th>17-Nov-2023</th><th>Reference&#xA0;Range</th><th>Unit</th></tr><tr><td>Specific gravity of Urine by Test strip</td><td>1.0</td><td>1.01 - 1.03</td><td>L</td><td>{nominal}</td></tr></table></div>"
        },
        "status": "final",
        "subject": {
          "reference": "urn:uuid:d32d923f-7bf1-45d6-ab57-12947e5f6fea",
          "display": "Victor Lagarde"
        },
        "effectiveDateTime": "2023-11-17T04:48:18Z",
        "specimen": {
          "reference": "urn:uuid:96a44ed0-81ab-4c24-a72d-c2e8f796b729"
        }
      }
    },
    {
      "fullUrl": "urn:uuid:834fb254-f5d8-4671-8640-29f50c300290",
      "resource": {
        "resourceType": "Observation",
        "id": "834fb254-f5d8-4671-8640-29f50c300290",
        "meta": {
          "profile": [
            "http://hl7.eu/fhir/laboratory/StructureDefinition/Observation-resultslab-eu-lab"
          ]
        },
        "performer": [
          {
            "display": "The Central European Lab"
          }
        ],
        "category": [
          {
            "coding": [
              {
                "system": "http://terminology.hl7.org/CodeSystem/observation-category",
                "code": "laboratory"
              }
            ]
          }
        ],
        "code": {
          "coding": [
            {
              "code": "5803-2",
              "system": "http://loinc.org",
              "display": "pH of Urine by Test strip"
            }
          ],
          "text": "pH of Urine by Test strip"
        },
        "valueQuantity": {
          "system": "http://unitsofmeasure.org",
          "value": 5.8,
          "unit": "pH",
          "code": "pH"
        },
        "referenceRange": [
          {
            "low": {
              "value": 4.5,
              "code": "pH",
              "system": "http://unitsofmeasure.org"
            }
          },
          {
            "high": {
              "value": 7.5,
              "code": "pH",
              "system": "http://unitsofmeasure.org"
            }
          }
        ],
        "text": {
          "status": "generated",
          "div": "<div xmlns=\"http://www.w3.org/1999/xhtml\"><table class=\"hl7__eu__lab__report\"><tr><th>Test</th><th>17-Nov-2023</th><th>Reference&#xA0;Range</th><th>Unit</th></tr><tr><td>pH of Urine by Test strip</td><td>5.8</td><td>4.5 - 7.5</td><td></td><td>pH</td></tr></table></div>"
        },
        "status": "final",
        "subject": {
          "reference": "urn:uuid:d32d923f-7bf1-45d6-ab57-12947e5f6fea",
          "display": "Victor Lagarde"
        },
        "effectiveDateTime": "2023-11-17T04:48:18Z",
        "specimen": {
          "reference": "urn:uuid:96a44ed0-81ab-4c24-a72d-c2e8f796b729"
        }
      }
    },
    {
      "fullUrl": "urn:uuid:5739cdb5-af4f-4536-af51-9a92f2ee1553",
      "resource": {
        "resourceType": "Observation",
        "id": "5739cdb5-af4f-4536-af51-9a92f2ee1553",
        "meta": {
          "profile": [
            "http://hl7.eu/fhir/laboratory/StructureDefinition/Observation-resultslab-eu-lab"
          ]
        },
        "performer": [
          {
            "display": "The Central European Lab"
          }
        ],
        "category": [
          {
            "coding": [
              {
                "system": "http://terminology.hl7.org/CodeSystem/observation-category",
                "code": "laboratory"
              }
            ]
          }
        ],
        "code": {
          "coding": [
            {
              "code": "5804-0",
              "system": "http://loinc.org",
              "display": "Protein [Mass/volume] in Urine by Test strip"
            }
          ],
          "text": "Protein [Mass/volume] in Urine by Test strip"
        },
        "valueQuantity": {
          "system": "http://unitsofmeasure.org",
          "value": 303.7,
          "unit": "mg/dL",
          "code": "mg/dL"
        },
        "referenceRange": [
          {
            "low": {
              "value": 0,
              "code": "mg/dL",
              "system": "http://unitsofmeasure.org"
            }
          },
          {
            "high": {
              "value": 149,
              "code": "mg/dL",
              "system": "http://unitsofmeasure.org"
            }
          }
        ],
        "interpretation": [
          {
            "coding": [
              {
                "code": "H",
                "system": "http://terminology.hl7.org/CodeSystem/v3-ObservationInterpretation",
                "display": "High"
              }
            ]
          }
        ],
        "text": {
          "status": "generated",
          "div": "<div xmlns=\"http://www.w3.org/1999/xhtml\"><table class=\"hl7__eu__lab__report\"><tr><th>Test</th><th>17-Nov-2023</th><th>Reference&#xA0;Range</th><th>Unit</th></tr><tr><td>Protein [Mass/volume] in Urine by Test strip</td><td>303.7</td><td>0 - 149</td><td>H</td><td>mg/dL</td></tr></table></div>"
        },
        "status": "final",
        "subject": {
          "reference": "urn:uuid:d32d923f-7bf1-45d6-ab57-12947e5f6fea",
          "display": "Victor Lagarde"
        },
        "effectiveDateTime": "2023-11-17T04:48:18Z",
        "specimen": {
          "reference": "urn:uuid:96a44ed0-81ab-4c24-a72d-c2e8f796b729"
        }
      }
    },
    {
      "fullUrl": "urn:uuid:8f60c2eb-183e-4a2d-af39-bc32d715af84",
      "resource": {
        "resourceType": "Observation",
        "id": "8f60c2eb-183e-4a2d-af39-bc32d715af84",
        "meta": {
          "profile": [
            "http://hl7.eu/fhir/laboratory/StructureDefinition/Observation-resultslab-eu-lab"
          ]
        },
        "performer": [
          {
            "display": "The Central European Lab"
          }
        ],
        "category": [
          {
            "coding": [
              {
                "system": "http://terminology.hl7.org/CodeSystem/observation-category",
                "code": "laboratory"
              }
            ]
          }
        ],
        "code": {
          "coding": [
            {
              "code": "20454-5",
              "system": "http://loinc.org",
              "display": "Protein [Presence] in Urine by Test strip"
            }
          ],
          "text": "Protein [Presence] in Urine by Test strip"
        },
        "text": {
          "status": "generated",
          "div": "<div xmlns=\"http://www.w3.org/1999/xhtml\"><table class=\"hl7__eu__lab__report\"><tr><th>Test</th><th>17-Nov-2023</th><th>Reference&#xA0;Range</th><th>Unit</th></tr><tr><td>Protein [Presence] in Urine by Test strip</td></tr></table></div>"
        },
        "status": "final",
        "subject": {
          "reference": "urn:uuid:d32d923f-7bf1-45d6-ab57-12947e5f6fea",
          "display": "Victor Lagarde"
        },
        "effectiveDateTime": "2023-11-17T04:48:18Z",
        "specimen": {
          "reference": "urn:uuid:96a44ed0-81ab-4c24-a72d-c2e8f796b729"
        }
      }
    },
    {
      "fullUrl": "urn:uuid:a4deb29c-015e-4865-b8ac-c38684b82ba2",
      "resource": {
        "resourceType": "Observation",
        "id": "a4deb29c-015e-4865-b8ac-c38684b82ba2",
        "meta": {
          "profile": [
            "http://hl7.eu/fhir/laboratory/StructureDefinition/Observation-resultslab-eu-lab"
          ]
        },
        "performer": [
          {
            "display": "The Central European Lab"
          }
        ],
        "category": [
          {
            "coding": [
              {
                "system": "http://terminology.hl7.org/CodeSystem/observation-category",
                "code": "laboratory"
              }
            ]
          }
        ],
        "code": {
          "coding": [
            {
              "code": "5802-4",
              "system": "http://loinc.org",
              "display": "Nitrite [Presence] in Urine by Test strip"
            }
          ],
          "text": "Nitrite [Presence] in Urine by Test strip"
        },
        "text": {
          "status": "generated",
          "div": "<div xmlns=\"http://www.w3.org/1999/xhtml\"><table class=\"hl7__eu__lab__report\"><tr><th>Test</th><th>17-Nov-2023</th><th>Reference&#xA0;Range</th><th>Unit</th></tr><tr><td>Nitrite [Presence] in Urine by Test strip</td></tr></table></div>"
        },
        "status": "final",
        "subject": {
          "reference": "urn:uuid:d32d923f-7bf1-45d6-ab57-12947e5f6fea",
          "display": "Victor Lagarde"
        },
        "effectiveDateTime": "2023-11-17T04:48:18Z",
        "specimen": {
          "reference": "urn:uuid:96a44ed0-81ab-4c24-a72d-c2e8f796b729"
        }
      }
    },
    {
      "fullUrl": "urn:uuid:6da1116b-30a8-49ea-b39f-97b2825e9b95",
      "resource": {
        "resourceType": "Observation",
        "id": "6da1116b-30a8-49ea-b39f-97b2825e9b95",
        "meta": {
          "profile": [
            "http://hl7.eu/fhir/laboratory/StructureDefinition/Observation-resultslab-eu-lab"
          ]
        },
        "performer": [
          {
            "display": "The Central European Lab"
          }
        ],
        "category": [
          {
            "coding": [
              {
                "system": "http://terminology.hl7.org/CodeSystem/observation-category",
                "code": "laboratory"
              }
            ]
          }
        ],
        "code": {
          "coding": [
            {
              "code": "5794-3",
              "system": "http://loinc.org",
              "display": "Hemoglobin [Presence] in Urine by Test strip"
            }
          ],
          "text": "Hemoglobin [Presence] in Urine by Test strip"
        },
        "text": {
          "status": "generated",
          "div": "<div xmlns=\"http://www.w3.org/1999/xhtml\"><table class=\"hl7__eu__lab__report\"><tr><th>Test</th><th>17-Nov-2023</th><th>Reference&#xA0;Range</th><th>Unit</th></tr><tr><td>Hemoglobin [Presence] in Urine by Test strip</td></tr></table></div>"
        },
        "status": "final",
        "subject": {
          "reference": "urn:uuid:d32d923f-7bf1-45d6-ab57-12947e5f6fea",
          "display": "Victor Lagarde"
        },
        "effectiveDateTime": "2023-11-17T04:48:18Z",
        "specimen": {
          "reference": "urn:uuid:96a44ed0-81ab-4c24-a72d-c2e8f796b729"
        }
      }
    },
    {
      "fullUrl": "urn:uuid:dee9d447-4f7d-46c0-a721-8959ef75ee9e",
      "resource": {
        "resourceType": "Observation",
        "id": "dee9d447-4f7d-46c0-a721-8959ef75ee9e",
        "meta": {
          "profile": [
            "http://hl7.eu/fhir/laboratory/StructureDefinition/Observation-resultslab-eu-lab"
          ]
        },
        "performer": [
          {
            "display": "The Central European Lab"
          }
        ],
        "category": [
          {
            "coding": [
              {
                "system": "http://terminology.hl7.org/CodeSystem/observation-category",
                "code": "laboratory"
              }
            ]
          }
        ],
        "code": {
          "coding": [
            {
              "code": "5799-2",
              "system": "http://loinc.org",
              "display": "Leukocyte esterase [Presence] in Urine by Test strip"
            }
          ],
          "text": "Leukocyte esterase [Presence] in Urine by Test strip"
        },
        "text": {
          "status": "generated",
          "div": "<div xmlns=\"http://www.w3.org/1999/xhtml\"><table class=\"hl7__eu__lab__report\"><tr><th>Test</th><th>17-Nov-2023</th><th>Reference&#xA0;Range</th><th>Unit</th></tr><tr><td>Leukocyte esterase [Presence] in Urine by Test strip</td></tr></table></div>"
        },
        "status": "final",
        "subject": {
          "reference": "urn:uuid:d32d923f-7bf1-45d6-ab57-12947e5f6fea",
          "display": "Victor Lagarde"
        },
        "effectiveDateTime": "2023-11-17T04:48:18Z",
        "specimen": {
          "reference": "urn:uuid:96a44ed0-81ab-4c24-a72d-c2e8f796b729"
        }
      }
    },
    {
      "fullUrl": "urn:uuid:36ade72f-6151-488d-8128-a6575c8dc8e7",
      "resource": {
        "resourceType": "Observation",
        "id": "36ade72f-6151-488d-8128-a6575c8dc8e7",
        "meta": {
          "profile": [
            "http://hl7.eu/fhir/laboratory/StructureDefinition/Observation-resultslab-eu-lab"
          ]
        },
        "performer": [
          {
            "display": "The Central European Lab"
          }
        ],
        "category": [
          {
            "coding": [
              {
                "system": "http://terminology.hl7.org/CodeSystem/observation-category",
                "code": "laboratory"
              }
            ]
          }
        ],
        "code": {
          "coding": [
            {
              "code": "4548-4",
              "system": "http://loinc.org",
              "display": "Hemoglobin A1c/Hemoglobin.total in Blood"
            }
          ],
          "text": "Hemoglobin A1c/Hemoglobin.total in Blood"
        },
        "valueQuantity": {
          "system": "http://unitsofmeasure.org",
          "value": 3.4,
          "unit": "%",
          "code": "%"
        },
        "referenceRange": [
          {
            "low": {
              "value": 4.3,
              "code": "%",
              "system": "http://unitsofmeasure.org"
            }
          },
          {
            "high": {
              "value": 6,
              "code": "%",
              "system": "http://unitsofmeasure.org"
            }
          }
        ],
        "interpretation": [
          {
            "coding": [
              {
                "code": "L",
                "system": "http://terminology.hl7.org/CodeSystem/v3-ObservationInterpretation",
                "display": "Low"
              }
            ]
          }
        ],
        "text": {
          "status": "generated",
          "div": "<div xmlns=\"http://www.w3.org/1999/xhtml\"><table class=\"hl7__eu__lab__report\"><tr><th>Test</th><th>17-Nov-2023</th><th>Reference&#xA0;Range</th><th>Unit</th></tr><tr><td>Hemoglobin A1c/Hemoglobin.total in Blood</td><td>3.4</td><td>4.3 - 6</td><td>L</td><td>%</td></tr></table></div>"
        },
        "status": "final",
        "subject": {
          "reference": "urn:uuid:d32d923f-7bf1-45d6-ab57-12947e5f6fea",
          "display": "Victor Lagarde"
        },
        "effectiveDateTime": "2023-11-17T04:48:18Z",
        "specimen": {
          "reference": "urn:uuid:93c6e38b-6b99-42a6-8082-1214a14aba13"
        }
      }
    },
    {
      "fullUrl": "urn:uuid:f9e1648b-9657-4292-8a84-6b99df90e466",
      "resource": {
        "resourceType": "Observation",
        "id": "f9e1648b-9657-4292-8a84-6b99df90e466",
        "meta": {
          "profile": [
            "http://hl7.eu/fhir/laboratory/StructureDefinition/Observation-resultslab-eu-lab"
          ]
        },
        "performer": [
          {
            "display": "The Central European Lab"
          }
        ],
        "category": [
          {
            "coding": [
              {
                "system": "http://terminology.hl7.org/CodeSystem/observation-category",
                "code": "laboratory"
              }
            ]
          }
        ],
        "code": {
          "coding": [
            {
              "code": "2339-0",
              "system": "http://loinc.org",
              "display": "Glucose [Mass/volume] in Blood"
            }
          ],
          "text": "Glucose [Mass/volume] in Blood"
        },
        "valueQuantity": {
          "system": "http://unitsofmeasure.org",
          "value": 76.5,
          "unit": "mg/dL",
          "code": "mg/dL"
        },
        "referenceRange": [
          {
            "low": {
              "value": 70,
              "code": "mg/dL",
              "system": "http://unitsofmeasure.org"
            }
          },
          {
            "high": {
              "value": 140,
              "code": "mg/dL",
              "system": "http://unitsofmeasure.org"
            }
          }
        ],
        "text": {
          "status": "generated",
          "div": "<div xmlns=\"http://www.w3.org/1999/xhtml\"><table class=\"hl7__eu__lab__report\"><tr><th>Test</th><th>17-Nov-2023</th><th>Reference&#xA0;Range</th><th>Unit</th></tr><tr><td>Glucose [Mass/volume] in Blood</td><td>76.5</td><td>70 - 140</td><td></td><td>mg/dL</td></tr></table></div>"
        },
        "status": "final",
        "subject": {
          "reference": "urn:uuid:d32d923f-7bf1-45d6-ab57-12947e5f6fea",
          "display": "Victor Lagarde"
        },
        "effectiveDateTime": "2023-11-17T04:48:18Z",
        "specimen": {
          "reference": "urn:uuid:93c6e38b-6b99-42a6-8082-1214a14aba13"
        }
      }
    },
    {
      "fullUrl": "urn:uuid:5e9ee268-f2ec-44a6-8f18-2d7673c6daba",
      "resource": {
        "resourceType": "Observation",
        "id": "5e9ee268-f2ec-44a6-8f18-2d7673c6daba",
        "meta": {
          "profile": [
            "http://hl7.eu/fhir/laboratory/StructureDefinition/Observation-resultslab-eu-lab"
          ]
        },
        "performer": [
          {
            "display": "The Central European Lab"
          }
        ],
        "category": [
          {
            "coding": [
              {
                "system": "http://terminology.hl7.org/CodeSystem/observation-category",
                "code": "laboratory"
              }
            ]
          }
        ],
        "code": {
          "coding": [
            {
              "code": "6299-2",
              "system": "http://loinc.org",
              "display": "Urea nitrogen [Mass/volume] in Blood"
            }
          ],
          "text": "Urea nitrogen [Mass/volume] in Blood"
        },
        "valueQuantity": {
          "system": "http://unitsofmeasure.org",
          "value": 19,
          "unit": "mg/dL",
          "code": "mg/dL"
        },
        "referenceRange": [
          {
            "low": {
              "value": 7,
              "code": "mg/dL",
              "system": "http://unitsofmeasure.org"
            }
          },
          {
            "high": {
              "value": 20,
              "code": "mg/dL",
              "system": "http://unitsofmeasure.org"
            }
          }
        ],
        "text": {
          "status": "generated",
          "div": "<div xmlns=\"http://www.w3.org/1999/xhtml\"><table class=\"hl7__eu__lab__report\"><tr><th>Test</th><th>17-Nov-2023</th><th>Reference&#xA0;Range</th><th>Unit</th></tr><tr><td>Urea nitrogen [Mass/volume] in Blood</td><td>19.0</td><td>7 - 20</td><td></td><td>mg/dL</td></tr></table></div>"
        },
        "status": "final",
        "subject": {
          "reference": "urn:uuid:d32d923f-7bf1-45d6-ab57-12947e5f6fea",
          "display": "Victor Lagarde"
        },
        "effectiveDateTime": "2023-11-17T04:48:18Z",
        "specimen": {
          "reference": "urn:uuid:93c6e38b-6b99-42a6-8082-1214a14aba13"
        }
      }
    },
    {
      "fullUrl": "urn:uuid:2506e475-fba2-4544-86b8-682f7f1ebc7a",
      "resource": {
        "resourceType": "Observation",
        "id": "2506e475-fba2-4544-86b8-682f7f1ebc7a",
        "meta": {
          "profile": [
            "http://hl7.eu/fhir/laboratory/StructureDefinition/Observation-resultslab-eu-lab"
          ]
        },
        "performer": [
          {
            "display": "The Central European Lab"
          }
        ],
        "category": [
          {
            "coding": [
              {
                "system": "http://terminology.hl7.org/CodeSystem/observation-category",
                "code": "laboratory"
              }
            ]
          }
        ],
        "code": {
          "coding": [
            {
              "code": "38483-4",
              "system": "http://loinc.org",
              "display": "Creatinine [Mass/volume] in Blood"
            }
          ],
          "text": "Creatinine [Mass/volume] in Blood"
        },
        "valueQuantity": {
          "system": "http://unitsofmeasure.org",
          "value": 2.7,
          "unit": "mg/dL",
          "code": "mg/dL"
        },
        "referenceRange": [
          {
            "low": {
              "value": 0.9,
              "code": "mg/dL",
              "system": "http://unitsofmeasure.org"
            }
          },
          {
            "high": {
              "value": 1.3,
              "code": "mg/dL",
              "system": "http://unitsofmeasure.org"
            }
          }
        ],
        "interpretation": [
          {
            "coding": [
              {
                "code": "H",
                "system": "http://terminology.hl7.org/CodeSystem/v3-ObservationInterpretation",
                "display": "High"
              }
            ]
          }
        ],
        "text": {
          "status": "generated",
          "div": "<div xmlns=\"http://www.w3.org/1999/xhtml\"><table class=\"hl7__eu__lab__report\"><tr><th>Test</th><th>17-Nov-2023</th><th>Reference&#xA0;Range</th><th>Unit</th></tr><tr><td>Creatinine [Mass/volume] in Blood</td><td>2.7</td><td>0.9 - 1.3</td><td>H</td><td>mg/dL</td></tr></table></div>"
        },
        "status": "final",
        "subject": {
          "reference": "urn:uuid:d32d923f-7bf1-45d6-ab57-12947e5f6fea",
          "display": "Victor Lagarde"
        },
        "effectiveDateTime": "2023-11-17T04:48:18Z",
        "specimen": {
          "reference": "urn:uuid:93c6e38b-6b99-42a6-8082-1214a14aba13"
        }
      }
    },
    {
      "fullUrl": "urn:uuid:b0c70c6c-8627-4fad-a112-ed70fa5a5633",
      "resource": {
        "resourceType": "Observation",
        "id": "b0c70c6c-8627-4fad-a112-ed70fa5a5633",
        "meta": {
          "profile": [
            "http://hl7.eu/fhir/laboratory/StructureDefinition/Observation-resultslab-eu-lab"
          ]
        },
        "performer": [
          {
            "display": "The Central European Lab"
          }
        ],
        "category": [
          {
            "coding": [
              {
                "system": "http://terminology.hl7.org/CodeSystem/observation-category",
                "code": "laboratory"
              }
            ]
          }
        ],
        "code": {
          "coding": [
            {
              "code": "49765-1",
              "system": "http://loinc.org",
              "display": "Calcium [Mass/volume] in Blood"
            }
          ],
          "text": "Calcium [Mass/volume] in Blood"
        },
        "valueQuantity": {
          "system": "http://unitsofmeasure.org",
          "value": 9.4,
          "unit": "mg/dL",
          "code": "mg/dL"
        },
        "referenceRange": [
          {
            "low": {
              "value": 8.5,
              "code": "mg/dL",
              "system": "http://unitsofmeasure.org"
            }
          },
          {
            "high": {
              "value": 10.5,
              "code": "mg/dL",
              "system": "http://unitsofmeasure.org"
            }
          }
        ],
        "text": {
          "status": "generated",
          "div": "<div xmlns=\"http://www.w3.org/1999/xhtml\"><table class=\"hl7__eu__lab__report\"><tr><th>Test</th><th>17-Nov-2023</th><th>Reference&#xA0;Range</th><th>Unit</th></tr><tr><td>Calcium [Mass/volume] in Blood</td><td>9.4</td><td>8.5 - 10.5</td><td></td><td>mg/dL</td></tr></table></div>"
        },
        "status": "final",
        "subject": {
          "reference": "urn:uuid:d32d923f-7bf1-45d6-ab57-12947e5f6fea",
          "display": "Victor Lagarde"
        },
        "effectiveDateTime": "2023-11-17T04:48:18Z",
        "specimen": {
          "reference": "urn:uuid:93c6e38b-6b99-42a6-8082-1214a14aba13"
        }
      }
    },
    {
      "fullUrl": "urn:uuid:5c2a41bc-c00b-4168-ae20-756a4d0cb0be",
      "resource": {
        "resourceType": "Observation",
        "id": "5c2a41bc-c00b-4168-ae20-756a4d0cb0be",
        "meta": {
          "profile": [
            "http://hl7.eu/fhir/laboratory/StructureDefinition/Observation-resultslab-eu-lab"
          ]
        },
        "performer": [
          {
            "display": "The Central European Lab"
          }
        ],
        "category": [
          {
            "coding": [
              {
                "system": "http://terminology.hl7.org/CodeSystem/observation-category",
                "code": "laboratory"
              }
            ]
          }
        ],
        "code": {
          "coding": [
            {
              "code": "2947-0",
              "system": "http://loinc.org",
              "display": "Sodium [Moles/volume] in Blood"
            }
          ],
          "text": "Sodium [Moles/volume] in Blood"
        },
        "valueQuantity": {
          "system": "http://unitsofmeasure.org",
          "value": 141.6,
          "unit": "mmol/L",
          "code": "mmol/L"
        },
        "referenceRange": [
          {
            "low": {
              "value": 135,
              "code": "mmol/L",
              "system": "http://unitsofmeasure.org"
            }
          },
          {
            "high": {
              "value": 145,
              "code": "mmol/L",
              "system": "http://unitsofmeasure.org"
            }
          }
        ],
        "text": {
          "status": "generated",
          "div": "<div xmlns=\"http://www.w3.org/1999/xhtml\"><table class=\"hl7__eu__lab__report\"><tr><th>Test</th><th>17-Nov-2023</th><th>Reference&#xA0;Range</th><th>Unit</th></tr><tr><td>Sodium [Moles/volume] in Blood</td><td>141.6</td><td>135 - 145</td><td></td><td>mmol/L</td></tr></table></div>"
        },
        "status": "final",
        "subject": {
          "reference": "urn:uuid:d32d923f-7bf1-45d6-ab57-12947e5f6fea",
          "display": "Victor Lagarde"
        },
        "effectiveDateTime": "2023-11-17T04:48:18Z",
        "specimen": {
          "reference": "urn:uuid:93c6e38b-6b99-42a6-8082-1214a14aba13"
        }
      }
    },
    {
      "fullUrl": "urn:uuid:103b8c67-45d1-43ef-b411-b6bdeb577406",
      "resource": {
        "resourceType": "Observation",
        "id": "103b8c67-45d1-43ef-b411-b6bdeb577406",
        "meta": {
          "profile": [
            "http://hl7.eu/fhir/laboratory/StructureDefinition/Observation-resultslab-eu-lab"
          ]
        },
        "performer": [
          {
            "display": "The Central European Lab"
          }
        ],
        "category": [
          {
            "coding": [
              {
                "system": "http://terminology.hl7.org/CodeSystem/observation-category",
                "code": "laboratory"
              }
            ]
          }
        ],
        "code": {
          "coding": [
            {
              "code": "6298-4",
              "system": "http://loinc.org",
              "display": "Potassium [Moles/volume] in Blood"
            }
          ],
          "text": "Potassium [Moles/volume] in Blood"
        },
        "valueQuantity": {
          "system": "http://unitsofmeasure.org",
          "value": 4.2,
          "unit": "mmol/L",
          "code": "mmol/L"
        },
        "referenceRange": [
          {
            "low": {
              "value": 3.5,
              "code": "mmol/L",
              "system": "http://unitsofmeasure.org"
            }
          },
          {
            "high": {
              "value": 5.1,
              "code": "mmol/L",
              "system": "http://unitsofmeasure.org"
            }
          }
        ],
        "text": {
          "status": "generated",
          "div": "<div xmlns=\"http://www.w3.org/1999/xhtml\"><table class=\"hl7__eu__lab__report\"><tr><th>Test</th><th>17-Nov-2023</th><th>Reference&#xA0;Range</th><th>Unit</th></tr><tr><td>Potassium [Moles/volume] in Blood</td><td>4.2</td><td>3.5 - 5.1</td><td></td><td>mmol/L</td></tr></table></div>"
        },
        "status": "final",
        "subject": {
          "reference": "urn:uuid:d32d923f-7bf1-45d6-ab57-12947e5f6fea",
          "display": "Victor Lagarde"
        },
        "effectiveDateTime": "2023-11-17T04:48:18Z",
        "specimen": {
          "reference": "urn:uuid:93c6e38b-6b99-42a6-8082-1214a14aba13"
        }
      }
    },
    {
      "fullUrl": "urn:uuid:748d090e-4577-4991-8656-f55cb74e3c20",
      "resource": {
        "resourceType": "Observation",
        "id": "748d090e-4577-4991-8656-f55cb74e3c20",
        "meta": {
          "profile": [
            "http://hl7.eu/fhir/laboratory/StructureDefinition/Observation-resultslab-eu-lab"
          ]
        },
        "performer": [
          {
            "display": "The Central European Lab"
          }
        ],
        "category": [
          {
            "coding": [
              {
                "system": "http://terminology.hl7.org/CodeSystem/observation-category",
                "code": "laboratory"
              }
            ]
          }
        ],
        "code": {
          "coding": [
            {
              "code": "2069-3",
              "system": "http://loinc.org",
              "display": "Chloride [Moles/volume] in Blood"
            }
          ],
          "text": "Chloride [Moles/volume] in Blood"
        },
        "valueQuantity": {
          "system": "http://unitsofmeasure.org",
          "value": 102.4,
          "unit": "mmol/L",
          "code": "mmol/L"
        },
        "referenceRange": [
          {
            "low": {
              "value": 98,
              "code": "mmol/L",
              "system": "http://unitsofmeasure.org"
            }
          },
          {
            "high": {
              "value": 108,
              "code": "mmol/L",
              "system": "http://unitsofmeasure.org"
            }
          }
        ],
        "text": {
          "status": "generated",
          "div": "<div xmlns=\"http://www.w3.org/1999/xhtml\"><table class=\"hl7__eu__lab__report\"><tr><th>Test</th><th>17-Nov-2023</th><th>Reference&#xA0;Range</th><th>Unit</th></tr><tr><td>Chloride [Moles/volume] in Blood</td><td>102.4</td><td>98 - 108</td><td></td><td>mmol/L</td></tr></table></div>"
        },
        "status": "final",
        "subject": {
          "reference": "urn:uuid:d32d923f-7bf1-45d6-ab57-12947e5f6fea",
          "display": "Victor Lagarde"
        },
        "effectiveDateTime": "2023-11-17T04:48:18Z",
        "specimen": {
          "reference": "urn:uuid:93c6e38b-6b99-42a6-8082-1214a14aba13"
        }
      }
    },
    {
      "fullUrl": "urn:uuid:df11663b-287d-4080-8ef7-71bce6c092d9",
      "resource": {
        "resourceType": "Observation",
        "id": "df11663b-287d-4080-8ef7-71bce6c092d9",
        "meta": {
          "profile": [
            "http://hl7.eu/fhir/laboratory/StructureDefinition/Observation-resultslab-eu-lab"
          ]
        },
        "performer": [
          {
            "display": "The Central European Lab"
          }
        ],
        "category": [
          {
            "coding": [
              {
                "system": "http://terminology.hl7.org/CodeSystem/observation-category",
                "code": "laboratory"
              }
            ]
          }
        ],
        "code": {
          "coding": [
            {
              "code": "20565-8",
              "system": "http://loinc.org",
              "display": "Carbon dioxide, total [Moles/volume] in Blood"
            }
          ],
          "text": "Carbon dioxide, total [Moles/volume] in Blood"
        },
        "valueQuantity": {
          "system": "http://unitsofmeasure.org",
          "value": 29,
          "unit": "mmol/L",
          "code": "mmol/L"
        },
        "referenceRange": [
          {
            "low": {
              "value": 22,
              "code": "mmol/L",
              "system": "http://unitsofmeasure.org"
            }
          },
          {
            "high": {
              "value": 29,
              "code": "mmol/L",
              "system": "http://unitsofmeasure.org"
            }
          }
        ],
        "text": {
          "status": "generated",
          "div": "<div xmlns=\"http://www.w3.org/1999/xhtml\"><table class=\"hl7__eu__lab__report\"><tr><th>Test</th><th>17-Nov-2023</th><th>Reference&#xA0;Range</th><th>Unit</th></tr><tr><td>Carbon dioxide, total [Moles/volume] in Blood</td><td>29.0</td><td>22 - 29</td><td></td><td>mmol/L</td></tr></table></div>"
        },
        "status": "final",
        "subject": {
          "reference": "urn:uuid:d32d923f-7bf1-45d6-ab57-12947e5f6fea",
          "display": "Victor Lagarde"
        },
        "effectiveDateTime": "2023-11-17T04:48:18Z",
        "specimen": {
          "reference": "urn:uuid:93c6e38b-6b99-42a6-8082-1214a14aba13"
        }
      }
    },
    {
      "fullUrl": "urn:uuid:cbf1ab16-bd5c-40e7-91e0-4f856f04400f",
      "resource": {
        "resourceType": "Device",
        "id": "cbf1ab16-bd5c-40e7-91e0-4f856f04400f",
        "deviceName": [
          {
            "name": "SYNDERAI Synthetic Generator",
            "type": "manufacturer-name"
          }
        ],
        "version": [
          {
            "value": "5.0"
          }
        ],
        "text": {
          "status": "generated",
          "div": "<div xmlns=\"http://www.w3.org/1999/xhtml\">SYNDERAI Synthetic Generator v5.0</div>"
        },
        "status": "active\"",
        "distinctIdentifier": "synderai-generator-50",
        "manufacturer": "SYNDERAI Project"
      }
    },
    {
      "fullUrl": "urn:uuid:50007cd2-6a21-4af9-950c-6a3dec728177",
      "resource": {
        "resourceType": "Provenance",
        "id": "50007cd2-6a21-4af9-950c-6a3dec728177",
        "target": [
          {
            "reference": "Patient/d32d923f-7bf1-45d6-ab57-12947e5f6fea"
          },
          {
            "reference": "Bundle/a8317472-4517-4fd8-8621-13b8910eb22e"
          },
          {
            "reference": "Composition/67f8521e-92e1-44c4-a703-33d1695e4ebc"
          },
          {
            "reference": "PractitionerRole/95ce61be-c715-4cc2-ab08-af257c7ac5e7"
          },
          {
            "reference": "Practitioner/d7073e21-160c-41e9-a1f7-ef1cdf22c09d"
          },
          {
            "reference": "PractitionerRole/929b6cf7-b564-47a1-af3b-1b34c5179e8e"
          },
          {
            "reference": "Organization/2663fd6d-260d-4680-8121-98c8b74dc6a7"
          }
        ],
        "activity": {
          "text": "Synthetic Example Data Generation"
        },
        "policy": [
          "https://synderai.net/synderai-synthetic-data-policy"
        ],
        "agent": [
          {
            "type": {
              "text": "author"
            },
            "who": {
              "reference": "Device/cbf1ab16-bd5c-40e7-91e0-4f856f04400f"
            }
          }
        ],
        "reason": [
          {
            "text": "Interoperability Testing and Training (non-clinical use)"
          }
        ],
        "text": {
          "status": "generated",
          "div": "<div xmlns=\"http://www.w3.org/1999/xhtml\">Provenance for SYNDERAI Synthetic Example Data Resource</div>"
        },
        "recorded": "2023-11-17T05:48:18Z"
      }
    },
    {
      "fullUrl": "urn:uuid:95ce61be-c715-4cc2-ab08-af257c7ac5e7",
      "resource": {
        "resourceType": "PractitionerRole",
        "id": "95ce61be-c715-4cc2-ab08-af257c7ac5e7",
        "meta": {
          "profile": [
            "http://hl7.eu/fhir/base/StructureDefinition/practitionerRole-eu"
          ]
        },
        "text": {
          "status": "generated",
          "div": "<div xmlns=\"http://www.w3.org/1999/xhtml\">Laboratory Role Id: 95ce61be-c715-4cc2-ab08-af257c7ac5e7</div>"
        },
        "practitioner": {
          "reference": "urn:uuid:d7073e21-160c-41e9-a1f7-ef1cdf22c09d"
        }
      }
    },
    {
      "fullUrl": "urn:uuid:d7073e21-160c-41e9-a1f7-ef1cdf22c09d",
      "resource": {
        "resourceType": "Practitioner",
        "id": "d7073e21-160c-41e9-a1f7-ef1cdf22c09d",
        "meta": {
          "profile": [
            "http://hl7.eu/fhir/base/StructureDefinition/practitioner-eu"
          ]
        },
        "identifier": [
          {
            "assigner": {
              "display": "HL7 Europe"
            },
            "system": "urn:oid:2.16.840.1.113883.2.51.999",
            "value": "e50fc5a2-1510-4d35-a133-4b9b950acfa7"
          }
        ],
        "name": [
          {
            "prefix": [
              "dr"
            ],
            "given": [
              "Ex"
            ],
            "family": "Ample"
          }
        ],
        "address": [
          {
            "line": [
              "Laboratoire Central Européenne",
              "Boulevard du Jardin Botanique 32"
            ],
            "postalCode": "1000",
            "city": "Brussels",
            "country": "Belgium"
          }
        ],
        "text": {
          "status": "generated",
          "div": "<div xmlns=\"http://www.w3.org/1999/xhtml\">Laboratory: Laboratoire Central Européenne, 1000 Brussels, Belgium</div>"
        }
      }
    }
  ],
  "type": "document",
  "timestamp": "2023-11-17T05:48:18Z"
}
