<Bundle xmlns="http://hl7.org/fhir">
   <id value="02fd529d-ae77-446a-9642-df455a8a765d"/>
   <meta>
      <profile value="http://hl7.eu/fhir/laboratory/StructureDefinition/Bundle-eu-lab"/>
   </meta>
   <identifier>
      <system value="urn:oid:2.16.840.1.113883.2.51.999"/>
      <value value="710fd2e1-48b1-4291-a68f-0c5fe8968539"/>
      <assigner>
         <display value="HL7 Europe"/>
      </assigner>
   </identifier>
   <type value="document"/>
   <timestamp value="2017-05-24T21:28:22Z"/>
   <entry>
      <fullUrl value="urn:uuid:237e75e6-f75f-42ca-9006-0a9ae41c0038"/>
      <resource>
         <Composition>
            <id value="237e75e6-f75f-42ca-9006-0a9ae41c0038"/>
            <meta>
               <profile value="http://hl7.eu/fhir/laboratory/StructureDefinition/Composition-eu-lab"/>
            </meta>
            <identifier>
               <system value="urn:oid:2.16.840.1.113883.2.51.999"/>
               <value value="6d2e8ef4-85d1-4870-9e20-88b4e846574e"/>
               <assigner>
                  <display value="HL7 Europe"/>
               </assigner>
            </identifier>
            <status value="final"/>
            <type>
               <coding>
                  <system value="http://loinc.org"/>
                  <code value="11502-2"/>
                  <display value="Laboratory report"/>
               </coding>
               <text value="Laboratory Report"/>
            </type>
            <category>
               <coding>
                  <system value="http://loinc.org"/>
                  <code value="26436-6"/>
                  <display value="Laboratory studies (set)"/>
               </coding>
            </category>
            <subject>
               <reference value="urn:uuid:8e18686b-63fa-428b-a7b2-6cb83d070d3d"/>
               <display value="Aniela Prażmo"/>
            </subject>
            <date value="2017-05-24T21:28:22Z"/>
            <author>
               <reference value="urn:uuid:57d7cb64-6b58-4b22-85a3-0b47ed1a2ab9"/>
            </author>
            <title value="Laboratory Report"/>
            <confidentiality value="N"/>
            <section>
               <title value="Laboratory Report"/>
               <code>
                  <coding>
                     <system value="http://loinc.org"/>
                     <code value="26436-6"/>
                     <display value="Laboratory studies (set)"/>
                  </coding>
                  <text value="Laboratory studies"/>
               </code>
               <section>
                  <title value="Hematology"/>
                  <code>
                     <coding>
                        <system value="http://loinc.org"/>
                        <code value="$18723-7"/>
                        <display value="Hematology studies (set)"/>
                     </coding>
                     <text value="Hematology"/>
                  </code>
                  <text>
                     <status value="generated"/>
                     <div xmlns="http://www.w3.org/1999/xhtml">
                        <h3>Hematology</h3>
                        <table class="hl7__eu__lab__report">
                           <thead>
                              <tr>
                                 <th>Test</th>
                                 <th>24-MAY-2017</th>
                                 <th>Reference Range</th>
                                 <th>Unit</th>
                              </tr>
                           </thead>
                           <tbody>
                              <tr>
                                 <td>Leukocytes [#/volume] in Blood by Automated count</td>
                                 <td>8.6</td>
                                 <td>4 - 11</td>
                                 <td>10*3/uL</td>
                              </tr>
                              <tr>
                                 <td>Erythrocytes [#/volume] in Blood by Automated count</td>
                                 <td>3.9</td>
                                 <td>3.8 - 5.7</td>
                                 <td>10*6/uL</td>
                              </tr>
                              <tr>
                                 <td>Hemoglobin [Mass/volume] in Blood</td>
                                 <td>13.6</td>
                                 <td>12 - 16</td>
                                 <td>g/dL</td>
                              </tr>
                              <tr>
                                 <td>Hematocrit [Volume Fraction] of Blood by Automated count</td>
                                 <td>47.9</td>
                                 <td>38 - 56</td>
                                 <td>%</td>
                              </tr>
                              <tr>
                                 <td>MCV [Entitic volume] by Automated count</td>
                                 <td>95.5</td>
                                 <td>78 - 98</td>
                                 <td>fL</td>
                              </tr>
                              <tr>
                                 <td>MCH [Entitic mass] by Automated count</td>
                                 <td>28.5</td>
                                 <td>27 - 34</td>
                                 <td>pg</td>
                              </tr>
                              <tr>
                                 <td>MCHC [Mass/volume] by Automated count</td>
                                 <td>32.2</td>
                                 <td>32 - 35</td>
                                 <td>g/dL</td>
                              </tr>
                              <tr>
                                 <td>Erythrocyte distribution width [Ratio] by Automated count</td>
                                 <td>14.2</td>
                                 <td>11.6 - 16.5</td>
                                 <td>%</td>
                              </tr>
                              <tr>
                                 <td>Platelets [#/volume] in Blood by Automated count</td>
                                 <td>306.7</td>
                                 <td>157 - 415</td>
                                 <td>10*3/uL</td>
                              </tr>
                           </tbody>
                        </table>
                     </div>
                  </text>
                  <entry>
                     <reference value="urn:uuid:5f47d445-5429-410b-9bfe-08911159579b"/>
                  </entry>
                  <entry>
                     <reference value="urn:uuid:dd54c8ad-3609-491f-bc34-da777beb2228"/>
                  </entry>
                  <entry>
                     <reference value="urn:uuid:324d1e8e-b7a7-41f1-a607-5a575c99c710"/>
                  </entry>
                  <entry>
                     <reference value="urn:uuid:a46f109c-94f0-45bd-aef2-5b34aceb9e33"/>
                  </entry>
                  <entry>
                     <reference value="urn:uuid:451ae81e-94f2-478f-a31c-c78a08d9c17f"/>
                  </entry>
                  <entry>
                     <reference value="urn:uuid:5063b7c3-d12a-4e18-9cba-b42212cea912"/>
                  </entry>
                  <entry>
                     <reference value="urn:uuid:b3746cc2-0966-4911-af92-bb3b04c21425"/>
                  </entry>
                  <entry>
                     <reference value="urn:uuid:0598a4b8-9142-484f-ab36-2d23c24b6ac1"/>
                  </entry>
                  <entry>
                     <reference value="urn:uuid:2cbf830a-06d2-413a-8009-e12f16708fb7"/>
                  </entry>
               </section>
               <section>
                  <title value="Chemistry"/>
                  <code>
                     <coding>
                        <system value="http://loinc.org"/>
                        <code value="$18719-5"/>
                        <display value="Chemistry studies (set)"/>
                     </coding>
                     <text value="Chemistry"/>
                  </code>
                  <text>
                     <status value="generated"/>
                     <div xmlns="http://www.w3.org/1999/xhtml">
                        <h3>Chemistry</h3>
                        <table class="hl7__eu__lab__report">
                           <thead>
                              <tr>
                                 <th>Test</th>
                                 <th>24-MAY-2017</th>
                                 <th>Reference Range</th>
                                 <th>Unit</th>
                              </tr>
                           </thead>
                           <tbody>
                              <tr>
                                 <td>Glucose [Mass/volume] in Serum or Plasma</td>
                                 <td>71.5</td>
                                 <td>70 - 99</td>
                                 <td>mg/dL</td>
                              </tr>
                              <tr>
                                 <td>Urea nitrogen [Mass/volume] in Serum or Plasma</td>
                                 <td>7.8</td>
                                 <td>7 - 20</td>
                                 <td>mg/dL</td>
                              </tr>
                              <tr>
                                 <td>Creatinine [Mass/volume] in Serum or Plasma</td>
                                 <td>
                                    <strong>2.9 H</strong>
                                 </td>
                                 <td>0.6 - 1.3</td>
                                 <td>mg/dL</td>
                              </tr>
                              <tr>
                                 <td>Calcium [Mass/volume] in Serum or Plasma</td>
                                 <td>9.7</td>
                                 <td>8.5 - 10.4</td>
                                 <td>mg/dL</td>
                              </tr>
                              <tr>
                                 <td>Sodium [Moles/volume] in Serum or Plasma</td>
                                 <td>136.6</td>
                                 <td>135 - 145</td>
                                 <td>mmol/L</td>
                              </tr>
                              <tr>
                                 <td>Potassium [Moles/volume] in Serum or Plasma</td>
                                 <td>4.3</td>
                                 <td>3.5 - 5.1</td>
                                 <td>mmol/L</td>
                              </tr>
                              <tr>
                                 <td>Chloride [Moles/volume] in Serum or Plasma</td>
                                 <td>105.0</td>
                                 <td>98 - 108</td>
                                 <td>mmol/L</td>
                              </tr>
                              <tr>
                                 <td>Carbon dioxide, total [Moles/volume] in Serum or Plasma</td>
                                 <td>23.3</td>
                                 <td>22 - 32</td>
                                 <td>mmol/L</td>
                              </tr>
                              <tr>
                                 <td>Protein [Mass/volume] in Serum or Plasma</td>
                                 <td>6.2</td>
                                 <td>6 - 8.3</td>
                                 <td>g/dL</td>
                              </tr>
                              <tr>
                                 <td>Albumin [Mass/volume] in Serum or Plasma</td>
                                 <td>4.2</td>
                                 <td>3.5 - 5</td>
                                 <td>g/dL</td>
                              </tr>
                              <tr>
                                 <td>Bilirubin.total [Mass/volume] in Serum or Plasma</td>
                                 <td>
                                    <strong>6.5 H</strong>
                                 </td>
                                 <td>0.3 - 1.2</td>
                                 <td>mg/dL</td>
                              </tr>
                              <tr>
                                 <td>Alkaline phosphatase [Enzymatic activity/volume] in Serum or Plasma</td>
                                 <td>110.8</td>
                                 <td>32 - 150</td>
                                 <td>U/L</td>
                              </tr>
                              <tr>
                                 <td>Alanine aminotransferase [Enzymatic activity/volume] in Serum or Plasma</td>
                                 <td>15.8</td>
                                 <td>13 - 32</td>
                                 <td>U/L</td>
                              </tr>
                              <tr>
                                 <td>Aspartate aminotransferase [Enzymatic activity/volume] in Serum or Plasma</td>
                                 <td>
                                    <strong>7.1 L</strong>
                                 </td>
                                 <td>10 - 40</td>
                                 <td>U/L</td>
                              </tr>
                              <tr>
                                 <td>Magnesium [Mass/volume] in Serum or Plasma</td>
                                 <td>1.9</td>
                                 <td>1.7 - 2.6</td>
                                 <td>mg/dL</td>
                              </tr>
                              <tr>
                                 <td>Phosphate [Mass/volume] in Serum or Plasma</td>
                                 <td>3.4</td>
                                 <td>2.5 - 4.5</td>
                                 <td>mg/dL</td>
                              </tr>
                              <tr>
                                 <td>pH of Arterial blood</td>
                                 <td>
                                    <strong>6.8 L</strong>
                                 </td>
                                 <td>7.35 - 7.45</td>
                                 <td>[pH]</td>
                              </tr>
                              <tr>
                                 <td>Carbon dioxide [Partial pressure] in Arterial blood</td>
                                 <td>40.5</td>
                                 <td>38 - 48</td>
                                 <td>mm[Hg]</td>
                              </tr>
                              <tr>
                                 <td>Oxygen [Partial pressure] in Arterial blood</td>
                                 <td>82.3</td>
                                 <td>75 - 100</td>
                                 <td>mm[Hg]</td>
                              </tr>
                              <tr>
                                 <td>Bicarbonate [Moles/volume] in Arterial blood</td>
                                 <td>25.5</td>
                                 <td>22 - 31</td>
                                 <td>mmol/L</td>
                              </tr>
                              <tr>
                                 <td>Oxygen saturation in Arterial blood</td>
                                 <td>
                                    <strong>94.0 L</strong>
                                 </td>
                                 <td>95 - 100</td>
                                 <td>%</td>
                              </tr>
                              <tr>
                                 <td>Cholesterol [Mass/volume] in Serum or Plasma</td>
                                 <td>
                                    <strong>299.5 H</strong>
                                 </td>
                                 <td>130 - 200</td>
                                 <td>mg/dL</td>
                              </tr>
                              <tr>
                                 <td>Triglyceride [Mass/volume] in Serum or Plasma</td>
                                 <td>140.8</td>
                                 <td>0 - 199</td>
                                 <td>mg/dL</td>
                              </tr>
                              <tr>
                                 <td>Cholesterol in LDL [Mass/volume] in Serum or Plasma by Direct assay</td>
                                 <td>
                                    <strong>210.5 H</strong>
                                 </td>
                                 <td>0 - 130</td>
                                 <td>mg/dL</td>
                              </tr>
                              <tr>
                                 <td>Cholesterol in HDL [Mass/volume] in Serum or Plasma</td>
                                 <td>60.9</td>
                                 <td>50 - 100</td>
                                 <td>mg/dL</td>
                              </tr>
                           </tbody>
                        </table>
                     </div>
                  </text>
                  <entry>
                     <reference value="urn:uuid:bdd09556-8994-4ffe-b1df-38e9a9221a92"/>
                  </entry>
                  <entry>
                     <reference value="urn:uuid:9a8d8888-5ffc-44ce-b436-572898f6485b"/>
                  </entry>
                  <entry>
                     <reference value="urn:uuid:b5aef1b8-0aeb-446f-8fb2-581b5ec2d9f9"/>
                  </entry>
                  <entry>
                     <reference value="urn:uuid:d3850261-2a3f-42fe-8a18-cc1f92349835"/>
                  </entry>
                  <entry>
                     <reference value="urn:uuid:5a37e37a-470f-46f8-9ab5-46995c2a3adb"/>
                  </entry>
                  <entry>
                     <reference value="urn:uuid:ab17a3b8-a3ec-40dd-b28e-97648372feef"/>
                  </entry>
                  <entry>
                     <reference value="urn:uuid:7cda81c3-a5f6-424d-b009-8f3262170ca2"/>
                  </entry>
                  <entry>
                     <reference value="urn:uuid:e344b45f-4d15-4cf2-8082-d8beccb95032"/>
                  </entry>
                  <entry>
                     <reference value="urn:uuid:0febb375-ff65-40be-9de4-1bb5e0b56cb3"/>
                  </entry>
                  <entry>
                     <reference value="urn:uuid:0e973a73-393e-4e6f-b8ae-a8495e944d19"/>
                  </entry>
                  <entry>
                     <reference value="urn:uuid:f0f9fb6c-247b-4dfa-a553-33fb13fe6938"/>
                  </entry>
                  <entry>
                     <reference value="urn:uuid:7f7522ab-8549-4012-aae6-0101a11f5544"/>
                  </entry>
                  <entry>
                     <reference value="urn:uuid:2239f8eb-5a4e-4322-a785-985365a24a9f"/>
                  </entry>
                  <entry>
                     <reference value="urn:uuid:bddbc8c2-8c49-43f2-a27f-e9f4f2d8feb2"/>
                  </entry>
                  <entry>
                     <reference value="urn:uuid:0b324767-610f-4d8a-9205-831261b55a87"/>
                  </entry>
                  <entry>
                     <reference value="urn:uuid:77d797e1-c7b3-4b66-b62d-f0e8b1efeb41"/>
                  </entry>
                  <entry>
                     <reference value="urn:uuid:68b54892-9a9c-40ea-9899-65c12a7aa00f"/>
                  </entry>
                  <entry>
                     <reference value="urn:uuid:424aca0f-5376-4d1f-ac54-688de3df2ec9"/>
                  </entry>
                  <entry>
                     <reference value="urn:uuid:17ea42bd-d92d-4479-9081-e27b4a0e5c58"/>
                  </entry>
                  <entry>
                     <reference value="urn:uuid:4e75c960-ef6d-4b4e-af16-2ab0e0a9e9cb"/>
                  </entry>
                  <entry>
                     <reference value="urn:uuid:4d0809e4-66a3-4d23-8221-bae9ddb7977b"/>
                  </entry>
                  <entry>
                     <reference value="urn:uuid:63805b19-0838-4a9e-af40-ac33c808b12c"/>
                  </entry>
                  <entry>
                     <reference value="urn:uuid:5a89ea79-389a-49b5-846a-f6932270536d"/>
                  </entry>
                  <entry>
                     <reference value="urn:uuid:1218df40-11cb-4462-87bb-3a4a8f962b4a"/>
                  </entry>
                  <entry>
                     <reference value="urn:uuid:7b56734e-08db-4d0c-b9ad-365c3c0865b7"/>
                  </entry>
               </section>
               <section>
                  <title value="Coagulation"/>
                  <code>
                     <coding>
                        <system value="http://loinc.org"/>
                        <code value="$18720-3"/>
                        <display value="Coagulation studies (set)"/>
                     </coding>
                     <text value="Coagulation"/>
                  </code>
                  <text>
                     <status value="generated"/>
                     <div xmlns="http://www.w3.org/1999/xhtml">
                        <h3>Coagulation</h3>
                        <table class="hl7__eu__lab__report">
                           <thead>
                              <tr>
                                 <th>Test</th>
                                 <th>24-MAY-2017</th>
                                 <th>Reference Range</th>
                                 <th>Unit</th>
                              </tr>
                           </thead>
                           <tbody>
                              <tr>
                                 <td>Prothrombin time (PT)</td>
                                 <td>
                                    <strong>9.3 L</strong>
                                 </td>
                                 <td>11 - 15</td>
                                 <td>s</td>
                              </tr>
                              <tr>
                                 <td>INR in Platelet poor plasma by Coagulation assay</td>
                                 <td>0.9</td>
                                 <td>0.9 - 1.1</td>
                                 <td>{INR}</td>
                              </tr>
                              <tr>
                                 <td>aPTT in Blood by Coagulation assay</td>
                                 <td>26.8</td>
                                 <td>25 - 35</td>
                                 <td>s</td>
                              </tr>
                           </tbody>
                        </table>
                     </div>
                  </text>
                  <entry>
                     <reference value="urn:uuid:33c33b44-4fd0-41ec-8a25-be66cc6ee099"/>
                  </entry>
                  <entry>
                     <reference value="urn:uuid:f8b32d57-76e1-4bab-a797-5eeb9bc4f0cc"/>
                  </entry>
                  <entry>
                     <reference value="urn:uuid:6465aa88-97ab-4f06-9316-b776d68007dd"/>
                  </entry>
               </section>
            </section>
            <section>
               <title value="Annotation comment"/>
               <code>
                  <coding>
                     <system value="http://loinc.org"/>
                     <code value="48767-8"/>
                     <display value="Annotation comment"/>
                  </coding>
               </code>
               <text>
                  <status value="generated"/>
                  <div xmlns="http://www.w3.org/1999/xhtml">
                     <h3>Annotation</h3>
                     <table class="hl7__eu__lab__report">
                        <tr>
                           <th>Conclusion and Recommendations based on this report and previous findings known to us</th>
                        </tr>
                        <tr>
                           <td>Most parameters are within normal limits. Notable findings include elevated creatinine (2.9 mg/dL) suggesting impaired renal function, markedly increased total and LDL cholesterol, and significantly elevated total bilirubin (6.5 mg/dL) with low AST, which may indicate non-hepatocellular causes of hyperbilirubinemia. Severe metabolic acidosis is present (arterial pH 6.8, low O2 saturation). Immediate clinical evaluation is recommended due to critical acid-base disturbance and possible renal and hepatic dysfunction.</td>
                        </tr>
                     </table>
                  </div>
               </text>
            </section>
         </Composition>
      </resource>
   </entry>
   <entry>
      <fullUrl value="urn:uuid:9c6ea821-134e-4579-a3ab-e43b511ab24e"/>
      <resource>
         <DiagnosticReport>
            <id value="9c6ea821-134e-4579-a3ab-e43b511ab24e"/>
            <meta>
               <profile value="http://hl7.eu/fhir/laboratory/StructureDefinition/DiagnosticReport-eu-lab"/>
            </meta>
            <extension url="http://hl7.org/fhir/5.0/StructureDefinition/extension-DiagnosticReport.composition">
               <valueReference>
                  <reference value="urn:uuid:6d2e8ef4-85d1-4870-9e20-88b4e846574e"/>
               </valueReference>
            </extension>
            <identifier>
               <system value="urn:oid:2.16.840.1.113883.2.51.999"/>
               <value value="58a91a21-1cfe-49db-bc1f-958baf7ca9be"/>
               <assigner>
                  <display value="HL7 Europe"/>
               </assigner>
            </identifier>
            <status value="registered"/>
            <category>
               <coding>
                  <system value="http://loinc.org"/>
                  <code value="26436-6"/>
                  <display value="Laboratory studies (set)"/>
               </coding>
            </category>
            <code>
               <coding>
                  <system value="http://loinc.org"/>
                  <code value="11502-2"/>
                  <display value="Laboratory report"/>
               </coding>
            </code>
            <subject>
               <reference value="urn:uuid:8e18686b-63fa-428b-a7b2-6cb83d070d3d"/>
               <display value="Aniela Prażmo"/>
            </subject>
            <specimen>
               <reference value="urn:uuid:4bc8b4b9-8a7d-4bf4-816c-56857ba2ea47"/>
            </specimen>
            <specimen>
               <reference value="urn:uuid:4bc8b4b9-8a7d-4bf4-816c-56857ba2ea47"/>
            </specimen>
            <specimen>
               <reference value="urn:uuid:76da85b3-5ba8-4bbc-a261-e1ef88d48e8e"/>
            </specimen>
            <specimen>
               <reference value="urn:uuid:88941db4-ec0e-485d-ab26-268758064b30"/>
            </specimen>
            <specimen>
               <reference value="urn:uuid:70deb271-951a-425d-9a62-254421f497ba"/>
            </specimen>
            <result>
               <reference value="urn:uuid:5f47d445-5429-410b-9bfe-08911159579b"/>
            </result>
            <result>
               <reference value="urn:uuid:dd54c8ad-3609-491f-bc34-da777beb2228"/>
            </result>
            <result>
               <reference value="urn:uuid:324d1e8e-b7a7-41f1-a607-5a575c99c710"/>
            </result>
            <result>
               <reference value="urn:uuid:a46f109c-94f0-45bd-aef2-5b34aceb9e33"/>
            </result>
            <result>
               <reference value="urn:uuid:451ae81e-94f2-478f-a31c-c78a08d9c17f"/>
            </result>
            <result>
               <reference value="urn:uuid:5063b7c3-d12a-4e18-9cba-b42212cea912"/>
            </result>
            <result>
               <reference value="urn:uuid:b3746cc2-0966-4911-af92-bb3b04c21425"/>
            </result>
            <result>
               <reference value="urn:uuid:0598a4b8-9142-484f-ab36-2d23c24b6ac1"/>
            </result>
            <result>
               <reference value="urn:uuid:2cbf830a-06d2-413a-8009-e12f16708fb7"/>
            </result>
            <result>
               <reference value="urn:uuid:bdd09556-8994-4ffe-b1df-38e9a9221a92"/>
            </result>
            <result>
               <reference value="urn:uuid:9a8d8888-5ffc-44ce-b436-572898f6485b"/>
            </result>
            <result>
               <reference value="urn:uuid:b5aef1b8-0aeb-446f-8fb2-581b5ec2d9f9"/>
            </result>
            <result>
               <reference value="urn:uuid:d3850261-2a3f-42fe-8a18-cc1f92349835"/>
            </result>
            <result>
               <reference value="urn:uuid:5a37e37a-470f-46f8-9ab5-46995c2a3adb"/>
            </result>
            <result>
               <reference value="urn:uuid:ab17a3b8-a3ec-40dd-b28e-97648372feef"/>
            </result>
            <result>
               <reference value="urn:uuid:7cda81c3-a5f6-424d-b009-8f3262170ca2"/>
            </result>
            <result>
               <reference value="urn:uuid:e344b45f-4d15-4cf2-8082-d8beccb95032"/>
            </result>
            <result>
               <reference value="urn:uuid:0febb375-ff65-40be-9de4-1bb5e0b56cb3"/>
            </result>
            <result>
               <reference value="urn:uuid:0e973a73-393e-4e6f-b8ae-a8495e944d19"/>
            </result>
            <result>
               <reference value="urn:uuid:f0f9fb6c-247b-4dfa-a553-33fb13fe6938"/>
            </result>
            <result>
               <reference value="urn:uuid:7f7522ab-8549-4012-aae6-0101a11f5544"/>
            </result>
            <result>
               <reference value="urn:uuid:2239f8eb-5a4e-4322-a785-985365a24a9f"/>
            </result>
            <result>
               <reference value="urn:uuid:bddbc8c2-8c49-43f2-a27f-e9f4f2d8feb2"/>
            </result>
            <result>
               <reference value="urn:uuid:0b324767-610f-4d8a-9205-831261b55a87"/>
            </result>
            <result>
               <reference value="urn:uuid:77d797e1-c7b3-4b66-b62d-f0e8b1efeb41"/>
            </result>
            <result>
               <reference value="urn:uuid:33c33b44-4fd0-41ec-8a25-be66cc6ee099"/>
            </result>
            <result>
               <reference value="urn:uuid:f8b32d57-76e1-4bab-a797-5eeb9bc4f0cc"/>
            </result>
            <result>
               <reference value="urn:uuid:6465aa88-97ab-4f06-9316-b776d68007dd"/>
            </result>
            <result>
               <reference value="urn:uuid:68b54892-9a9c-40ea-9899-65c12a7aa00f"/>
            </result>
            <result>
               <reference value="urn:uuid:424aca0f-5376-4d1f-ac54-688de3df2ec9"/>
            </result>
            <result>
               <reference value="urn:uuid:17ea42bd-d92d-4479-9081-e27b4a0e5c58"/>
            </result>
            <result>
               <reference value="urn:uuid:4e75c960-ef6d-4b4e-af16-2ab0e0a9e9cb"/>
            </result>
            <result>
               <reference value="urn:uuid:4d0809e4-66a3-4d23-8221-bae9ddb7977b"/>
            </result>
            <result>
               <reference value="urn:uuid:63805b19-0838-4a9e-af40-ac33c808b12c"/>
            </result>
            <result>
               <reference value="urn:uuid:5a89ea79-389a-49b5-846a-f6932270536d"/>
            </result>
            <result>
               <reference value="urn:uuid:1218df40-11cb-4462-87bb-3a4a8f962b4a"/>
            </result>
            <result>
               <reference value="urn:uuid:7b56734e-08db-4d0c-b9ad-365c3c0865b7"/>
            </result>
         </DiagnosticReport>
      </resource>
   </entry>
   <entry>
      <fullUrl value="urn:uuid:8e18686b-63fa-428b-a7b2-6cb83d070d3d"/>
      <resource>
         <Patient>
            <id value="8e18686b-63fa-428b-a7b2-6cb83d070d3d"/>
            <meta>
               <profile value="http://hl7.eu/fhir/base/StructureDefinition/patient-eu-core"/>
               <security>
                  <system value="http://terminology.hl7.org/CodeSystem/v3-ActReason"/>
                  <code value="HTEST"/>
               </security>
               <security>
                  <system value="http://terminology.hl7.org/CodeSystem/v3-ActReason"/>
                  <code value="TRAIN"/>
               </security>
               <tag>
                  <system value="https://synderai.net/fhir/CodeSystem/tags"/>
                  <code value="synthetic"/>
                  <display value="SYNDERAI Synthetic data"/>
               </tag>
            </meta>
            <text>
               <status value="generated"/>
               <div xmlns="http://www.w3.org/1999/xhtml">
                  <table class="hl7__ips">
                     <tr>
                        <td>Aniela Prażmo</td>
                        <td>female</td>
                        <td>08-Feb-1941</td>
                     </tr>
                  </table>
               </div>
            </text>
            <extension url="http://hl7.org/fhir/StructureDefinition/patient-nationality">
               <valueCodeableConcept>
                  <coding>
                     <system value="http://hl7.org/fhir/ValueSet/country"/>
                     <code value="PL"/>
                  </coding>
               </valueCodeableConcept>
            </extension>
            <identifier>
               <type>
                  <coding>
                     <system value="http://terminology.hl7.org/CodeSystem/v2-0203"/>
                     <code value="PT"/>
                  </coding>
               </type>
               <system value="http://ec.europa.eu/identifier/eci"/>
               <value value="9657-869171-7"/>
            </identifier>
            <identifier>
               <type>
                  <coding>
                     <system value="http://terminology.hl7.org/CodeSystem/v2-0203"/>
                     <code value="MR"/>
                  </coding>
               </type>
               <system value="http://local.setting.eu/identifier"/>
               <value value="ab00158c-e2d0-01e4-6cf5-730949937551"/>
            </identifier>
            <name>
               <family value="Prażmo"/>
            </name>
            <name>
               <given value="Aniela"/>
            </name>
            <name>
               <text value="Aniela Prażmo"/>
            </name>
            <telecom>
               <system value="phone"/>
               <value value="+48 782 809 233"/>
            </telecom>
            <gender value="female"/>
            <birthDate value="1941-02-08"/>
            <address>
               <use value="home"/>
               <type value="physical"/>
               <line value="pl. Kołłątaja 62/43"/>
               <city value="Tomaszów Mazowiecki"/>
               <postalCode value="97-200"/>
               <country value="Poland"/>
            </address>
         </Patient>
      </resource>
   </entry>
   <entry>
      <fullUrl value="urn:uuid:18ccba02-f494-4bce-ab60-1419d3fa2aa5"/>
      <resource>
         <ServiceRequest>
            <id value="18ccba02-f494-4bce-ab60-1419d3fa2aa5"/>
            <meta>
               <profile value="http://hl7.eu/fhir/laboratory/StructureDefinition/ServiceRequest-eu-lab"/>
            </meta>
            <identifier>
               <system value="http://example.org"/>
               <value value="ba5e7368-0fa0-4d5b-a89c-96449b329e55"/>
            </identifier>
            <status value="active"/>
            <intent value="order"/>
            <code>
               <coding>
                  <system value="http://snomed.info/sct"/>
                  <code value="108252007"/>
                  <display value="Laboratory procedure"/>
               </coding>
            </code>
            <subject>
               <reference value="urn:uuid:8e18686b-63fa-428b-a7b2-6cb83d070d3d"/>
               <display value="Aniela Prażmo"/>
            </subject>
            <requester>
               <reference value="urn:uuid:3b8bd677-1945-471d-acf4-5a4ad8238174"/>
            </requester>
            <reasonCode>
               <coding>
                  <system value="http://snomed.info/sct"/>
                  <code value="64859006"/>
                  <display value="Osteoporosis"/>
               </coding>
            </reasonCode>
            <reasonCode>
               <coding>
                  <system value="http://snomed.info/sct"/>
                  <code value="55822004"/>
                  <display value="Hyperlipidemia"/>
               </coding>
            </reasonCode>
            <reasonCode>
               <coding>
                  <system value="http://snomed.info/sct"/>
                  <code value="414545008"/>
                  <display value="Ischemic heart disease"/>
               </coding>
            </reasonCode>
            <reasonCode>
               <coding>
                  <system value="http://snomed.info/sct"/>
                  <code value="59621000"/>
                  <display value="Essential hypertension"/>
               </coding>
            </reasonCode>
            <reasonCode>
               <coding>
                  <system value="http://snomed.info/sct"/>
                  <code value="40055000"/>
                  <display value="Chronic sinusitis"/>
               </coding>
            </reasonCode>
            <specimen>
               <reference value="urn:uuid:4bc8b4b9-8a7d-4bf4-816c-56857ba2ea47"/>
            </specimen>
            <specimen>
               <reference value="urn:uuid:76da85b3-5ba8-4bbc-a261-e1ef88d48e8e"/>
            </specimen>
            <specimen>
               <reference value="urn:uuid:88941db4-ec0e-485d-ab26-268758064b30"/>
            </specimen>
            <specimen>
               <reference value="urn:uuid:70deb271-951a-425d-9a62-254421f497ba"/>
            </specimen>
         </ServiceRequest>
      </resource>
   </entry>
   <entry>
      <fullUrl value="urn:uuid:3b8bd677-1945-471d-acf4-5a4ad8238174"/>
      <resource>
         <PractitionerRole>
            <id value="3b8bd677-1945-471d-acf4-5a4ad8238174"/>
            <meta>
               <profile value="http://hl7.eu/fhir/base/StructureDefinition/practitionerRole-eu"/>
            </meta>
            <text>
               <status value="generated"/>
               <div xmlns="http://www.w3.org/1999/xhtml">Provider Role Id: 3b8bd677-1945-471d-acf4-5a4ad8238174</div>
            </text>
            <organization>
               <reference value="urn:uuid:2904afcb-e565-490a-8c8b-c7208972d647"/>
            </organization>
         </PractitionerRole>
      </resource>
   </entry>
   <entry>
      <fullUrl value="urn:uuid:2904afcb-e565-490a-8c8b-c7208972d647"/>
      <resource>
         <Organization>
            <id value="2904afcb-e565-490a-8c8b-c7208972d647"/>
            <meta>
               <profile value="http://hl7.eu/fhir/base/StructureDefinition/organization-eu"/>
            </meta>
            <text>
               <status value="generated"/>
               <div xmlns="http://www.w3.org/1999/xhtml">Provider Organization: Poradnia rehabilitacyjna</div>
            </text>
            <identifier>
               <system value="urn:oid:2.16.840.1.113883.2.51.999"/>
               <value value="6aaf6e80-f4d9-4da4-a150-d03a79f848ee"/>
               <assigner>
                  <display value="HL7 Europe"/>
               </assigner>
            </identifier>
            <name value="Poradnia rehabilitacyjna"/>
            <address>
               <city value="Tomaszów Mazowiecki"/>
               <postalCode value="97-200"/>
               <country value="Poland"/>
            </address>
         </Organization>
      </resource>
   </entry>
   <entry>
      <fullUrl value="urn:uuid:4bc8b4b9-8a7d-4bf4-816c-56857ba2ea47"/>
      <resource>
         <Specimen>
            <id value="4bc8b4b9-8a7d-4bf4-816c-56857ba2ea47"/>
            <meta>
               <profile value="http://hl7.eu/fhir/laboratory/StructureDefinition/Specimen-eu-lab"/>
            </meta>
            <text>
               <status value="generated"/>
               <div xmlns="http://www.w3.org/1999/xhtml">
                  <table class="hl7__eu__lab__report">
                     <tr>
                        <th>Specimen</th>
                        <th>Collection Date</th>
                     </tr>
                     <tr>
                        <td>Whole blood specimen (specimen)</td>
                        <td>
                           <span class="nb">24-May-2017</span>
                        </td>
                     </tr>
                  </table>
               </div>
            </text>
            <type>
               <coding>
                  <system value="http://snomed.info/sct"/>
                  <code value="258580003"/>
                  <display value="Whole blood specimen (specimen)"/>
               </coding>
            </type>
            <collection>
               <collectedDateTime value="2017-05-24"/>
            </collection>
         </Specimen>
      </resource>
   </entry>
   <entry>
      <fullUrl value="urn:uuid:4bc8b4b9-8a7d-4bf4-816c-56857ba2ea47"/>
      <resource>
         <Specimen>
            <id value="4bc8b4b9-8a7d-4bf4-816c-56857ba2ea47"/>
            <meta>
               <profile value="http://hl7.eu/fhir/laboratory/StructureDefinition/Specimen-eu-lab"/>
            </meta>
            <text>
               <status value="generated"/>
               <div xmlns="http://www.w3.org/1999/xhtml">
                  <table class="hl7__eu__lab__report">
                     <tr>
                        <th>Specimen</th>
                        <th>Collection Date</th>
                     </tr>
                     <tr>
                        <td>Whole blood specimen (specimen)</td>
                        <td>
                           <span class="nb">24-May-2017</span>
                        </td>
                     </tr>
                  </table>
               </div>
            </text>
            <type>
               <coding>
                  <system value="http://snomed.info/sct"/>
                  <code value="258580003"/>
                  <display value="Whole blood specimen (specimen)"/>
               </coding>
            </type>
            <collection>
               <collectedDateTime value="2017-05-24"/>
            </collection>
         </Specimen>
      </resource>
   </entry>
   <entry>
      <fullUrl value="urn:uuid:76da85b3-5ba8-4bbc-a261-e1ef88d48e8e"/>
      <resource>
         <Specimen>
            <id value="76da85b3-5ba8-4bbc-a261-e1ef88d48e8e"/>
            <meta>
               <profile value="http://hl7.eu/fhir/laboratory/StructureDefinition/Specimen-eu-lab"/>
            </meta>
            <text>
               <status value="generated"/>
               <div xmlns="http://www.w3.org/1999/xhtml">
                  <table class="hl7__eu__lab__report">
                     <tr>
                        <th>Specimen</th>
                        <th>Collection Date</th>
                     </tr>
                     <tr>
                        <td>Acellular blood (serum or plasma) specimen</td>
                        <td>
                           <span class="nb">24-May-2017</span>
                        </td>
                     </tr>
                  </table>
               </div>
            </text>
            <type>
               <coding>
                  <system value="http://snomed.info/sct"/>
                  <code value="122592007"/>
                  <display value="Acellular blood (serum or plasma) specimen"/>
               </coding>
            </type>
            <collection>
               <collectedDateTime value="2017-05-24"/>
            </collection>
         </Specimen>
      </resource>
   </entry>
   <entry>
      <fullUrl value="urn:uuid:88941db4-ec0e-485d-ab26-268758064b30"/>
      <resource>
         <Specimen>
            <id value="88941db4-ec0e-485d-ab26-268758064b30"/>
            <meta>
               <profile value="http://hl7.eu/fhir/laboratory/StructureDefinition/Specimen-eu-lab"/>
            </meta>
            <text>
               <status value="generated"/>
               <div xmlns="http://www.w3.org/1999/xhtml">
                  <table class="hl7__eu__lab__report">
                     <tr>
                        <th>Specimen</th>
                        <th>Collection Date</th>
                     </tr>
                     <tr>
                        <td>Platelet poor plasma specimen</td>
                        <td>
                           <span class="nb">24-May-2017</span>
                        </td>
                     </tr>
                  </table>
               </div>
            </text>
            <type>
               <coding>
                  <system value="http://snomed.info/sct"/>
                  <code value="119362004"/>
                  <display value="Platelet poor plasma specimen"/>
               </coding>
            </type>
            <collection>
               <collectedDateTime value="2017-05-24"/>
            </collection>
         </Specimen>
      </resource>
   </entry>
   <entry>
      <fullUrl value="urn:uuid:70deb271-951a-425d-9a62-254421f497ba"/>
      <resource>
         <Specimen>
            <id value="70deb271-951a-425d-9a62-254421f497ba"/>
            <meta>
               <profile value="http://hl7.eu/fhir/laboratory/StructureDefinition/Specimen-eu-lab"/>
            </meta>
            <text>
               <status value="generated"/>
               <div xmlns="http://www.w3.org/1999/xhtml">
                  <table class="hl7__eu__lab__report">
                     <tr>
                        <th>Specimen</th>
                        <th>Collection Date</th>
                     </tr>
                     <tr>
                        <td>Arterial blood specimen</td>
                        <td>
                           <span class="nb">24-May-2017</span>
                        </td>
                     </tr>
                  </table>
               </div>
            </text>
            <type>
               <coding>
                  <system value="http://snomed.info/sct"/>
                  <code value="122552005"/>
                  <display value="Arterial blood specimen"/>
               </coding>
            </type>
            <collection>
               <collectedDateTime value="2017-05-24"/>
            </collection>
         </Specimen>
      </resource>
   </entry>
   <entry>
      <fullUrl value="urn:uuid:5f47d445-5429-410b-9bfe-08911159579b"/>
      <resource>
         <Observation>
            <id value="5f47d445-5429-410b-9bfe-08911159579b"/>
            <meta>
               <profile value="http://hl7.eu/fhir/laboratory/StructureDefinition/Observation-resultslab-eu-lab"/>
            </meta>
            <text>
               <status value="generated"/>
               <div xmlns="http://www.w3.org/1999/xhtml">
                  <table class="hl7__eu__lab__report">
                     <tr>
                        <th>Test</th>
                        <th>24-May-2017</th>
                        <th>Reference Range</th>
                        <th>Unit</th>
                     </tr>
                     <tr>
                        <td>Leukocytes [#/volume] in Blood by Automated count</td>
                        <td>8.6</td>
                        <td>4 - 11</td>
                        <td/>
                        <td>10*3/uL</td>
                     </tr>
                  </table>
               </div>
            </text>
            <status value="final"/>
            <category>
               <coding>
                  <system value="http://terminology.hl7.org/CodeSystem/observation-category"/>
                  <code value="laboratory"/>
               </coding>
            </category>
            <code>
               <coding>
                  <system value="http://loinc.org"/>
                  <code value="6690-2"/>
                  <display value="Leukocytes [#/volume] in Blood by Automated count"/>
               </coding>
               <text value="Leukocytes [#/volume] in Blood by Automated count"/>
            </code>
            <subject>
               <reference value="urn:uuid:8e18686b-63fa-428b-a7b2-6cb83d070d3d"/>
               <display value="Aniela Prażmo"/>
            </subject>
            <effectiveDateTime value="2017-05-24T19:28:22Z"/>
            <performer>
               <display value="The Central European Lab"/>
            </performer>
            <valueQuantity>
               <value value="8.6"/>
               <unit value="10*3/uL"/>
               <system value="http://unitsofmeasure.org"/>
               <code value="10*3/uL"/>
            </valueQuantity>
            <specimen>
               <reference value="urn:uuid:4bc8b4b9-8a7d-4bf4-816c-56857ba2ea47"/>
            </specimen>
            <referenceRange>
               <low>
                  <value value="4"/>
                  <system value="http://unitsofmeasure.org"/>
                  <code value="10*3/uL"/>
               </low>
            </referenceRange>
            <referenceRange>
               <high>
                  <value value="11"/>
                  <system value="http://unitsofmeasure.org"/>
                  <code value="10*3/uL"/>
               </high>
            </referenceRange>
         </Observation>
      </resource>
   </entry>
   <entry>
      <fullUrl value="urn:uuid:dd54c8ad-3609-491f-bc34-da777beb2228"/>
      <resource>
         <Observation>
            <id value="dd54c8ad-3609-491f-bc34-da777beb2228"/>
            <meta>
               <profile value="http://hl7.eu/fhir/laboratory/StructureDefinition/Observation-resultslab-eu-lab"/>
            </meta>
            <text>
               <status value="generated"/>
               <div xmlns="http://www.w3.org/1999/xhtml">
                  <table class="hl7__eu__lab__report">
                     <tr>
                        <th>Test</th>
                        <th>24-May-2017</th>
                        <th>Reference Range</th>
                        <th>Unit</th>
                     </tr>
                     <tr>
                        <td>Erythrocytes [#/volume] in Blood by Automated count</td>
                        <td>3.9</td>
                        <td>3.8 - 5.7</td>
                        <td/>
                        <td>10*6/uL</td>
                     </tr>
                  </table>
               </div>
            </text>
            <status value="final"/>
            <category>
               <coding>
                  <system value="http://terminology.hl7.org/CodeSystem/observation-category"/>
                  <code value="laboratory"/>
               </coding>
            </category>
            <code>
               <coding>
                  <system value="http://loinc.org"/>
                  <code value="789-8"/>
                  <display value="Erythrocytes [#/volume] in Blood by Automated count"/>
               </coding>
               <text value="Erythrocytes [#/volume] in Blood by Automated count"/>
            </code>
            <subject>
               <reference value="urn:uuid:8e18686b-63fa-428b-a7b2-6cb83d070d3d"/>
               <display value="Aniela Prażmo"/>
            </subject>
            <effectiveDateTime value="2017-05-24T19:28:22Z"/>
            <performer>
               <display value="The Central European Lab"/>
            </performer>
            <valueQuantity>
               <value value="3.9"/>
               <unit value="10*6/uL"/>
               <system value="http://unitsofmeasure.org"/>
               <code value="10*6/uL"/>
            </valueQuantity>
            <specimen>
               <reference value="urn:uuid:4bc8b4b9-8a7d-4bf4-816c-56857ba2ea47"/>
            </specimen>
            <referenceRange>
               <low>
                  <value value="3.8"/>
                  <system value="http://unitsofmeasure.org"/>
                  <code value="10*6/uL"/>
               </low>
            </referenceRange>
            <referenceRange>
               <high>
                  <value value="5.7"/>
                  <system value="http://unitsofmeasure.org"/>
                  <code value="10*6/uL"/>
               </high>
            </referenceRange>
         </Observation>
      </resource>
   </entry>
   <entry>
      <fullUrl value="urn:uuid:324d1e8e-b7a7-41f1-a607-5a575c99c710"/>
      <resource>
         <Observation>
            <id value="324d1e8e-b7a7-41f1-a607-5a575c99c710"/>
            <meta>
               <profile value="http://hl7.eu/fhir/laboratory/StructureDefinition/Observation-resultslab-eu-lab"/>
            </meta>
            <text>
               <status value="generated"/>
               <div xmlns="http://www.w3.org/1999/xhtml">
                  <table class="hl7__eu__lab__report">
                     <tr>
                        <th>Test</th>
                        <th>24-May-2017</th>
                        <th>Reference Range</th>
                        <th>Unit</th>
                     </tr>
                     <tr>
                        <td>Hemoglobin [Mass/volume] in Blood</td>
                        <td>13.6</td>
                        <td>12 - 16</td>
                        <td/>
                        <td>g/dL</td>
                     </tr>
                  </table>
               </div>
            </text>
            <status value="final"/>
            <category>
               <coding>
                  <system value="http://terminology.hl7.org/CodeSystem/observation-category"/>
                  <code value="laboratory"/>
               </coding>
            </category>
            <code>
               <coding>
                  <system value="http://loinc.org"/>
                  <code value="718-7"/>
                  <display value="Hemoglobin [Mass/volume] in Blood"/>
               </coding>
               <text value="Hemoglobin [Mass/volume] in Blood"/>
            </code>
            <subject>
               <reference value="urn:uuid:8e18686b-63fa-428b-a7b2-6cb83d070d3d"/>
               <display value="Aniela Prażmo"/>
            </subject>
            <effectiveDateTime value="2017-05-24T19:28:22Z"/>
            <performer>
               <display value="The Central European Lab"/>
            </performer>
            <valueQuantity>
               <value value="13.6"/>
               <unit value="g/dL"/>
               <system value="http://unitsofmeasure.org"/>
               <code value="g/dL"/>
            </valueQuantity>
            <specimen>
               <reference value="urn:uuid:4bc8b4b9-8a7d-4bf4-816c-56857ba2ea47"/>
            </specimen>
            <referenceRange>
               <low>
                  <value value="12"/>
                  <system value="http://unitsofmeasure.org"/>
                  <code value="g/dL"/>
               </low>
            </referenceRange>
            <referenceRange>
               <high>
                  <value value="16"/>
                  <system value="http://unitsofmeasure.org"/>
                  <code value="g/dL"/>
               </high>
            </referenceRange>
         </Observation>
      </resource>
   </entry>
   <entry>
      <fullUrl value="urn:uuid:a46f109c-94f0-45bd-aef2-5b34aceb9e33"/>
      <resource>
         <Observation>
            <id value="a46f109c-94f0-45bd-aef2-5b34aceb9e33"/>
            <meta>
               <profile value="http://hl7.eu/fhir/laboratory/StructureDefinition/Observation-resultslab-eu-lab"/>
            </meta>
            <text>
               <status value="generated"/>
               <div xmlns="http://www.w3.org/1999/xhtml">
                  <table class="hl7__eu__lab__report">
                     <tr>
                        <th>Test</th>
                        <th>24-May-2017</th>
                        <th>Reference Range</th>
                        <th>Unit</th>
                     </tr>
                     <tr>
                        <td>Hematocrit [Volume Fraction] of Blood by Automated count</td>
                        <td>47.9</td>
                        <td>38 - 56</td>
                        <td/>
                        <td>%</td>
                     </tr>
                  </table>
               </div>
            </text>
            <status value="final"/>
            <category>
               <coding>
                  <system value="http://terminology.hl7.org/CodeSystem/observation-category"/>
                  <code value="laboratory"/>
               </coding>
            </category>
            <code>
               <coding>
                  <system value="http://loinc.org"/>
                  <code value="4544-3"/>
                  <display value="Hematocrit [Volume Fraction] of Blood by Automated count"/>
               </coding>
               <text value="Hematocrit [Volume Fraction] of Blood by Automated count"/>
            </code>
            <subject>
               <reference value="urn:uuid:8e18686b-63fa-428b-a7b2-6cb83d070d3d"/>
               <display value="Aniela Prażmo"/>
            </subject>
            <effectiveDateTime value="2017-05-24T19:28:22Z"/>
            <performer>
               <display value="The Central European Lab"/>
            </performer>
            <valueQuantity>
               <value value="47.9"/>
               <unit value="%"/>
               <system value="http://unitsofmeasure.org"/>
               <code value="%"/>
            </valueQuantity>
            <specimen>
               <reference value="urn:uuid:4bc8b4b9-8a7d-4bf4-816c-56857ba2ea47"/>
            </specimen>
            <referenceRange>
               <low>
                  <value value="38"/>
                  <system value="http://unitsofmeasure.org"/>
                  <code value="%"/>
               </low>
            </referenceRange>
            <referenceRange>
               <high>
                  <value value="56"/>
                  <system value="http://unitsofmeasure.org"/>
                  <code value="%"/>
               </high>
            </referenceRange>
         </Observation>
      </resource>
   </entry>
   <entry>
      <fullUrl value="urn:uuid:451ae81e-94f2-478f-a31c-c78a08d9c17f"/>
      <resource>
         <Observation>
            <id value="451ae81e-94f2-478f-a31c-c78a08d9c17f"/>
            <meta>
               <profile value="http://hl7.eu/fhir/laboratory/StructureDefinition/Observation-resultslab-eu-lab"/>
            </meta>
            <text>
               <status value="generated"/>
               <div xmlns="http://www.w3.org/1999/xhtml">
                  <table class="hl7__eu__lab__report">
                     <tr>
                        <th>Test</th>
                        <th>24-May-2017</th>
                        <th>Reference Range</th>
                        <th>Unit</th>
                     </tr>
                     <tr>
                        <td>MCV [Entitic volume] by Automated count</td>
                        <td>95.5</td>
                        <td>78 - 98</td>
                        <td/>
                        <td>fL</td>
                     </tr>
                  </table>
               </div>
            </text>
            <status value="final"/>
            <category>
               <coding>
                  <system value="http://terminology.hl7.org/CodeSystem/observation-category"/>
                  <code value="laboratory"/>
               </coding>
            </category>
            <code>
               <coding>
                  <system value="http://loinc.org"/>
                  <code value="787-2"/>
                  <display value="MCV [Entitic volume] by Automated count"/>
               </coding>
               <text value="MCV [Entitic volume] by Automated count"/>
            </code>
            <subject>
               <reference value="urn:uuid:8e18686b-63fa-428b-a7b2-6cb83d070d3d"/>
               <display value="Aniela Prażmo"/>
            </subject>
            <effectiveDateTime value="2017-05-24T19:28:22Z"/>
            <performer>
               <display value="The Central European Lab"/>
            </performer>
            <valueQuantity>
               <value value="95.5"/>
               <unit value="fL"/>
               <system value="http://unitsofmeasure.org"/>
               <code value="fL"/>
            </valueQuantity>
            <specimen>
               <reference value="urn:uuid:4bc8b4b9-8a7d-4bf4-816c-56857ba2ea47"/>
            </specimen>
            <referenceRange>
               <low>
                  <value value="78"/>
                  <system value="http://unitsofmeasure.org"/>
                  <code value="fL"/>
               </low>
            </referenceRange>
            <referenceRange>
               <high>
                  <value value="98"/>
                  <system value="http://unitsofmeasure.org"/>
                  <code value="fL"/>
               </high>
            </referenceRange>
         </Observation>
      </resource>
   </entry>
   <entry>
      <fullUrl value="urn:uuid:5063b7c3-d12a-4e18-9cba-b42212cea912"/>
      <resource>
         <Observation>
            <id value="5063b7c3-d12a-4e18-9cba-b42212cea912"/>
            <meta>
               <profile value="http://hl7.eu/fhir/laboratory/StructureDefinition/Observation-resultslab-eu-lab"/>
            </meta>
            <text>
               <status value="generated"/>
               <div xmlns="http://www.w3.org/1999/xhtml">
                  <table class="hl7__eu__lab__report">
                     <tr>
                        <th>Test</th>
                        <th>24-May-2017</th>
                        <th>Reference Range</th>
                        <th>Unit</th>
                     </tr>
                     <tr>
                        <td>MCH [Entitic mass] by Automated count</td>
                        <td>28.5</td>
                        <td>27 - 34</td>
                        <td/>
                        <td>pg</td>
                     </tr>
                  </table>
               </div>
            </text>
            <status value="final"/>
            <category>
               <coding>
                  <system value="http://terminology.hl7.org/CodeSystem/observation-category"/>
                  <code value="laboratory"/>
               </coding>
            </category>
            <code>
               <coding>
                  <system value="http://loinc.org"/>
                  <code value="785-6"/>
                  <display value="MCH [Entitic mass] by Automated count"/>
               </coding>
               <text value="MCH [Entitic mass] by Automated count"/>
            </code>
            <subject>
               <reference value="urn:uuid:8e18686b-63fa-428b-a7b2-6cb83d070d3d"/>
               <display value="Aniela Prażmo"/>
            </subject>
            <effectiveDateTime value="2017-05-24T19:28:22Z"/>
            <performer>
               <display value="The Central European Lab"/>
            </performer>
            <valueQuantity>
               <value value="28.5"/>
               <unit value="pg"/>
               <system value="http://unitsofmeasure.org"/>
               <code value="pg"/>
            </valueQuantity>
            <specimen>
               <reference value="urn:uuid:4bc8b4b9-8a7d-4bf4-816c-56857ba2ea47"/>
            </specimen>
            <referenceRange>
               <low>
                  <value value="27"/>
                  <system value="http://unitsofmeasure.org"/>
                  <code value="pg"/>
               </low>
            </referenceRange>
            <referenceRange>
               <high>
                  <value value="34"/>
                  <system value="http://unitsofmeasure.org"/>
                  <code value="pg"/>
               </high>
            </referenceRange>
         </Observation>
      </resource>
   </entry>
   <entry>
      <fullUrl value="urn:uuid:b3746cc2-0966-4911-af92-bb3b04c21425"/>
      <resource>
         <Observation>
            <id value="b3746cc2-0966-4911-af92-bb3b04c21425"/>
            <meta>
               <profile value="http://hl7.eu/fhir/laboratory/StructureDefinition/Observation-resultslab-eu-lab"/>
            </meta>
            <text>
               <status value="generated"/>
               <div xmlns="http://www.w3.org/1999/xhtml">
                  <table class="hl7__eu__lab__report">
                     <tr>
                        <th>Test</th>
                        <th>24-May-2017</th>
                        <th>Reference Range</th>
                        <th>Unit</th>
                     </tr>
                     <tr>
                        <td>MCHC [Mass/volume] by Automated count</td>
                        <td>32.2</td>
                        <td>32 - 35</td>
                        <td/>
                        <td>g/dL</td>
                     </tr>
                  </table>
               </div>
            </text>
            <status value="final"/>
            <category>
               <coding>
                  <system value="http://terminology.hl7.org/CodeSystem/observation-category"/>
                  <code value="laboratory"/>
               </coding>
            </category>
            <code>
               <coding>
                  <system value="http://loinc.org"/>
                  <code value="786-4"/>
                  <display value="MCHC [Mass/volume] by Automated count"/>
               </coding>
               <text value="MCHC [Mass/volume] by Automated count"/>
            </code>
            <subject>
               <reference value="urn:uuid:8e18686b-63fa-428b-a7b2-6cb83d070d3d"/>
               <display value="Aniela Prażmo"/>
            </subject>
            <effectiveDateTime value="2017-05-24T19:28:22Z"/>
            <performer>
               <display value="The Central European Lab"/>
            </performer>
            <valueQuantity>
               <value value="32.2"/>
               <unit value="g/dL"/>
               <system value="http://unitsofmeasure.org"/>
               <code value="g/dL"/>
            </valueQuantity>
            <specimen>
               <reference value="urn:uuid:4bc8b4b9-8a7d-4bf4-816c-56857ba2ea47"/>
            </specimen>
            <referenceRange>
               <low>
                  <value value="32"/>
                  <system value="http://unitsofmeasure.org"/>
                  <code value="g/dL"/>
               </low>
            </referenceRange>
            <referenceRange>
               <high>
                  <value value="35"/>
                  <system value="http://unitsofmeasure.org"/>
                  <code value="g/dL"/>
               </high>
            </referenceRange>
         </Observation>
      </resource>
   </entry>
   <entry>
      <fullUrl value="urn:uuid:0598a4b8-9142-484f-ab36-2d23c24b6ac1"/>
      <resource>
         <Observation>
            <id value="0598a4b8-9142-484f-ab36-2d23c24b6ac1"/>
            <meta>
               <profile value="http://hl7.eu/fhir/laboratory/StructureDefinition/Observation-resultslab-eu-lab"/>
            </meta>
            <text>
               <status value="generated"/>
               <div xmlns="http://www.w3.org/1999/xhtml">
                  <table class="hl7__eu__lab__report">
                     <tr>
                        <th>Test</th>
                        <th>24-May-2017</th>
                        <th>Reference Range</th>
                        <th>Unit</th>
                     </tr>
                     <tr>
                        <td>Erythrocyte distribution width [Ratio] by Automated count</td>
                        <td>14.2</td>
                        <td>11.6 - 16.5</td>
                        <td/>
                        <td>%</td>
                     </tr>
                  </table>
               </div>
            </text>
            <status value="final"/>
            <category>
               <coding>
                  <system value="http://terminology.hl7.org/CodeSystem/observation-category"/>
                  <code value="laboratory"/>
               </coding>
            </category>
            <code>
               <coding>
                  <system value="http://loinc.org"/>
                  <code value="788-0"/>
                  <display value="Erythrocyte distribution width [Ratio] by Automated count"/>
               </coding>
               <text value="Erythrocyte distribution width [Ratio] by Automated count"/>
            </code>
            <subject>
               <reference value="urn:uuid:8e18686b-63fa-428b-a7b2-6cb83d070d3d"/>
               <display value="Aniela Prażmo"/>
            </subject>
            <effectiveDateTime value="2017-05-24T19:28:22Z"/>
            <performer>
               <display value="The Central European Lab"/>
            </performer>
            <valueQuantity>
               <value value="14.2"/>
               <unit value="%"/>
               <system value="http://unitsofmeasure.org"/>
               <code value="%"/>
            </valueQuantity>
            <specimen>
               <reference value="urn:uuid:4bc8b4b9-8a7d-4bf4-816c-56857ba2ea47"/>
            </specimen>
            <referenceRange>
               <low>
                  <value value="11.6"/>
                  <system value="http://unitsofmeasure.org"/>
                  <code value="%"/>
               </low>
            </referenceRange>
            <referenceRange>
               <high>
                  <value value="16.5"/>
                  <system value="http://unitsofmeasure.org"/>
                  <code value="%"/>
               </high>
            </referenceRange>
         </Observation>
      </resource>
   </entry>
   <entry>
      <fullUrl value="urn:uuid:2cbf830a-06d2-413a-8009-e12f16708fb7"/>
      <resource>
         <Observation>
            <id value="2cbf830a-06d2-413a-8009-e12f16708fb7"/>
            <meta>
               <profile value="http://hl7.eu/fhir/laboratory/StructureDefinition/Observation-resultslab-eu-lab"/>
            </meta>
            <text>
               <status value="generated"/>
               <div xmlns="http://www.w3.org/1999/xhtml">
                  <table class="hl7__eu__lab__report">
                     <tr>
                        <th>Test</th>
                        <th>24-May-2017</th>
                        <th>Reference Range</th>
                        <th>Unit</th>
                     </tr>
                     <tr>
                        <td>Platelets [#/volume] in Blood by Automated count</td>
                        <td>306.7</td>
                        <td>157 - 415</td>
                        <td/>
                        <td>10*3/uL</td>
                     </tr>
                  </table>
               </div>
            </text>
            <status value="final"/>
            <category>
               <coding>
                  <system value="http://terminology.hl7.org/CodeSystem/observation-category"/>
                  <code value="laboratory"/>
               </coding>
            </category>
            <code>
               <coding>
                  <system value="http://loinc.org"/>
                  <code value="777-3"/>
                  <display value="Platelets [#/volume] in Blood by Automated count"/>
               </coding>
               <text value="Platelets [#/volume] in Blood by Automated count"/>
            </code>
            <subject>
               <reference value="urn:uuid:8e18686b-63fa-428b-a7b2-6cb83d070d3d"/>
               <display value="Aniela Prażmo"/>
            </subject>
            <effectiveDateTime value="2017-05-24T19:28:22Z"/>
            <performer>
               <display value="The Central European Lab"/>
            </performer>
            <valueQuantity>
               <value value="306.7"/>
               <unit value="10*3/uL"/>
               <system value="http://unitsofmeasure.org"/>
               <code value="10*3/uL"/>
            </valueQuantity>
            <specimen>
               <reference value="urn:uuid:4bc8b4b9-8a7d-4bf4-816c-56857ba2ea47"/>
            </specimen>
            <referenceRange>
               <low>
                  <value value="157"/>
                  <system value="http://unitsofmeasure.org"/>
                  <code value="10*3/uL"/>
               </low>
            </referenceRange>
            <referenceRange>
               <high>
                  <value value="415"/>
                  <system value="http://unitsofmeasure.org"/>
                  <code value="10*3/uL"/>
               </high>
            </referenceRange>
         </Observation>
      </resource>
   </entry>
   <entry>
      <fullUrl value="urn:uuid:bdd09556-8994-4ffe-b1df-38e9a9221a92"/>
      <resource>
         <Observation>
            <id value="bdd09556-8994-4ffe-b1df-38e9a9221a92"/>
            <meta>
               <profile value="http://hl7.eu/fhir/laboratory/StructureDefinition/Observation-resultslab-eu-lab"/>
            </meta>
            <text>
               <status value="generated"/>
               <div xmlns="http://www.w3.org/1999/xhtml">
                  <table class="hl7__eu__lab__report">
                     <tr>
                        <th>Test</th>
                        <th>24-May-2017</th>
                        <th>Reference Range</th>
                        <th>Unit</th>
                     </tr>
                     <tr>
                        <td>Glucose [Mass/volume] in Serum or Plasma</td>
                        <td>71.5</td>
                        <td>70 - 99</td>
                        <td/>
                        <td>mg/dL</td>
                     </tr>
                  </table>
               </div>
            </text>
            <status value="final"/>
            <category>
               <coding>
                  <system value="http://terminology.hl7.org/CodeSystem/observation-category"/>
                  <code value="laboratory"/>
               </coding>
            </category>
            <code>
               <coding>
                  <system value="http://loinc.org"/>
                  <code value="2345-7"/>
                  <display value="Glucose [Mass/volume] in Serum or Plasma"/>
               </coding>
               <text value="Glucose [Mass/volume] in Serum or Plasma"/>
            </code>
            <subject>
               <reference value="urn:uuid:8e18686b-63fa-428b-a7b2-6cb83d070d3d"/>
               <display value="Aniela Prażmo"/>
            </subject>
            <effectiveDateTime value="2017-05-24T19:28:22Z"/>
            <performer>
               <display value="The Central European Lab"/>
            </performer>
            <valueQuantity>
               <value value="71.5"/>
               <unit value="mg/dL"/>
               <system value="http://unitsofmeasure.org"/>
               <code value="mg/dL"/>
            </valueQuantity>
            <specimen>
               <reference value="urn:uuid:76da85b3-5ba8-4bbc-a261-e1ef88d48e8e"/>
            </specimen>
            <referenceRange>
               <low>
                  <value value="70"/>
                  <system value="http://unitsofmeasure.org"/>
                  <code value="mg/dL"/>
               </low>
            </referenceRange>
            <referenceRange>
               <high>
                  <value value="99"/>
                  <system value="http://unitsofmeasure.org"/>
                  <code value="mg/dL"/>
               </high>
            </referenceRange>
         </Observation>
      </resource>
   </entry>
   <entry>
      <fullUrl value="urn:uuid:9a8d8888-5ffc-44ce-b436-572898f6485b"/>
      <resource>
         <Observation>
            <id value="9a8d8888-5ffc-44ce-b436-572898f6485b"/>
            <meta>
               <profile value="http://hl7.eu/fhir/laboratory/StructureDefinition/Observation-resultslab-eu-lab"/>
            </meta>
            <text>
               <status value="generated"/>
               <div xmlns="http://www.w3.org/1999/xhtml">
                  <table class="hl7__eu__lab__report">
                     <tr>
                        <th>Test</th>
                        <th>24-May-2017</th>
                        <th>Reference Range</th>
                        <th>Unit</th>
                     </tr>
                     <tr>
                        <td>Urea nitrogen [Mass/volume] in Serum or Plasma</td>
                        <td>7.8</td>
                        <td>7 - 20</td>
                        <td/>
                        <td>mg/dL</td>
                     </tr>
                  </table>
               </div>
            </text>
            <status value="final"/>
            <category>
               <coding>
                  <system value="http://terminology.hl7.org/CodeSystem/observation-category"/>
                  <code value="laboratory"/>
               </coding>
            </category>
            <code>
               <coding>
                  <system value="http://loinc.org"/>
                  <code value="3094-0"/>
                  <display value="Urea nitrogen [Mass/volume] in Serum or Plasma"/>
               </coding>
               <text value="Urea nitrogen [Mass/volume] in Serum or Plasma"/>
            </code>
            <subject>
               <reference value="urn:uuid:8e18686b-63fa-428b-a7b2-6cb83d070d3d"/>
               <display value="Aniela Prażmo"/>
            </subject>
            <effectiveDateTime value="2017-05-24T19:28:22Z"/>
            <performer>
               <display value="The Central European Lab"/>
            </performer>
            <valueQuantity>
               <value value="7.8"/>
               <unit value="mg/dL"/>
               <system value="http://unitsofmeasure.org"/>
               <code value="mg/dL"/>
            </valueQuantity>
            <specimen>
               <reference value="urn:uuid:76da85b3-5ba8-4bbc-a261-e1ef88d48e8e"/>
            </specimen>
            <referenceRange>
               <low>
                  <value value="7"/>
                  <system value="http://unitsofmeasure.org"/>
                  <code value="mg/dL"/>
               </low>
            </referenceRange>
            <referenceRange>
               <high>
                  <value value="20"/>
                  <system value="http://unitsofmeasure.org"/>
                  <code value="mg/dL"/>
               </high>
            </referenceRange>
         </Observation>
      </resource>
   </entry>
   <entry>
      <fullUrl value="urn:uuid:b5aef1b8-0aeb-446f-8fb2-581b5ec2d9f9"/>
      <resource>
         <Observation>
            <id value="b5aef1b8-0aeb-446f-8fb2-581b5ec2d9f9"/>
            <meta>
               <profile value="http://hl7.eu/fhir/laboratory/StructureDefinition/Observation-resultslab-eu-lab"/>
            </meta>
            <text>
               <status value="generated"/>
               <div xmlns="http://www.w3.org/1999/xhtml">
                  <table class="hl7__eu__lab__report">
                     <tr>
                        <th>Test</th>
                        <th>24-May-2017</th>
                        <th>Reference Range</th>
                        <th>Unit</th>
                     </tr>
                     <tr>
                        <td>Creatinine [Mass/volume] in Serum or Plasma</td>
                        <td>2.9</td>
                        <td>0.6 - 1.3</td>
                        <td>H</td>
                        <td>mg/dL</td>
                     </tr>
                  </table>
               </div>
            </text>
            <status value="final"/>
            <category>
               <coding>
                  <system value="http://terminology.hl7.org/CodeSystem/observation-category"/>
                  <code value="laboratory"/>
               </coding>
            </category>
            <code>
               <coding>
                  <system value="http://loinc.org"/>
                  <code value="2160-0"/>
                  <display value="Creatinine [Mass/volume] in Serum or Plasma"/>
               </coding>
               <text value="Creatinine [Mass/volume] in Serum or Plasma"/>
            </code>
            <subject>
               <reference value="urn:uuid:8e18686b-63fa-428b-a7b2-6cb83d070d3d"/>
               <display value="Aniela Prażmo"/>
            </subject>
            <effectiveDateTime value="2017-05-24T19:28:22Z"/>
            <performer>
               <display value="The Central European Lab"/>
            </performer>
            <valueQuantity>
               <value value="2.9"/>
               <unit value="mg/dL"/>
               <system value="http://unitsofmeasure.org"/>
               <code value="mg/dL"/>
            </valueQuantity>
            <interpretation>
               <coding>
                  <system value="http://terminology.hl7.org/CodeSystem/v3-ObservationInterpretation"/>
                  <code value="H"/>
                  <display value="High"/>
               </coding>
            </interpretation>
            <specimen>
               <reference value="urn:uuid:76da85b3-5ba8-4bbc-a261-e1ef88d48e8e"/>
            </specimen>
            <referenceRange>
               <low>
                  <value value="0.6"/>
                  <system value="http://unitsofmeasure.org"/>
                  <code value="mg/dL"/>
               </low>
            </referenceRange>
            <referenceRange>
               <high>
                  <value value="1.3"/>
                  <system value="http://unitsofmeasure.org"/>
                  <code value="mg/dL"/>
               </high>
            </referenceRange>
         </Observation>
      </resource>
   </entry>
   <entry>
      <fullUrl value="urn:uuid:d3850261-2a3f-42fe-8a18-cc1f92349835"/>
      <resource>
         <Observation>
            <id value="d3850261-2a3f-42fe-8a18-cc1f92349835"/>
            <meta>
               <profile value="http://hl7.eu/fhir/laboratory/StructureDefinition/Observation-resultslab-eu-lab"/>
            </meta>
            <text>
               <status value="generated"/>
               <div xmlns="http://www.w3.org/1999/xhtml">
                  <table class="hl7__eu__lab__report">
                     <tr>
                        <th>Test</th>
                        <th>24-May-2017</th>
                        <th>Reference Range</th>
                        <th>Unit</th>
                     </tr>
                     <tr>
                        <td>Calcium [Mass/volume] in Serum or Plasma</td>
                        <td>9.7</td>
                        <td>8.5 - 10.4</td>
                        <td/>
                        <td>mg/dL</td>
                     </tr>
                  </table>
               </div>
            </text>
            <status value="final"/>
            <category>
               <coding>
                  <system value="http://terminology.hl7.org/CodeSystem/observation-category"/>
                  <code value="laboratory"/>
               </coding>
            </category>
            <code>
               <coding>
                  <system value="http://loinc.org"/>
                  <code value="17861-6"/>
                  <display value="Calcium [Mass/volume] in Serum or Plasma"/>
               </coding>
               <text value="Calcium [Mass/volume] in Serum or Plasma"/>
            </code>
            <subject>
               <reference value="urn:uuid:8e18686b-63fa-428b-a7b2-6cb83d070d3d"/>
               <display value="Aniela Prażmo"/>
            </subject>
            <effectiveDateTime value="2017-05-24T19:28:22Z"/>
            <performer>
               <display value="The Central European Lab"/>
            </performer>
            <valueQuantity>
               <value value="9.7"/>
               <unit value="mg/dL"/>
               <system value="http://unitsofmeasure.org"/>
               <code value="mg/dL"/>
            </valueQuantity>
            <specimen>
               <reference value="urn:uuid:76da85b3-5ba8-4bbc-a261-e1ef88d48e8e"/>
            </specimen>
            <referenceRange>
               <low>
                  <value value="8.5"/>
                  <system value="http://unitsofmeasure.org"/>
                  <code value="mg/dL"/>
               </low>
            </referenceRange>
            <referenceRange>
               <high>
                  <value value="10.4"/>
                  <system value="http://unitsofmeasure.org"/>
                  <code value="mg/dL"/>
               </high>
            </referenceRange>
         </Observation>
      </resource>
   </entry>
   <entry>
      <fullUrl value="urn:uuid:5a37e37a-470f-46f8-9ab5-46995c2a3adb"/>
      <resource>
         <Observation>
            <id value="5a37e37a-470f-46f8-9ab5-46995c2a3adb"/>
            <meta>
               <profile value="http://hl7.eu/fhir/laboratory/StructureDefinition/Observation-resultslab-eu-lab"/>
            </meta>
            <text>
               <status value="generated"/>
               <div xmlns="http://www.w3.org/1999/xhtml">
                  <table class="hl7__eu__lab__report">
                     <tr>
                        <th>Test</th>
                        <th>24-May-2017</th>
                        <th>Reference Range</th>
                        <th>Unit</th>
                     </tr>
                     <tr>
                        <td>Sodium [Moles/volume] in Serum or Plasma</td>
                        <td>136.6</td>
                        <td>135 - 145</td>
                        <td/>
                        <td>mmol/L</td>
                     </tr>
                  </table>
               </div>
            </text>
            <status value="final"/>
            <category>
               <coding>
                  <system value="http://terminology.hl7.org/CodeSystem/observation-category"/>
                  <code value="laboratory"/>
               </coding>
            </category>
            <code>
               <coding>
                  <system value="http://loinc.org"/>
                  <code value="2951-2"/>
                  <display value="Sodium [Moles/volume] in Serum or Plasma"/>
               </coding>
               <text value="Sodium [Moles/volume] in Serum or Plasma"/>
            </code>
            <subject>
               <reference value="urn:uuid:8e18686b-63fa-428b-a7b2-6cb83d070d3d"/>
               <display value="Aniela Prażmo"/>
            </subject>
            <effectiveDateTime value="2017-05-24T19:28:22Z"/>
            <performer>
               <display value="The Central European Lab"/>
            </performer>
            <valueQuantity>
               <value value="136.6"/>
               <unit value="mmol/L"/>
               <system value="http://unitsofmeasure.org"/>
               <code value="mmol/L"/>
            </valueQuantity>
            <specimen>
               <reference value="urn:uuid:76da85b3-5ba8-4bbc-a261-e1ef88d48e8e"/>
            </specimen>
            <referenceRange>
               <low>
                  <value value="135"/>
                  <system value="http://unitsofmeasure.org"/>
                  <code value="mmol/L"/>
               </low>
            </referenceRange>
            <referenceRange>
               <high>
                  <value value="145"/>
                  <system value="http://unitsofmeasure.org"/>
                  <code value="mmol/L"/>
               </high>
            </referenceRange>
         </Observation>
      </resource>
   </entry>
   <entry>
      <fullUrl value="urn:uuid:ab17a3b8-a3ec-40dd-b28e-97648372feef"/>
      <resource>
         <Observation>
            <id value="ab17a3b8-a3ec-40dd-b28e-97648372feef"/>
            <meta>
               <profile value="http://hl7.eu/fhir/laboratory/StructureDefinition/Observation-resultslab-eu-lab"/>
            </meta>
            <text>
               <status value="generated"/>
               <div xmlns="http://www.w3.org/1999/xhtml">
                  <table class="hl7__eu__lab__report">
                     <tr>
                        <th>Test</th>
                        <th>24-May-2017</th>
                        <th>Reference Range</th>
                        <th>Unit</th>
                     </tr>
                     <tr>
                        <td>Potassium [Moles/volume] in Serum or Plasma</td>
                        <td>4.3</td>
                        <td>3.5 - 5.1</td>
                        <td/>
                        <td>mmol/L</td>
                     </tr>
                  </table>
               </div>
            </text>
            <status value="final"/>
            <category>
               <coding>
                  <system value="http://terminology.hl7.org/CodeSystem/observation-category"/>
                  <code value="laboratory"/>
               </coding>
            </category>
            <code>
               <coding>
                  <system value="http://loinc.org"/>
                  <code value="2823-3"/>
                  <display value="Potassium [Moles/volume] in Serum or Plasma"/>
               </coding>
               <text value="Potassium [Moles/volume] in Serum or Plasma"/>
            </code>
            <subject>
               <reference value="urn:uuid:8e18686b-63fa-428b-a7b2-6cb83d070d3d"/>
               <display value="Aniela Prażmo"/>
            </subject>
            <effectiveDateTime value="2017-05-24T19:28:22Z"/>
            <performer>
               <display value="The Central European Lab"/>
            </performer>
            <valueQuantity>
               <value value="4.3"/>
               <unit value="mmol/L"/>
               <system value="http://unitsofmeasure.org"/>
               <code value="mmol/L"/>
            </valueQuantity>
            <specimen>
               <reference value="urn:uuid:76da85b3-5ba8-4bbc-a261-e1ef88d48e8e"/>
            </specimen>
            <referenceRange>
               <low>
                  <value value="3.5"/>
                  <system value="http://unitsofmeasure.org"/>
                  <code value="mmol/L"/>
               </low>
            </referenceRange>
            <referenceRange>
               <high>
                  <value value="5.1"/>
                  <system value="http://unitsofmeasure.org"/>
                  <code value="mmol/L"/>
               </high>
            </referenceRange>
         </Observation>
      </resource>
   </entry>
   <entry>
      <fullUrl value="urn:uuid:7cda81c3-a5f6-424d-b009-8f3262170ca2"/>
      <resource>
         <Observation>
            <id value="7cda81c3-a5f6-424d-b009-8f3262170ca2"/>
            <meta>
               <profile value="http://hl7.eu/fhir/laboratory/StructureDefinition/Observation-resultslab-eu-lab"/>
            </meta>
            <text>
               <status value="generated"/>
               <div xmlns="http://www.w3.org/1999/xhtml">
                  <table class="hl7__eu__lab__report">
                     <tr>
                        <th>Test</th>
                        <th>24-May-2017</th>
                        <th>Reference Range</th>
                        <th>Unit</th>
                     </tr>
                     <tr>
                        <td>Chloride [Moles/volume] in Serum or Plasma</td>
                        <td>105.0</td>
                        <td>98 - 108</td>
                        <td/>
                        <td>mmol/L</td>
                     </tr>
                  </table>
               </div>
            </text>
            <status value="final"/>
            <category>
               <coding>
                  <system value="http://terminology.hl7.org/CodeSystem/observation-category"/>
                  <code value="laboratory"/>
               </coding>
            </category>
            <code>
               <coding>
                  <system value="http://loinc.org"/>
                  <code value="2075-0"/>
                  <display value="Chloride [Moles/volume] in Serum or Plasma"/>
               </coding>
               <text value="Chloride [Moles/volume] in Serum or Plasma"/>
            </code>
            <subject>
               <reference value="urn:uuid:8e18686b-63fa-428b-a7b2-6cb83d070d3d"/>
               <display value="Aniela Prażmo"/>
            </subject>
            <effectiveDateTime value="2017-05-24T19:28:22Z"/>
            <performer>
               <display value="The Central European Lab"/>
            </performer>
            <valueQuantity>
               <value value="105"/>
               <unit value="mmol/L"/>
               <system value="http://unitsofmeasure.org"/>
               <code value="mmol/L"/>
            </valueQuantity>
            <specimen>
               <reference value="urn:uuid:76da85b3-5ba8-4bbc-a261-e1ef88d48e8e"/>
            </specimen>
            <referenceRange>
               <low>
                  <value value="98"/>
                  <system value="http://unitsofmeasure.org"/>
                  <code value="mmol/L"/>
               </low>
            </referenceRange>
            <referenceRange>
               <high>
                  <value value="108"/>
                  <system value="http://unitsofmeasure.org"/>
                  <code value="mmol/L"/>
               </high>
            </referenceRange>
         </Observation>
      </resource>
   </entry>
   <entry>
      <fullUrl value="urn:uuid:e344b45f-4d15-4cf2-8082-d8beccb95032"/>
      <resource>
         <Observation>
            <id value="e344b45f-4d15-4cf2-8082-d8beccb95032"/>
            <meta>
               <profile value="http://hl7.eu/fhir/laboratory/StructureDefinition/Observation-resultslab-eu-lab"/>
            </meta>
            <text>
               <status value="generated"/>
               <div xmlns="http://www.w3.org/1999/xhtml">
                  <table class="hl7__eu__lab__report">
                     <tr>
                        <th>Test</th>
                        <th>24-May-2017</th>
                        <th>Reference Range</th>
                        <th>Unit</th>
                     </tr>
                     <tr>
                        <td>Carbon dioxide, total [Moles/volume] in Serum or Plasma</td>
                        <td>23.3</td>
                        <td>22 - 32</td>
                        <td/>
                        <td>mmol/L</td>
                     </tr>
                  </table>
               </div>
            </text>
            <status value="final"/>
            <category>
               <coding>
                  <system value="http://terminology.hl7.org/CodeSystem/observation-category"/>
                  <code value="laboratory"/>
               </coding>
            </category>
            <code>
               <coding>
                  <system value="http://loinc.org"/>
                  <code value="2028-9"/>
                  <display value="Carbon dioxide, total [Moles/volume] in Serum or Plasma"/>
               </coding>
               <text value="Carbon dioxide, total [Moles/volume] in Serum or Plasma"/>
            </code>
            <subject>
               <reference value="urn:uuid:8e18686b-63fa-428b-a7b2-6cb83d070d3d"/>
               <display value="Aniela Prażmo"/>
            </subject>
            <effectiveDateTime value="2017-05-24T19:28:22Z"/>
            <performer>
               <display value="The Central European Lab"/>
            </performer>
            <valueQuantity>
               <value value="23.3"/>
               <unit value="mmol/L"/>
               <system value="http://unitsofmeasure.org"/>
               <code value="mmol/L"/>
            </valueQuantity>
            <specimen>
               <reference value="urn:uuid:76da85b3-5ba8-4bbc-a261-e1ef88d48e8e"/>
            </specimen>
            <referenceRange>
               <low>
                  <value value="22"/>
                  <system value="http://unitsofmeasure.org"/>
                  <code value="mmol/L"/>
               </low>
            </referenceRange>
            <referenceRange>
               <high>
                  <value value="32"/>
                  <system value="http://unitsofmeasure.org"/>
                  <code value="mmol/L"/>
               </high>
            </referenceRange>
         </Observation>
      </resource>
   </entry>
   <entry>
      <fullUrl value="urn:uuid:0febb375-ff65-40be-9de4-1bb5e0b56cb3"/>
      <resource>
         <Observation>
            <id value="0febb375-ff65-40be-9de4-1bb5e0b56cb3"/>
            <meta>
               <profile value="http://hl7.eu/fhir/laboratory/StructureDefinition/Observation-resultslab-eu-lab"/>
            </meta>
            <text>
               <status value="generated"/>
               <div xmlns="http://www.w3.org/1999/xhtml">
                  <table class="hl7__eu__lab__report">
                     <tr>
                        <th>Test</th>
                        <th>24-May-2017</th>
                        <th>Reference Range</th>
                        <th>Unit</th>
                     </tr>
                     <tr>
                        <td>Protein [Mass/volume] in Serum or Plasma</td>
                        <td>6.2</td>
                        <td>6 - 8.3</td>
                        <td/>
                        <td>g/dL</td>
                     </tr>
                  </table>
               </div>
            </text>
            <status value="final"/>
            <category>
               <coding>
                  <system value="http://terminology.hl7.org/CodeSystem/observation-category"/>
                  <code value="laboratory"/>
               </coding>
            </category>
            <code>
               <coding>
                  <system value="http://loinc.org"/>
                  <code value="2885-2"/>
                  <display value="Protein [Mass/volume] in Serum or Plasma"/>
               </coding>
               <text value="Protein [Mass/volume] in Serum or Plasma"/>
            </code>
            <subject>
               <reference value="urn:uuid:8e18686b-63fa-428b-a7b2-6cb83d070d3d"/>
               <display value="Aniela Prażmo"/>
            </subject>
            <effectiveDateTime value="2017-05-24T19:28:22Z"/>
            <performer>
               <display value="The Central European Lab"/>
            </performer>
            <valueQuantity>
               <value value="6.2"/>
               <unit value="g/dL"/>
               <system value="http://unitsofmeasure.org"/>
               <code value="g/dL"/>
            </valueQuantity>
            <specimen>
               <reference value="urn:uuid:76da85b3-5ba8-4bbc-a261-e1ef88d48e8e"/>
            </specimen>
            <referenceRange>
               <low>
                  <value value="6"/>
                  <system value="http://unitsofmeasure.org"/>
                  <code value="g/dL"/>
               </low>
            </referenceRange>
            <referenceRange>
               <high>
                  <value value="8.3"/>
                  <system value="http://unitsofmeasure.org"/>
                  <code value="g/dL"/>
               </high>
            </referenceRange>
         </Observation>
      </resource>
   </entry>
   <entry>
      <fullUrl value="urn:uuid:0e973a73-393e-4e6f-b8ae-a8495e944d19"/>
      <resource>
         <Observation>
            <id value="0e973a73-393e-4e6f-b8ae-a8495e944d19"/>
            <meta>
               <profile value="http://hl7.eu/fhir/laboratory/StructureDefinition/Observation-resultslab-eu-lab"/>
            </meta>
            <text>
               <status value="generated"/>
               <div xmlns="http://www.w3.org/1999/xhtml">
                  <table class="hl7__eu__lab__report">
                     <tr>
                        <th>Test</th>
                        <th>24-May-2017</th>
                        <th>Reference Range</th>
                        <th>Unit</th>
                     </tr>
                     <tr>
                        <td>Albumin [Mass/volume] in Serum or Plasma</td>
                        <td>4.2</td>
                        <td>3.5 - 5</td>
                        <td/>
                        <td>g/dL</td>
                     </tr>
                  </table>
               </div>
            </text>
            <status value="final"/>
            <category>
               <coding>
                  <system value="http://terminology.hl7.org/CodeSystem/observation-category"/>
                  <code value="laboratory"/>
               </coding>
            </category>
            <code>
               <coding>
                  <system value="http://loinc.org"/>
                  <code value="1751-7"/>
                  <display value="Albumin [Mass/volume] in Serum or Plasma"/>
               </coding>
               <text value="Albumin [Mass/volume] in Serum or Plasma"/>
            </code>
            <subject>
               <reference value="urn:uuid:8e18686b-63fa-428b-a7b2-6cb83d070d3d"/>
               <display value="Aniela Prażmo"/>
            </subject>
            <effectiveDateTime value="2017-05-24T19:28:22Z"/>
            <performer>
               <display value="The Central European Lab"/>
            </performer>
            <valueQuantity>
               <value value="4.2"/>
               <unit value="g/dL"/>
               <system value="http://unitsofmeasure.org"/>
               <code value="g/dL"/>
            </valueQuantity>
            <specimen>
               <reference value="urn:uuid:76da85b3-5ba8-4bbc-a261-e1ef88d48e8e"/>
            </specimen>
            <referenceRange>
               <low>
                  <value value="3.5"/>
                  <system value="http://unitsofmeasure.org"/>
                  <code value="g/dL"/>
               </low>
            </referenceRange>
            <referenceRange>
               <high>
                  <value value="5"/>
                  <system value="http://unitsofmeasure.org"/>
                  <code value="g/dL"/>
               </high>
            </referenceRange>
         </Observation>
      </resource>
   </entry>
   <entry>
      <fullUrl value="urn:uuid:f0f9fb6c-247b-4dfa-a553-33fb13fe6938"/>
      <resource>
         <Observation>
            <id value="f0f9fb6c-247b-4dfa-a553-33fb13fe6938"/>
            <meta>
               <profile value="http://hl7.eu/fhir/laboratory/StructureDefinition/Observation-resultslab-eu-lab"/>
            </meta>
            <text>
               <status value="generated"/>
               <div xmlns="http://www.w3.org/1999/xhtml">
                  <table class="hl7__eu__lab__report">
                     <tr>
                        <th>Test</th>
                        <th>24-May-2017</th>
                        <th>Reference Range</th>
                        <th>Unit</th>
                     </tr>
                     <tr>
                        <td>Bilirubin.total [Mass/volume] in Serum or Plasma</td>
                        <td>6.5</td>
                        <td>0.3 - 1.2</td>
                        <td>H</td>
                        <td>mg/dL</td>
                     </tr>
                  </table>
               </div>
            </text>
            <status value="final"/>
            <category>
               <coding>
                  <system value="http://terminology.hl7.org/CodeSystem/observation-category"/>
                  <code value="laboratory"/>
               </coding>
            </category>
            <code>
               <coding>
                  <system value="http://loinc.org"/>
                  <code value="1975-2"/>
                  <display value="Bilirubin.total [Mass/volume] in Serum or Plasma"/>
               </coding>
               <text value="Bilirubin.total [Mass/volume] in Serum or Plasma"/>
            </code>
            <subject>
               <reference value="urn:uuid:8e18686b-63fa-428b-a7b2-6cb83d070d3d"/>
               <display value="Aniela Prażmo"/>
            </subject>
            <effectiveDateTime value="2017-05-24T19:28:22Z"/>
            <performer>
               <display value="The Central European Lab"/>
            </performer>
            <valueQuantity>
               <value value="6.5"/>
               <unit value="mg/dL"/>
               <system value="http://unitsofmeasure.org"/>
               <code value="mg/dL"/>
            </valueQuantity>
            <interpretation>
               <coding>
                  <system value="http://terminology.hl7.org/CodeSystem/v3-ObservationInterpretation"/>
                  <code value="H"/>
                  <display value="High"/>
               </coding>
            </interpretation>
            <specimen>
               <reference value="urn:uuid:76da85b3-5ba8-4bbc-a261-e1ef88d48e8e"/>
            </specimen>
            <referenceRange>
               <low>
                  <value value="0.3"/>
                  <system value="http://unitsofmeasure.org"/>
                  <code value="mg/dL"/>
               </low>
            </referenceRange>
            <referenceRange>
               <high>
                  <value value="1.2"/>
                  <system value="http://unitsofmeasure.org"/>
                  <code value="mg/dL"/>
               </high>
            </referenceRange>
         </Observation>
      </resource>
   </entry>
   <entry>
      <fullUrl value="urn:uuid:7f7522ab-8549-4012-aae6-0101a11f5544"/>
      <resource>
         <Observation>
            <id value="7f7522ab-8549-4012-aae6-0101a11f5544"/>
            <meta>
               <profile value="http://hl7.eu/fhir/laboratory/StructureDefinition/Observation-resultslab-eu-lab"/>
            </meta>
            <text>
               <status value="generated"/>
               <div xmlns="http://www.w3.org/1999/xhtml">
                  <table class="hl7__eu__lab__report">
                     <tr>
                        <th>Test</th>
                        <th>24-May-2017</th>
                        <th>Reference Range</th>
                        <th>Unit</th>
                     </tr>
                     <tr>
                        <td>Alkaline phosphatase [Enzymatic activity/volume] in Serum or Plasma</td>
                        <td>110.8</td>
                        <td>32 - 150</td>
                        <td/>
                        <td>U/L</td>
                     </tr>
                  </table>
               </div>
            </text>
            <status value="final"/>
            <category>
               <coding>
                  <system value="http://terminology.hl7.org/CodeSystem/observation-category"/>
                  <code value="laboratory"/>
               </coding>
            </category>
            <code>
               <coding>
                  <system value="http://loinc.org"/>
                  <code value="6768-6"/>
                  <display value="Alkaline phosphatase [Enzymatic activity/volume] in Serum or Plasma"/>
               </coding>
               <text value="Alkaline phosphatase [Enzymatic activity/volume] in Serum or Plasma"/>
            </code>
            <subject>
               <reference value="urn:uuid:8e18686b-63fa-428b-a7b2-6cb83d070d3d"/>
               <display value="Aniela Prażmo"/>
            </subject>
            <effectiveDateTime value="2017-05-24T19:28:22Z"/>
            <performer>
               <display value="The Central European Lab"/>
            </performer>
            <valueQuantity>
               <value value="110.8"/>
               <unit value="U/L"/>
               <system value="http://unitsofmeasure.org"/>
               <code value="U/L"/>
            </valueQuantity>
            <specimen>
               <reference value="urn:uuid:76da85b3-5ba8-4bbc-a261-e1ef88d48e8e"/>
            </specimen>
            <referenceRange>
               <low>
                  <value value="32"/>
                  <system value="http://unitsofmeasure.org"/>
                  <code value="U/L"/>
               </low>
            </referenceRange>
            <referenceRange>
               <high>
                  <value value="150"/>
                  <system value="http://unitsofmeasure.org"/>
                  <code value="U/L"/>
               </high>
            </referenceRange>
         </Observation>
      </resource>
   </entry>
   <entry>
      <fullUrl value="urn:uuid:2239f8eb-5a4e-4322-a785-985365a24a9f"/>
      <resource>
         <Observation>
            <id value="2239f8eb-5a4e-4322-a785-985365a24a9f"/>
            <meta>
               <profile value="http://hl7.eu/fhir/laboratory/StructureDefinition/Observation-resultslab-eu-lab"/>
            </meta>
            <text>
               <status value="generated"/>
               <div xmlns="http://www.w3.org/1999/xhtml">
                  <table class="hl7__eu__lab__report">
                     <tr>
                        <th>Test</th>
                        <th>24-May-2017</th>
                        <th>Reference Range</th>
                        <th>Unit</th>
                     </tr>
                     <tr>
                        <td>Alanine aminotransferase [Enzymatic activity/volume] in Serum or Plasma</td>
                        <td>15.8</td>
                        <td>13 - 32</td>
                        <td/>
                        <td>U/L</td>
                     </tr>
                  </table>
               </div>
            </text>
            <status value="final"/>
            <category>
               <coding>
                  <system value="http://terminology.hl7.org/CodeSystem/observation-category"/>
                  <code value="laboratory"/>
               </coding>
            </category>
            <code>
               <coding>
                  <system value="http://loinc.org"/>
                  <code value="1742-6"/>
                  <display value="Alanine aminotransferase [Enzymatic activity/volume] in Serum or Plasma"/>
               </coding>
               <text value="Alanine aminotransferase [Enzymatic activity/volume] in Serum or Plasma"/>
            </code>
            <subject>
               <reference value="urn:uuid:8e18686b-63fa-428b-a7b2-6cb83d070d3d"/>
               <display value="Aniela Prażmo"/>
            </subject>
            <effectiveDateTime value="2017-05-24T19:28:22Z"/>
            <performer>
               <display value="The Central European Lab"/>
            </performer>
            <valueQuantity>
               <value value="15.8"/>
               <unit value="U/L"/>
               <system value="http://unitsofmeasure.org"/>
               <code value="U/L"/>
            </valueQuantity>
            <specimen>
               <reference value="urn:uuid:76da85b3-5ba8-4bbc-a261-e1ef88d48e8e"/>
            </specimen>
            <referenceRange>
               <low>
                  <value value="13"/>
                  <system value="http://unitsofmeasure.org"/>
                  <code value="U/L"/>
               </low>
            </referenceRange>
            <referenceRange>
               <high>
                  <value value="32"/>
                  <system value="http://unitsofmeasure.org"/>
                  <code value="U/L"/>
               </high>
            </referenceRange>
         </Observation>
      </resource>
   </entry>
   <entry>
      <fullUrl value="urn:uuid:bddbc8c2-8c49-43f2-a27f-e9f4f2d8feb2"/>
      <resource>
         <Observation>
            <id value="bddbc8c2-8c49-43f2-a27f-e9f4f2d8feb2"/>
            <meta>
               <profile value="http://hl7.eu/fhir/laboratory/StructureDefinition/Observation-resultslab-eu-lab"/>
            </meta>
            <text>
               <status value="generated"/>
               <div xmlns="http://www.w3.org/1999/xhtml">
                  <table class="hl7__eu__lab__report">
                     <tr>
                        <th>Test</th>
                        <th>24-May-2017</th>
                        <th>Reference Range</th>
                        <th>Unit</th>
                     </tr>
                     <tr>
                        <td>Aspartate aminotransferase [Enzymatic activity/volume] in Serum or Plasma</td>
                        <td>7.1</td>
                        <td>10 - 40</td>
                        <td>L</td>
                        <td>U/L</td>
                     </tr>
                  </table>
               </div>
            </text>
            <status value="final"/>
            <category>
               <coding>
                  <system value="http://terminology.hl7.org/CodeSystem/observation-category"/>
                  <code value="laboratory"/>
               </coding>
            </category>
            <code>
               <coding>
                  <system value="http://loinc.org"/>
                  <code value="1920-8"/>
                  <display value="Aspartate aminotransferase [Enzymatic activity/volume] in Serum or Plasma"/>
               </coding>
               <text value="Aspartate aminotransferase [Enzymatic activity/volume] in Serum or Plasma"/>
            </code>
            <subject>
               <reference value="urn:uuid:8e18686b-63fa-428b-a7b2-6cb83d070d3d"/>
               <display value="Aniela Prażmo"/>
            </subject>
            <effectiveDateTime value="2017-05-24T19:28:22Z"/>
            <performer>
               <display value="The Central European Lab"/>
            </performer>
            <valueQuantity>
               <value value="7.1"/>
               <unit value="U/L"/>
               <system value="http://unitsofmeasure.org"/>
               <code value="U/L"/>
            </valueQuantity>
            <interpretation>
               <coding>
                  <system value="http://terminology.hl7.org/CodeSystem/v3-ObservationInterpretation"/>
                  <code value="L"/>
                  <display value="Low"/>
               </coding>
            </interpretation>
            <specimen>
               <reference value="urn:uuid:76da85b3-5ba8-4bbc-a261-e1ef88d48e8e"/>
            </specimen>
            <referenceRange>
               <low>
                  <value value="10"/>
                  <system value="http://unitsofmeasure.org"/>
                  <code value="U/L"/>
               </low>
            </referenceRange>
            <referenceRange>
               <high>
                  <value value="40"/>
                  <system value="http://unitsofmeasure.org"/>
                  <code value="U/L"/>
               </high>
            </referenceRange>
         </Observation>
      </resource>
   </entry>
   <entry>
      <fullUrl value="urn:uuid:0b324767-610f-4d8a-9205-831261b55a87"/>
      <resource>
         <Observation>
            <id value="0b324767-610f-4d8a-9205-831261b55a87"/>
            <meta>
               <profile value="http://hl7.eu/fhir/laboratory/StructureDefinition/Observation-resultslab-eu-lab"/>
            </meta>
            <text>
               <status value="generated"/>
               <div xmlns="http://www.w3.org/1999/xhtml">
                  <table class="hl7__eu__lab__report">
                     <tr>
                        <th>Test</th>
                        <th>24-May-2017</th>
                        <th>Reference Range</th>
                        <th>Unit</th>
                     </tr>
                     <tr>
                        <td>Magnesium [Mass/volume] in Serum or Plasma</td>
                        <td>1.9</td>
                        <td>1.7 - 2.6</td>
                        <td/>
                        <td>mg/dL</td>
                     </tr>
                  </table>
               </div>
            </text>
            <status value="final"/>
            <category>
               <coding>
                  <system value="http://terminology.hl7.org/CodeSystem/observation-category"/>
                  <code value="laboratory"/>
               </coding>
            </category>
            <code>
               <coding>
                  <system value="http://loinc.org"/>
                  <code value="19123-9"/>
                  <display value="Magnesium [Mass/volume] in Serum or Plasma"/>
               </coding>
               <text value="Magnesium [Mass/volume] in Serum or Plasma"/>
            </code>
            <subject>
               <reference value="urn:uuid:8e18686b-63fa-428b-a7b2-6cb83d070d3d"/>
               <display value="Aniela Prażmo"/>
            </subject>
            <effectiveDateTime value="2017-05-24T19:28:22Z"/>
            <performer>
               <display value="The Central European Lab"/>
            </performer>
            <valueQuantity>
               <value value="1.9"/>
               <unit value="mg/dL"/>
               <system value="http://unitsofmeasure.org"/>
               <code value="mg/dL"/>
            </valueQuantity>
            <specimen>
               <reference value="urn:uuid:76da85b3-5ba8-4bbc-a261-e1ef88d48e8e"/>
            </specimen>
            <referenceRange>
               <low>
                  <value value="1.7"/>
                  <system value="http://unitsofmeasure.org"/>
                  <code value="mg/dL"/>
               </low>
            </referenceRange>
            <referenceRange>
               <high>
                  <value value="2.6"/>
                  <system value="http://unitsofmeasure.org"/>
                  <code value="mg/dL"/>
               </high>
            </referenceRange>
         </Observation>
      </resource>
   </entry>
   <entry>
      <fullUrl value="urn:uuid:77d797e1-c7b3-4b66-b62d-f0e8b1efeb41"/>
      <resource>
         <Observation>
            <id value="77d797e1-c7b3-4b66-b62d-f0e8b1efeb41"/>
            <meta>
               <profile value="http://hl7.eu/fhir/laboratory/StructureDefinition/Observation-resultslab-eu-lab"/>
            </meta>
            <text>
               <status value="generated"/>
               <div xmlns="http://www.w3.org/1999/xhtml">
                  <table class="hl7__eu__lab__report">
                     <tr>
                        <th>Test</th>
                        <th>24-May-2017</th>
                        <th>Reference Range</th>
                        <th>Unit</th>
                     </tr>
                     <tr>
                        <td>Phosphate [Mass/volume] in Serum or Plasma</td>
                        <td>3.4</td>
                        <td>2.5 - 4.5</td>
                        <td/>
                        <td>mg/dL</td>
                     </tr>
                  </table>
               </div>
            </text>
            <status value="final"/>
            <category>
               <coding>
                  <system value="http://terminology.hl7.org/CodeSystem/observation-category"/>
                  <code value="laboratory"/>
               </coding>
            </category>
            <code>
               <coding>
                  <system value="http://loinc.org"/>
                  <code value="2777-1"/>
                  <display value="Phosphate [Mass/volume] in Serum or Plasma"/>
               </coding>
               <text value="Phosphate [Mass/volume] in Serum or Plasma"/>
            </code>
            <subject>
               <reference value="urn:uuid:8e18686b-63fa-428b-a7b2-6cb83d070d3d"/>
               <display value="Aniela Prażmo"/>
            </subject>
            <effectiveDateTime value="2017-05-24T19:28:22Z"/>
            <performer>
               <display value="The Central European Lab"/>
            </performer>
            <valueQuantity>
               <value value="3.4"/>
               <unit value="mg/dL"/>
               <system value="http://unitsofmeasure.org"/>
               <code value="mg/dL"/>
            </valueQuantity>
            <specimen>
               <reference value="urn:uuid:76da85b3-5ba8-4bbc-a261-e1ef88d48e8e"/>
            </specimen>
            <referenceRange>
               <low>
                  <value value="2.5"/>
                  <system value="http://unitsofmeasure.org"/>
                  <code value="mg/dL"/>
               </low>
            </referenceRange>
            <referenceRange>
               <high>
                  <value value="4.5"/>
                  <system value="http://unitsofmeasure.org"/>
                  <code value="mg/dL"/>
               </high>
            </referenceRange>
         </Observation>
      </resource>
   </entry>
   <entry>
      <fullUrl value="urn:uuid:33c33b44-4fd0-41ec-8a25-be66cc6ee099"/>
      <resource>
         <Observation>
            <id value="33c33b44-4fd0-41ec-8a25-be66cc6ee099"/>
            <meta>
               <profile value="http://hl7.eu/fhir/laboratory/StructureDefinition/Observation-resultslab-eu-lab"/>
            </meta>
            <text>
               <status value="generated"/>
               <div xmlns="http://www.w3.org/1999/xhtml">
                  <table class="hl7__eu__lab__report">
                     <tr>
                        <th>Test</th>
                        <th>24-May-2017</th>
                        <th>Reference Range</th>
                        <th>Unit</th>
                     </tr>
                     <tr>
                        <td>Prothrombin time (PT)</td>
                        <td>9.3</td>
                        <td>11 - 15</td>
                        <td>L</td>
                        <td>s</td>
                     </tr>
                  </table>
               </div>
            </text>
            <status value="final"/>
            <category>
               <coding>
                  <system value="http://terminology.hl7.org/CodeSystem/observation-category"/>
                  <code value="laboratory"/>
               </coding>
            </category>
            <code>
               <coding>
                  <system value="http://loinc.org"/>
                  <code value="5902-2"/>
                  <display value="Prothrombin time (PT)"/>
               </coding>
               <text value="Prothrombin time (PT)"/>
            </code>
            <subject>
               <reference value="urn:uuid:8e18686b-63fa-428b-a7b2-6cb83d070d3d"/>
               <display value="Aniela Prażmo"/>
            </subject>
            <effectiveDateTime value="2017-05-24T19:28:22Z"/>
            <performer>
               <display value="The Central European Lab"/>
            </performer>
            <valueQuantity>
               <value value="9.3"/>
               <unit value="s"/>
               <system value="http://unitsofmeasure.org"/>
               <code value="s"/>
            </valueQuantity>
            <interpretation>
               <coding>
                  <system value="http://terminology.hl7.org/CodeSystem/v3-ObservationInterpretation"/>
                  <code value="L"/>
                  <display value="Low"/>
               </coding>
            </interpretation>
            <specimen>
               <reference value="urn:uuid:88941db4-ec0e-485d-ab26-268758064b30"/>
            </specimen>
            <referenceRange>
               <low>
                  <value value="11"/>
                  <system value="http://unitsofmeasure.org"/>
                  <code value="s"/>
               </low>
            </referenceRange>
            <referenceRange>
               <high>
                  <value value="15"/>
                  <system value="http://unitsofmeasure.org"/>
                  <code value="s"/>
               </high>
            </referenceRange>
         </Observation>
      </resource>
   </entry>
   <entry>
      <fullUrl value="urn:uuid:f8b32d57-76e1-4bab-a797-5eeb9bc4f0cc"/>
      <resource>
         <Observation>
            <id value="f8b32d57-76e1-4bab-a797-5eeb9bc4f0cc"/>
            <meta>
               <profile value="http://hl7.eu/fhir/laboratory/StructureDefinition/Observation-resultslab-eu-lab"/>
            </meta>
            <text>
               <status value="generated"/>
               <div xmlns="http://www.w3.org/1999/xhtml">
                  <table class="hl7__eu__lab__report">
                     <tr>
                        <th>Test</th>
                        <th>24-May-2017</th>
                        <th>Reference Range</th>
                        <th>Unit</th>
                     </tr>
                     <tr>
                        <td>INR in Platelet poor plasma by Coagulation assay</td>
                        <td>0.9</td>
                        <td>0.9 - 1.1</td>
                        <td/>
                        <td>{INR}</td>
                     </tr>
                  </table>
               </div>
            </text>
            <status value="final"/>
            <category>
               <coding>
                  <system value="http://terminology.hl7.org/CodeSystem/observation-category"/>
                  <code value="laboratory"/>
               </coding>
            </category>
            <code>
               <coding>
                  <system value="http://loinc.org"/>
                  <code value="6301-6"/>
                  <display value="INR in Platelet poor plasma by Coagulation assay"/>
               </coding>
               <text value="INR in Platelet poor plasma by Coagulation assay"/>
            </code>
            <subject>
               <reference value="urn:uuid:8e18686b-63fa-428b-a7b2-6cb83d070d3d"/>
               <display value="Aniela Prażmo"/>
            </subject>
            <effectiveDateTime value="2017-05-24T19:28:22Z"/>
            <performer>
               <display value="The Central European Lab"/>
            </performer>
            <valueQuantity>
               <value value="0.9"/>
               <unit value="{INR}"/>
               <system value="http://unitsofmeasure.org"/>
               <code value="{INR}"/>
            </valueQuantity>
            <specimen>
               <reference value="urn:uuid:88941db4-ec0e-485d-ab26-268758064b30"/>
            </specimen>
            <referenceRange>
               <low>
                  <value value="0.9"/>
                  <system value="http://unitsofmeasure.org"/>
                  <code value="INR"/>
               </low>
            </referenceRange>
            <referenceRange>
               <high>
                  <value value="1.1"/>
                  <system value="http://unitsofmeasure.org"/>
                  <code value="INR"/>
               </high>
            </referenceRange>
         </Observation>
      </resource>
   </entry>
   <entry>
      <fullUrl value="urn:uuid:6465aa88-97ab-4f06-9316-b776d68007dd"/>
      <resource>
         <Observation>
            <id value="6465aa88-97ab-4f06-9316-b776d68007dd"/>
            <meta>
               <profile value="http://hl7.eu/fhir/laboratory/StructureDefinition/Observation-resultslab-eu-lab"/>
            </meta>
            <text>
               <status value="generated"/>
               <div xmlns="http://www.w3.org/1999/xhtml">
                  <table class="hl7__eu__lab__report">
                     <tr>
                        <th>Test</th>
                        <th>24-May-2017</th>
                        <th>Reference Range</th>
                        <th>Unit</th>
                     </tr>
                     <tr>
                        <td>aPTT in Blood by Coagulation assay</td>
                        <td>26.8</td>
                        <td>25 - 35</td>
                        <td/>
                        <td>s</td>
                     </tr>
                  </table>
               </div>
            </text>
            <status value="final"/>
            <category>
               <coding>
                  <system value="http://terminology.hl7.org/CodeSystem/observation-category"/>
                  <code value="laboratory"/>
               </coding>
            </category>
            <code>
               <coding>
                  <system value="http://loinc.org"/>
                  <code value="3173-2"/>
                  <display value="aPTT in Blood by Coagulation assay"/>
               </coding>
               <text value="aPTT in Blood by Coagulation assay"/>
            </code>
            <subject>
               <reference value="urn:uuid:8e18686b-63fa-428b-a7b2-6cb83d070d3d"/>
               <display value="Aniela Prażmo"/>
            </subject>
            <effectiveDateTime value="2017-05-24T19:28:22Z"/>
            <performer>
               <display value="The Central European Lab"/>
            </performer>
            <valueQuantity>
               <value value="26.8"/>
               <unit value="s"/>
               <system value="http://unitsofmeasure.org"/>
               <code value="s"/>
            </valueQuantity>
            <specimen>
               <reference value="urn:uuid:4bc8b4b9-8a7d-4bf4-816c-56857ba2ea47"/>
            </specimen>
            <referenceRange>
               <low>
                  <value value="25"/>
                  <system value="http://unitsofmeasure.org"/>
                  <code value="seconds"/>
               </low>
            </referenceRange>
            <referenceRange>
               <high>
                  <value value="35"/>
                  <system value="http://unitsofmeasure.org"/>
                  <code value="seconds"/>
               </high>
            </referenceRange>
         </Observation>
      </resource>
   </entry>
   <entry>
      <fullUrl value="urn:uuid:68b54892-9a9c-40ea-9899-65c12a7aa00f"/>
      <resource>
         <Observation>
            <id value="68b54892-9a9c-40ea-9899-65c12a7aa00f"/>
            <meta>
               <profile value="http://hl7.eu/fhir/laboratory/StructureDefinition/Observation-resultslab-eu-lab"/>
            </meta>
            <text>
               <status value="generated"/>
               <div xmlns="http://www.w3.org/1999/xhtml">
                  <table class="hl7__eu__lab__report">
                     <tr>
                        <th>Test</th>
                        <th>24-May-2017</th>
                        <th>Reference Range</th>
                        <th>Unit</th>
                     </tr>
                     <tr>
                        <td>pH of Arterial blood</td>
                        <td>6.8</td>
                        <td>7.35 - 7.45</td>
                        <td>L</td>
                        <td>[pH]</td>
                     </tr>
                  </table>
               </div>
            </text>
            <status value="final"/>
            <category>
               <coding>
                  <system value="http://terminology.hl7.org/CodeSystem/observation-category"/>
                  <code value="laboratory"/>
               </coding>
            </category>
            <code>
               <coding>
                  <system value="http://loinc.org"/>
                  <code value="2744-1"/>
                  <display value="pH of Arterial blood"/>
               </coding>
               <text value="pH of Arterial blood"/>
            </code>
            <subject>
               <reference value="urn:uuid:8e18686b-63fa-428b-a7b2-6cb83d070d3d"/>
               <display value="Aniela Prażmo"/>
            </subject>
            <effectiveDateTime value="2017-05-24T19:28:22Z"/>
            <performer>
               <display value="The Central European Lab"/>
            </performer>
            <valueQuantity>
               <value value="6.8"/>
               <unit value="[pH]"/>
               <system value="http://unitsofmeasure.org"/>
               <code value="[pH]"/>
            </valueQuantity>
            <interpretation>
               <coding>
                  <system value="http://terminology.hl7.org/CodeSystem/v3-ObservationInterpretation"/>
                  <code value="L"/>
                  <display value="Low"/>
               </coding>
            </interpretation>
            <specimen>
               <reference value="urn:uuid:70deb271-951a-425d-9a62-254421f497ba"/>
            </specimen>
            <referenceRange>
               <low>
                  <value value="7.35"/>
                  <system value="http://unitsofmeasure.org"/>
                  <code value="pH"/>
               </low>
            </referenceRange>
            <referenceRange>
               <high>
                  <value value="7.45"/>
                  <system value="http://unitsofmeasure.org"/>
                  <code value="pH"/>
               </high>
            </referenceRange>
         </Observation>
      </resource>
   </entry>
   <entry>
      <fullUrl value="urn:uuid:424aca0f-5376-4d1f-ac54-688de3df2ec9"/>
      <resource>
         <Observation>
            <id value="424aca0f-5376-4d1f-ac54-688de3df2ec9"/>
            <meta>
               <profile value="http://hl7.eu/fhir/laboratory/StructureDefinition/Observation-resultslab-eu-lab"/>
            </meta>
            <text>
               <status value="generated"/>
               <div xmlns="http://www.w3.org/1999/xhtml">
                  <table class="hl7__eu__lab__report">
                     <tr>
                        <th>Test</th>
                        <th>24-May-2017</th>
                        <th>Reference Range</th>
                        <th>Unit</th>
                     </tr>
                     <tr>
                        <td>Carbon dioxide [Partial pressure] in Arterial blood</td>
                        <td>40.5</td>
                        <td>38 - 48</td>
                        <td/>
                        <td>mm[Hg]</td>
                     </tr>
                  </table>
               </div>
            </text>
            <status value="final"/>
            <category>
               <coding>
                  <system value="http://terminology.hl7.org/CodeSystem/observation-category"/>
                  <code value="laboratory"/>
               </coding>
            </category>
            <code>
               <coding>
                  <system value="http://loinc.org"/>
                  <code value="2019-8"/>
                  <display value="Carbon dioxide [Partial pressure] in Arterial blood"/>
               </coding>
               <text value="Carbon dioxide [Partial pressure] in Arterial blood"/>
            </code>
            <subject>
               <reference value="urn:uuid:8e18686b-63fa-428b-a7b2-6cb83d070d3d"/>
               <display value="Aniela Prażmo"/>
            </subject>
            <effectiveDateTime value="2017-05-24T19:28:22Z"/>
            <performer>
               <display value="The Central European Lab"/>
            </performer>
            <valueQuantity>
               <value value="40.5"/>
               <unit value="mm[Hg]"/>
               <system value="http://unitsofmeasure.org"/>
               <code value="mm[Hg]"/>
            </valueQuantity>
            <specimen>
               <reference value="urn:uuid:70deb271-951a-425d-9a62-254421f497ba"/>
            </specimen>
            <referenceRange>
               <low>
                  <value value="38"/>
                  <system value="http://unitsofmeasure.org"/>
                  <code value="mm[Hg]"/>
               </low>
            </referenceRange>
            <referenceRange>
               <high>
                  <value value="48"/>
                  <system value="http://unitsofmeasure.org"/>
                  <code value="mm[Hg]"/>
               </high>
            </referenceRange>
         </Observation>
      </resource>
   </entry>
   <entry>
      <fullUrl value="urn:uuid:17ea42bd-d92d-4479-9081-e27b4a0e5c58"/>
      <resource>
         <Observation>
            <id value="17ea42bd-d92d-4479-9081-e27b4a0e5c58"/>
            <meta>
               <profile value="http://hl7.eu/fhir/laboratory/StructureDefinition/Observation-resultslab-eu-lab"/>
            </meta>
            <text>
               <status value="generated"/>
               <div xmlns="http://www.w3.org/1999/xhtml">
                  <table class="hl7__eu__lab__report">
                     <tr>
                        <th>Test</th>
                        <th>24-May-2017</th>
                        <th>Reference Range</th>
                        <th>Unit</th>
                     </tr>
                     <tr>
                        <td>Oxygen [Partial pressure] in Arterial blood</td>
                        <td>82.3</td>
                        <td>75 - 100</td>
                        <td/>
                        <td>mm[Hg]</td>
                     </tr>
                  </table>
               </div>
            </text>
            <status value="final"/>
            <category>
               <coding>
                  <system value="http://terminology.hl7.org/CodeSystem/observation-category"/>
                  <code value="laboratory"/>
               </coding>
            </category>
            <code>
               <coding>
                  <system value="http://loinc.org"/>
                  <code value="2703-7"/>
                  <display value="Oxygen [Partial pressure] in Arterial blood"/>
               </coding>
               <text value="Oxygen [Partial pressure] in Arterial blood"/>
            </code>
            <subject>
               <reference value="urn:uuid:8e18686b-63fa-428b-a7b2-6cb83d070d3d"/>
               <display value="Aniela Prażmo"/>
            </subject>
            <effectiveDateTime value="2017-05-24T19:28:22Z"/>
            <performer>
               <display value="The Central European Lab"/>
            </performer>
            <valueQuantity>
               <value value="82.3"/>
               <unit value="mm[Hg]"/>
               <system value="http://unitsofmeasure.org"/>
               <code value="mm[Hg]"/>
            </valueQuantity>
            <specimen>
               <reference value="urn:uuid:70deb271-951a-425d-9a62-254421f497ba"/>
            </specimen>
            <referenceRange>
               <low>
                  <value value="75"/>
                  <system value="http://unitsofmeasure.org"/>
                  <code value="mm[Hg]"/>
               </low>
            </referenceRange>
            <referenceRange>
               <high>
                  <value value="100"/>
                  <system value="http://unitsofmeasure.org"/>
                  <code value="mm[Hg]"/>
               </high>
            </referenceRange>
         </Observation>
      </resource>
   </entry>
   <entry>
      <fullUrl value="urn:uuid:4e75c960-ef6d-4b4e-af16-2ab0e0a9e9cb"/>
      <resource>
         <Observation>
            <id value="4e75c960-ef6d-4b4e-af16-2ab0e0a9e9cb"/>
            <meta>
               <profile value="http://hl7.eu/fhir/laboratory/StructureDefinition/Observation-resultslab-eu-lab"/>
            </meta>
            <text>
               <status value="generated"/>
               <div xmlns="http://www.w3.org/1999/xhtml">
                  <table class="hl7__eu__lab__report">
                     <tr>
                        <th>Test</th>
                        <th>24-May-2017</th>
                        <th>Reference Range</th>
                        <th>Unit</th>
                     </tr>
                     <tr>
                        <td>Bicarbonate [Moles/volume] in Arterial blood</td>
                        <td>25.5</td>
                        <td>22 - 31</td>
                        <td/>
                        <td>mmol/L</td>
                     </tr>
                  </table>
               </div>
            </text>
            <status value="final"/>
            <category>
               <coding>
                  <system value="http://terminology.hl7.org/CodeSystem/observation-category"/>
                  <code value="laboratory"/>
               </coding>
            </category>
            <code>
               <coding>
                  <system value="http://loinc.org"/>
                  <code value="1960-4"/>
                  <display value="Bicarbonate [Moles/volume] in Arterial blood"/>
               </coding>
               <text value="Bicarbonate [Moles/volume] in Arterial blood"/>
            </code>
            <subject>
               <reference value="urn:uuid:8e18686b-63fa-428b-a7b2-6cb83d070d3d"/>
               <display value="Aniela Prażmo"/>
            </subject>
            <effectiveDateTime value="2017-05-24T19:28:22Z"/>
            <performer>
               <display value="The Central European Lab"/>
            </performer>
            <valueQuantity>
               <value value="25.5"/>
               <unit value="mmol/L"/>
               <system value="http://unitsofmeasure.org"/>
               <code value="mmol/L"/>
            </valueQuantity>
            <specimen>
               <reference value="urn:uuid:70deb271-951a-425d-9a62-254421f497ba"/>
            </specimen>
            <referenceRange>
               <low>
                  <value value="22"/>
                  <system value="http://unitsofmeasure.org"/>
                  <code value="mmol/L"/>
               </low>
            </referenceRange>
            <referenceRange>
               <high>
                  <value value="31"/>
                  <system value="http://unitsofmeasure.org"/>
                  <code value="mmol/L"/>
               </high>
            </referenceRange>
         </Observation>
      </resource>
   </entry>
   <entry>
      <fullUrl value="urn:uuid:4d0809e4-66a3-4d23-8221-bae9ddb7977b"/>
      <resource>
         <Observation>
            <id value="4d0809e4-66a3-4d23-8221-bae9ddb7977b"/>
            <meta>
               <profile value="http://hl7.eu/fhir/laboratory/StructureDefinition/Observation-resultslab-eu-lab"/>
            </meta>
            <text>
               <status value="generated"/>
               <div xmlns="http://www.w3.org/1999/xhtml">
                  <table class="hl7__eu__lab__report">
                     <tr>
                        <th>Test</th>
                        <th>24-May-2017</th>
                        <th>Reference Range</th>
                        <th>Unit</th>
                     </tr>
                     <tr>
                        <td>Oxygen saturation in Arterial blood</td>
                        <td>94.0</td>
                        <td>95 - 100</td>
                        <td>L</td>
                        <td>%</td>
                     </tr>
                  </table>
               </div>
            </text>
            <status value="final"/>
            <category>
               <coding>
                  <system value="http://terminology.hl7.org/CodeSystem/observation-category"/>
                  <code value="laboratory"/>
               </coding>
            </category>
            <code>
               <coding>
                  <system value="http://loinc.org"/>
                  <code value="2708-6"/>
                  <display value="Oxygen saturation in Arterial blood"/>
               </coding>
               <text value="Oxygen saturation in Arterial blood"/>
            </code>
            <subject>
               <reference value="urn:uuid:8e18686b-63fa-428b-a7b2-6cb83d070d3d"/>
               <display value="Aniela Prażmo"/>
            </subject>
            <effectiveDateTime value="2017-05-24T19:28:22Z"/>
            <performer>
               <display value="The Central European Lab"/>
            </performer>
            <valueQuantity>
               <value value="94"/>
               <unit value="%"/>
               <system value="http://unitsofmeasure.org"/>
               <code value="%"/>
            </valueQuantity>
            <interpretation>
               <coding>
                  <system value="http://terminology.hl7.org/CodeSystem/v3-ObservationInterpretation"/>
                  <code value="L"/>
                  <display value="Low"/>
               </coding>
            </interpretation>
            <specimen>
               <reference value="urn:uuid:70deb271-951a-425d-9a62-254421f497ba"/>
            </specimen>
            <referenceRange>
               <low>
                  <value value="95"/>
                  <system value="http://unitsofmeasure.org"/>
                  <code value="%"/>
               </low>
            </referenceRange>
            <referenceRange>
               <high>
                  <value value="100"/>
                  <system value="http://unitsofmeasure.org"/>
                  <code value="%"/>
               </high>
            </referenceRange>
         </Observation>
      </resource>
   </entry>
   <entry>
      <fullUrl value="urn:uuid:63805b19-0838-4a9e-af40-ac33c808b12c"/>
      <resource>
         <Observation>
            <id value="63805b19-0838-4a9e-af40-ac33c808b12c"/>
            <meta>
               <profile value="http://hl7.eu/fhir/laboratory/StructureDefinition/Observation-resultslab-eu-lab"/>
            </meta>
            <text>
               <status value="generated"/>
               <div xmlns="http://www.w3.org/1999/xhtml">
                  <table class="hl7__eu__lab__report">
                     <tr>
                        <th>Test</th>
                        <th>24-May-2017</th>
                        <th>Reference Range</th>
                        <th>Unit</th>
                     </tr>
                     <tr>
                        <td>Cholesterol [Mass/volume] in Serum or Plasma</td>
                        <td>299.5</td>
                        <td>130 - 200</td>
                        <td>H</td>
                        <td>mg/dL</td>
                     </tr>
                  </table>
               </div>
            </text>
            <status value="final"/>
            <category>
               <coding>
                  <system value="http://terminology.hl7.org/CodeSystem/observation-category"/>
                  <code value="laboratory"/>
               </coding>
            </category>
            <code>
               <coding>
                  <system value="http://loinc.org"/>
                  <code value="2093-3"/>
                  <display value="Cholesterol [Mass/volume] in Serum or Plasma"/>
               </coding>
               <text value="Cholesterol [Mass/volume] in Serum or Plasma"/>
            </code>
            <subject>
               <reference value="urn:uuid:8e18686b-63fa-428b-a7b2-6cb83d070d3d"/>
               <display value="Aniela Prażmo"/>
            </subject>
            <effectiveDateTime value="2017-05-24T19:28:22Z"/>
            <performer>
               <display value="The Central European Lab"/>
            </performer>
            <valueQuantity>
               <value value="299.5"/>
               <unit value="mg/dL"/>
               <system value="http://unitsofmeasure.org"/>
               <code value="mg/dL"/>
            </valueQuantity>
            <interpretation>
               <coding>
                  <system value="http://terminology.hl7.org/CodeSystem/v3-ObservationInterpretation"/>
                  <code value="H"/>
                  <display value="High"/>
               </coding>
            </interpretation>
            <specimen>
               <reference value="urn:uuid:76da85b3-5ba8-4bbc-a261-e1ef88d48e8e"/>
            </specimen>
            <referenceRange>
               <low>
                  <value value="130"/>
                  <system value="http://unitsofmeasure.org"/>
                  <code value="mg/dL"/>
               </low>
            </referenceRange>
            <referenceRange>
               <high>
                  <value value="200"/>
                  <system value="http://unitsofmeasure.org"/>
                  <code value="mg/dL"/>
               </high>
            </referenceRange>
         </Observation>
      </resource>
   </entry>
   <entry>
      <fullUrl value="urn:uuid:5a89ea79-389a-49b5-846a-f6932270536d"/>
      <resource>
         <Observation>
            <id value="5a89ea79-389a-49b5-846a-f6932270536d"/>
            <meta>
               <profile value="http://hl7.eu/fhir/laboratory/StructureDefinition/Observation-resultslab-eu-lab"/>
            </meta>
            <text>
               <status value="generated"/>
               <div xmlns="http://www.w3.org/1999/xhtml">
                  <table class="hl7__eu__lab__report">
                     <tr>
                        <th>Test</th>
                        <th>24-May-2017</th>
                        <th>Reference Range</th>
                        <th>Unit</th>
                     </tr>
                     <tr>
                        <td>Triglyceride [Mass/volume] in Serum or Plasma</td>
                        <td>140.8</td>
                        <td>0 - 199</td>
                        <td/>
                        <td>mg/dL</td>
                     </tr>
                  </table>
               </div>
            </text>
            <status value="final"/>
            <category>
               <coding>
                  <system value="http://terminology.hl7.org/CodeSystem/observation-category"/>
                  <code value="laboratory"/>
               </coding>
            </category>
            <code>
               <coding>
                  <system value="http://loinc.org"/>
                  <code value="2571-8"/>
                  <display value="Triglyceride [Mass/volume] in Serum or Plasma"/>
               </coding>
               <text value="Triglyceride [Mass/volume] in Serum or Plasma"/>
            </code>
            <subject>
               <reference value="urn:uuid:8e18686b-63fa-428b-a7b2-6cb83d070d3d"/>
               <display value="Aniela Prażmo"/>
            </subject>
            <effectiveDateTime value="2017-05-24T19:28:22Z"/>
            <performer>
               <display value="The Central European Lab"/>
            </performer>
            <valueQuantity>
               <value value="140.8"/>
               <unit value="mg/dL"/>
               <system value="http://unitsofmeasure.org"/>
               <code value="mg/dL"/>
            </valueQuantity>
            <specimen>
               <reference value="urn:uuid:76da85b3-5ba8-4bbc-a261-e1ef88d48e8e"/>
            </specimen>
            <referenceRange>
               <low>
                  <value value="0"/>
                  <system value="http://unitsofmeasure.org"/>
                  <code value="mg/dL"/>
               </low>
            </referenceRange>
            <referenceRange>
               <high>
                  <value value="199"/>
                  <system value="http://unitsofmeasure.org"/>
                  <code value="mg/dL"/>
               </high>
            </referenceRange>
         </Observation>
      </resource>
   </entry>
   <entry>
      <fullUrl value="urn:uuid:1218df40-11cb-4462-87bb-3a4a8f962b4a"/>
      <resource>
         <Observation>
            <id value="1218df40-11cb-4462-87bb-3a4a8f962b4a"/>
            <meta>
               <profile value="http://hl7.eu/fhir/laboratory/StructureDefinition/Observation-resultslab-eu-lab"/>
            </meta>
            <text>
               <status value="generated"/>
               <div xmlns="http://www.w3.org/1999/xhtml">
                  <table class="hl7__eu__lab__report">
                     <tr>
                        <th>Test</th>
                        <th>24-May-2017</th>
                        <th>Reference Range</th>
                        <th>Unit</th>
                     </tr>
                     <tr>
                        <td>Cholesterol in LDL [Mass/volume] in Serum or Plasma by Direct assay</td>
                        <td>210.5</td>
                        <td>0 - 130</td>
                        <td>H</td>
                        <td>mg/dL</td>
                     </tr>
                  </table>
               </div>
            </text>
            <status value="final"/>
            <category>
               <coding>
                  <system value="http://terminology.hl7.org/CodeSystem/observation-category"/>
                  <code value="laboratory"/>
               </coding>
            </category>
            <code>
               <coding>
                  <system value="http://loinc.org"/>
                  <code value="18262-6"/>
                  <display value="Cholesterol in LDL [Mass/volume] in Serum or Plasma by Direct assay"/>
               </coding>
               <text value="Cholesterol in LDL [Mass/volume] in Serum or Plasma by Direct assay"/>
            </code>
            <subject>
               <reference value="urn:uuid:8e18686b-63fa-428b-a7b2-6cb83d070d3d"/>
               <display value="Aniela Prażmo"/>
            </subject>
            <effectiveDateTime value="2017-05-24T19:28:22Z"/>
            <performer>
               <display value="The Central European Lab"/>
            </performer>
            <valueQuantity>
               <value value="210.5"/>
               <unit value="mg/dL"/>
               <system value="http://unitsofmeasure.org"/>
               <code value="mg/dL"/>
            </valueQuantity>
            <interpretation>
               <coding>
                  <system value="http://terminology.hl7.org/CodeSystem/v3-ObservationInterpretation"/>
                  <code value="H"/>
                  <display value="High"/>
               </coding>
            </interpretation>
            <specimen>
               <reference value="urn:uuid:76da85b3-5ba8-4bbc-a261-e1ef88d48e8e"/>
            </specimen>
            <referenceRange>
               <low>
                  <value value="0"/>
                  <system value="http://unitsofmeasure.org"/>
                  <code value="mg/dL"/>
               </low>
            </referenceRange>
            <referenceRange>
               <high>
                  <value value="130"/>
                  <system value="http://unitsofmeasure.org"/>
                  <code value="mg/dL"/>
               </high>
            </referenceRange>
         </Observation>
      </resource>
   </entry>
   <entry>
      <fullUrl value="urn:uuid:7b56734e-08db-4d0c-b9ad-365c3c0865b7"/>
      <resource>
         <Observation>
            <id value="7b56734e-08db-4d0c-b9ad-365c3c0865b7"/>
            <meta>
               <profile value="http://hl7.eu/fhir/laboratory/StructureDefinition/Observation-resultslab-eu-lab"/>
            </meta>
            <text>
               <status value="generated"/>
               <div xmlns="http://www.w3.org/1999/xhtml">
                  <table class="hl7__eu__lab__report">
                     <tr>
                        <th>Test</th>
                        <th>24-May-2017</th>
                        <th>Reference Range</th>
                        <th>Unit</th>
                     </tr>
                     <tr>
                        <td>Cholesterol in HDL [Mass/volume] in Serum or Plasma</td>
                        <td>60.9</td>
                        <td>50 - 100</td>
                        <td/>
                        <td>mg/dL</td>
                     </tr>
                  </table>
               </div>
            </text>
            <status value="final"/>
            <category>
               <coding>
                  <system value="http://terminology.hl7.org/CodeSystem/observation-category"/>
                  <code value="laboratory"/>
               </coding>
            </category>
            <code>
               <coding>
                  <system value="http://loinc.org"/>
                  <code value="2085-9"/>
                  <display value="Cholesterol in HDL [Mass/volume] in Serum or Plasma"/>
               </coding>
               <text value="Cholesterol in HDL [Mass/volume] in Serum or Plasma"/>
            </code>
            <subject>
               <reference value="urn:uuid:8e18686b-63fa-428b-a7b2-6cb83d070d3d"/>
               <display value="Aniela Prażmo"/>
            </subject>
            <effectiveDateTime value="2017-05-24T19:28:22Z"/>
            <performer>
               <display value="The Central European Lab"/>
            </performer>
            <valueQuantity>
               <value value="60.9"/>
               <unit value="mg/dL"/>
               <system value="http://unitsofmeasure.org"/>
               <code value="mg/dL"/>
            </valueQuantity>
            <specimen>
               <reference value="urn:uuid:76da85b3-5ba8-4bbc-a261-e1ef88d48e8e"/>
            </specimen>
            <referenceRange>
               <low>
                  <value value="50"/>
                  <system value="http://unitsofmeasure.org"/>
                  <code value="mg/dL"/>
               </low>
            </referenceRange>
            <referenceRange>
               <high>
                  <value value="100"/>
                  <system value="http://unitsofmeasure.org"/>
                  <code value="mg/dL"/>
               </high>
            </referenceRange>
         </Observation>
      </resource>
   </entry>
   <entry>
      <fullUrl value="urn:uuid:f3360d3b-93b5-40a7-a156-390e4c59b69e"/>
      <resource>
         <Device>
            <id value="f3360d3b-93b5-40a7-a156-390e4c59b69e"/>
            <text>
               <status value="generated"/>
               <div xmlns="http://www.w3.org/1999/xhtml">SYNDERAI Synthetic Generator v5.0</div>
            </text>
            <status value="active&#34;"/>
            <distinctIdentifier value="synderai-generator-50"/>
            <manufacturer value="SYNDERAI Project"/>
            <deviceName>
               <name value="SYNDERAI Synthetic Generator"/>
               <type value="manufacturer-name"/>
            </deviceName>
            <version>
               <value value="5.0"/>
            </version>
         </Device>
      </resource>
   </entry>
   <entry>
      <fullUrl value="urn:uuid:b8503f50-6ece-4444-8ad2-fe344bbc3576"/>
      <resource>
         <Provenance>
            <id value="b8503f50-6ece-4444-8ad2-fe344bbc3576"/>
            <text>
               <status value="generated"/>
               <div xmlns="http://www.w3.org/1999/xhtml">Provenance for SYNDERAI Synthetic Example Data Resource</div>
            </text>
            <target>
               <reference value="Patient/8e18686b-63fa-428b-a7b2-6cb83d070d3d"/>
            </target>
            <target>
               <reference value="Bundle/02fd529d-ae77-446a-9642-df455a8a765d"/>
            </target>
            <target>
               <reference value="Composition/237e75e6-f75f-42ca-9006-0a9ae41c0038"/>
            </target>
            <target>
               <reference value="PractitionerRole/57d7cb64-6b58-4b22-85a3-0b47ed1a2ab9"/>
            </target>
            <target>
               <reference value="Practitioner/f6180f63-f590-4cba-87ee-e6ea63ab9488"/>
            </target>
            <target>
               <reference value="PractitionerRole/3b8bd677-1945-471d-acf4-5a4ad8238174"/>
            </target>
            <target>
               <reference value="Organization/2904afcb-e565-490a-8c8b-c7208972d647"/>
            </target>
            <recorded value="2017-05-24T21:28:22Z"/>
            <policy value="https://synderai.net/synderai-synthetic-data-policy"/>
            <reason>
               <text value="Interoperability Testing and Training (non-clinical use)"/>
            </reason>
            <activity>
               <text value="Synthetic Example Data Generation"/>
            </activity>
            <agent>
               <type>
                  <text value="author"/>
               </type>
               <who>
                  <reference value="Device/f3360d3b-93b5-40a7-a156-390e4c59b69e"/>
               </who>
            </agent>
         </Provenance>
      </resource>
   </entry>
   <entry>
      <fullUrl value="urn:uuid:57d7cb64-6b58-4b22-85a3-0b47ed1a2ab9"/>
      <resource>
         <PractitionerRole>
            <id value="57d7cb64-6b58-4b22-85a3-0b47ed1a2ab9"/>
            <meta>
               <profile value="http://hl7.eu/fhir/base/StructureDefinition/practitionerRole-eu"/>
            </meta>
            <text>
               <status value="generated"/>
               <div xmlns="http://www.w3.org/1999/xhtml">Laboratory Role Id: 57d7cb64-6b58-4b22-85a3-0b47ed1a2ab9</div>
            </text>
            <practitioner>
               <reference value="urn:uuid:f6180f63-f590-4cba-87ee-e6ea63ab9488"/>
            </practitioner>
         </PractitionerRole>
      </resource>
   </entry>
   <entry>
      <fullUrl value="urn:uuid:f6180f63-f590-4cba-87ee-e6ea63ab9488"/>
      <resource>
         <Practitioner>
            <id value="f6180f63-f590-4cba-87ee-e6ea63ab9488"/>
            <meta>
               <profile value="http://hl7.eu/fhir/base/StructureDefinition/practitioner-eu"/>
            </meta>
            <text>
               <status value="generated"/>
               <div xmlns="http://www.w3.org/1999/xhtml">Laboratory: Laboratoire Central Européenne, 1000 Brussels, Belgium</div>
            </text>
            <identifier>
               <system value="urn:oid:2.16.840.1.113883.2.51.999"/>
               <value value="c069f0ad-f906-456e-b5a3-d346c3a04bcc"/>
               <assigner>
                  <display value="HL7 Europe"/>
               </assigner>
            </identifier>
            <name>
               <family value="Ample"/>
               <given value="Ex"/>
               <prefix value="dr"/>
            </name>
            <address>
               <line value="Laboratoire Central Européenne"/>
               <line value="Boulevard du Jardin Botanique 32"/>
               <city value="Brussels"/>
               <postalCode value="1000"/>
               <country value="Belgium"/>
            </address>
         </Practitioner>
      </resource>
   </entry>
</Bundle>