{
  "resourceType": "Bundle",
  "id": "7d0c8dac-bbe3-44a7-b8e5-a241969203ae",
  "meta": {
    "profile": [
      "http://hl7.eu/fhir/laboratory/StructureDefinition/Bundle-eu-lab"
    ]
  },
  "identifier": {
    "assigner": {
      "display": "HL7 Europe"
    },
    "system": "urn:oid:2.16.840.1.113883.2.51.999",
    "value": "76997bd4-ba9f-426a-a1c2-44bd2a02827b"
  },
  "entry": [
    {
      "fullUrl": "urn:uuid:676c1651-b576-4730-a5a0-6b6e4c7a6556",
      "resource": {
        "resourceType": "Composition",
        "id": "676c1651-b576-4730-a5a0-6b6e4c7a6556",
        "meta": {
          "profile": [
            "http://hl7.eu/fhir/laboratory/StructureDefinition/Composition-eu-lab"
          ]
        },
        "identifier": {
          "assigner": {
            "display": "HL7 Europe"
          },
          "system": "urn:oid:2.16.840.1.113883.2.51.999",
          "value": "bed9f7f0-d137-4dc8-9ed4-95f9a7ca5cc7"
        },
        "author": [
          {
            "reference": "urn:uuid:137068a4-7613-4797-87bc-b443e9824860"
          }
        ],
        "category": [
          {
            "coding": [
              {
                "code": "26436-6",
                "system": "http://loinc.org",
                "display": "Laboratory studies (set)"
              }
            ]
          }
        ],
        "type": {
          "coding": [
            {
              "code": "11502-2",
              "system": "http://loinc.org",
              "display": "Laboratory report"
            }
          ],
          "text": "Laboratory Report"
        },
        "section": [
          {
            "code": {
              "coding": [
                {
                  "code": "26436-6",
                  "system": "http://loinc.org",
                  "display": "Laboratory studies (set)"
                }
              ],
              "text": "Laboratory studies"
            },
            "section": [
              {
                "code": {
                  "coding": [
                    {
                      "code": "$18719-5",
                      "system": "http://loinc.org",
                      "display": "Chemistry studies (set)"
                    }
                  ],
                  "text": "Chemistry"
                },
                "entry": [
                  {
                    "reference": "urn:uuid:c4af578a-a918-49ff-952e-b6eba0a43f1e"
                  },
                  {
                    "reference": "urn:uuid:ea5c7604-7963-4668-8eda-0159c8a87c76"
                  },
                  {
                    "reference": "urn:uuid:96b12e57-290a-42e9-bd10-edede63b7602"
                  },
                  {
                    "reference": "urn:uuid:febbb606-d895-4544-bf4e-444496b4199e"
                  },
                  {
                    "reference": "urn:uuid:6ff1e1df-15cc-4bbd-9d7c-43512c01d93a"
                  },
                  {
                    "reference": "urn:uuid:6a9cc8f5-5af5-4824-b099-1c6cbbe33266"
                  },
                  {
                    "reference": "urn:uuid:60cee64f-b03a-4b3f-a02a-3a6fd7258588"
                  },
                  {
                    "reference": "urn:uuid:6225c40a-bcce-4203-a09f-628da7baf500"
                  },
                  {
                    "reference": "urn:uuid:963249f3-5a63-4378-ae57-80b4456aa8a8"
                  }
                ],
                "text": {
                  "status": "generated",
                  "div": "<div xmlns=\"http://www.w3.org/1999/xhtml\"><h3>Chemistry</h3><table class=\"hl7__eu__lab__report\"><thead><tr><th>Test</th><th>05-JUL-2023</th><th>Reference&#xA0;Range</th><th>Unit</th></tr></thead><tbody><tr><td>Hemoglobin A1c/Hemoglobin.total in Blood</td><td>6.0</td><td>4 - 6</td><td>%</td></tr><tr><td>Glucose [Mass/volume] in Blood</td><td>74.8</td><td>70 - 140</td><td>mg/dL</td></tr><tr><td>Urea nitrogen [Mass/volume] in Blood</td><td>11.2</td><td>7 - 50</td><td>mg/dL</td></tr><tr><td>Creatinine [Mass/volume] in Blood</td><td>0.6</td><td>0.5 - 1.3</td><td>mg/dL</td></tr><tr><td>Calcium [Mass/volume] in Blood</td><td>8.6</td><td>8.5 - 10.4</td><td>mg/dL</td></tr><tr><td>Sodium [Moles/volume] in Blood</td><td>137.3</td><td>135 - 145</td><td>mmol/L</td></tr><tr><td>Potassium [Moles/volume] in Blood</td><td>4.3</td><td>3.5 - 5.3</td><td>mmol/L</td></tr><tr><td>Chloride [Moles/volume] in Blood</td><td>102.0</td><td>98 - 110</td><td>mmol/L</td></tr><tr><td>Carbon dioxide, total [Moles/volume] in Blood</td><td>24.5</td><td>22 - 32</td><td>mmol/L</td></tr></tbody></table></div>"
                },
                "title": "Chemistry"
              }
            ],
            "title": "Laboratory Report"
          },
          {
            "text": {
              "status": "generated",
              "div": "<div xmlns=\"http://www.w3.org/1999/xhtml\"><h3>Annotation</h3><table class=\"hl7__eu__lab__report\"><tr><th>Conclusion and Recommendations based on this report and previous findings known to us</th></tr><tr><td>All measured parameters are within normal limits. HbA1c is at the upper limit of normal, suggesting good glycemic control but close monitoring is advised. Renal function, electrolytes, and metabolic parameters are unremarkable. No acute laboratory abnormalities detected.</td></tr></table></div>"
            },
            "code": {
              "coding": [
                {
                  "system": "http://loinc.org",
                  "code": "48767-8",
                  "display": "Annotation comment"
                }
              ]
            },
            "title": "Annotation comment"
          }
        ],
        "status": "final",
        "subject": {
          "reference": "urn:uuid:85603b46-5d17-4dfb-865f-5c0792afaf50",
          "display": "Jele Jurković"
        },
        "date": "2023-07-05T20:07:38Z",
        "title": "Laboratory Report",
        "confidentiality": "N"
      }
    },
    {
      "fullUrl": "urn:uuid:4d8b8a2b-18f4-4601-89f3-afe51d0072a8",
      "resource": {
        "resourceType": "DiagnosticReport",
        "id": "4d8b8a2b-18f4-4601-89f3-afe51d0072a8",
        "meta": {
          "profile": [
            "http://hl7.eu/fhir/laboratory/StructureDefinition/DiagnosticReport-eu-lab"
          ]
        },
        "identifier": [
          {
            "assigner": {
              "display": "HL7 Europe"
            },
            "system": "urn:oid:2.16.840.1.113883.2.51.999",
            "value": "7bc6001b-0e17-4e6e-8ef2-416f0ad18988"
          }
        ],
        "extension": [
          {
            "url": "http://hl7.org/fhir/5.0/StructureDefinition/extension-DiagnosticReport.composition",
            "valueReference": {
              "reference": "urn:uuid:bed9f7f0-d137-4dc8-9ed4-95f9a7ca5cc7"
            }
          }
        ],
        "category": [
          {
            "coding": [
              {
                "code": "26436-6",
                "system": "http://loinc.org",
                "display": "Laboratory studies (set)"
              }
            ]
          }
        ],
        "specimen": [
          {
            "reference": "urn:uuid:ff8c2141-7cec-4a0b-ae8e-587fc4f4c3ad"
          }
        ],
        "result": [
          {
            "reference": "urn:uuid:c4af578a-a918-49ff-952e-b6eba0a43f1e"
          },
          {
            "reference": "urn:uuid:ea5c7604-7963-4668-8eda-0159c8a87c76"
          },
          {
            "reference": "urn:uuid:96b12e57-290a-42e9-bd10-edede63b7602"
          },
          {
            "reference": "urn:uuid:febbb606-d895-4544-bf4e-444496b4199e"
          },
          {
            "reference": "urn:uuid:6ff1e1df-15cc-4bbd-9d7c-43512c01d93a"
          },
          {
            "reference": "urn:uuid:6a9cc8f5-5af5-4824-b099-1c6cbbe33266"
          },
          {
            "reference": "urn:uuid:60cee64f-b03a-4b3f-a02a-3a6fd7258588"
          },
          {
            "reference": "urn:uuid:6225c40a-bcce-4203-a09f-628da7baf500"
          },
          {
            "reference": "urn:uuid:963249f3-5a63-4378-ae57-80b4456aa8a8"
          }
        ],
        "status": "registered",
        "code": {
          "coding": [
            {
              "code": "11502-2",
              "system": "http://loinc.org",
              "display": "Laboratory report"
            }
          ]
        },
        "subject": {
          "reference": "urn:uuid:85603b46-5d17-4dfb-865f-5c0792afaf50",
          "display": "Jele Jurković"
        }
      }
    },
    {
      "fullUrl": "urn:uuid:85603b46-5d17-4dfb-865f-5c0792afaf50",
      "resource": {
        "resourceType": "Patient",
        "id": "85603b46-5d17-4dfb-865f-5c0792afaf50",
        "meta": {
          "security": [
            {
              "system": "http://terminology.hl7.org/CodeSystem/v3-ActReason",
              "code": "HTEST"
            },
            {
              "system": "http://terminology.hl7.org/CodeSystem/v3-ActReason",
              "code": "TRAIN"
            }
          ],
          "tag": [
            {
              "system": "https://synderai.net/fhir/CodeSystem/tags",
              "code": "synthetic",
              "display": "SYNDERAI Synthetic data"
            }
          ],
          "profile": [
            "http://hl7.eu/fhir/base/StructureDefinition/patient-eu-core"
          ]
        },
        "identifier": [
          {
            "type": {
              "coding": [
                {
                  "code": "PT",
                  "system": "http://terminology.hl7.org/CodeSystem/v2-0203"
                }
              ]
            },
            "system": "http://ec.europa.eu/identifier/eci",
            "value": "3583-291434-1"
          },
          {
            "type": {
              "coding": [
                {
                  "code": "MR",
                  "system": "http://terminology.hl7.org/CodeSystem/v2-0203"
                }
              ]
            },
            "system": "http://local.setting.eu/identifier",
            "value": "9d4fea2d-eece-b99f-3e16-832f0f5813f5"
          }
        ],
        "name": [
          {
            "family": "Jurković"
          },
          {
            "given": [
              "Jele"
            ]
          },
          {
            "text": "Jele Jurković"
          }
        ],
        "address": [
          {
            "line": [
              "Klesarski put 7b/8"
            ],
            "use": "home",
            "type": "physical",
            "postalCode": "34310",
            "city": "Pleternica",
            "country": "Croatia"
          }
        ],
        "telecom": [
          {
            "system": "phone",
            "value": "021 083 354"
          }
        ],
        "extension": [
          {
            "url": "http://hl7.org/fhir/StructureDefinition/patient-nationality",
            "valueCodeableConcept": {
              "coding": [
                {
                  "code": "HR",
                  "system": "http://hl7.org/fhir/ValueSet/country"
                }
              ]
            }
          }
        ],
        "text": {
          "status": "generated",
          "div": "<div xmlns=\"http://www.w3.org/1999/xhtml\"><table class=\"hl7__ips\"><tr><td>Jele Jurković</td><td>female</td><td>07-Jan-1953</td></tr></table></div>"
        },
        "gender": "female",
        "birthDate": "1953-01-07"
      }
    },
    {
      "fullUrl": "urn:uuid:3de151a0-7f7c-49b5-a8e1-c76e91bde688",
      "resource": {
        "resourceType": "ServiceRequest",
        "id": "3de151a0-7f7c-49b5-a8e1-c76e91bde688",
        "meta": {
          "profile": [
            "http://hl7.eu/fhir/laboratory/StructureDefinition/ServiceRequest-eu-lab"
          ]
        },
        "identifier": [
          {
            "system": "http://example.org",
            "value": "834151b3-17f3-4795-9151-02c4a9bf0413"
          }
        ],
        "specimen": [
          {
            "reference": "urn:uuid:ff8c2141-7cec-4a0b-ae8e-587fc4f4c3ad"
          }
        ],
        "reasonCode": [
          {
            "coding": [
              {
                "code": "64859006",
                "system": "http://snomed.info/sct",
                "display": "Osteoporosis"
              }
            ]
          },
          {
            "coding": [
              {
                "code": "6525002",
                "system": "http://snomed.info/sct",
                "display": "Dependent drug abuse"
              }
            ]
          },
          {
            "coding": [
              {
                "code": "15777000",
                "system": "http://snomed.info/sct",
                "display": "Prediabetes"
              }
            ]
          }
        ],
        "status": "active",
        "intent": "order",
        "code": {
          "coding": [
            {
              "code": "108252007",
              "system": "http://snomed.info/sct",
              "display": "Laboratory procedure"
            }
          ]
        },
        "subject": {
          "reference": "urn:uuid:85603b46-5d17-4dfb-865f-5c0792afaf50",
          "display": "Jele Jurković"
        },
        "requester": {
          "reference": "urn:uuid:847cdbd3-6ea9-43fb-a81d-602ed429bbc4"
        }
      }
    },
    {
      "fullUrl": "urn:uuid:847cdbd3-6ea9-43fb-a81d-602ed429bbc4",
      "resource": {
        "resourceType": "PractitionerRole",
        "id": "847cdbd3-6ea9-43fb-a81d-602ed429bbc4",
        "meta": {
          "profile": [
            "http://hl7.eu/fhir/base/StructureDefinition/practitionerRole-eu"
          ]
        },
        "text": {
          "status": "generated",
          "div": "<div xmlns=\"http://www.w3.org/1999/xhtml\">Provider Role Id: 847cdbd3-6ea9-43fb-a81d-602ed429bbc4</div>"
        },
        "organization": {
          "reference": "urn:uuid:ce266b8b-786a-4578-8a7c-381be014a671"
        }
      }
    },
    {
      "fullUrl": "urn:uuid:ce266b8b-786a-4578-8a7c-381be014a671",
      "resource": {
        "resourceType": "Organization",
        "id": "ce266b8b-786a-4578-8a7c-381be014a671",
        "meta": {
          "profile": [
            "http://hl7.eu/fhir/base/StructureDefinition/organization-eu"
          ]
        },
        "identifier": [
          {
            "assigner": {
              "display": "HL7 Europe"
            },
            "system": "urn:oid:2.16.840.1.113883.2.51.999",
            "value": "9bfbe428-c5ff-4db5-ac22-c122088a1dba"
          }
        ],
        "address": [
          {
            "line": [
              "Osječka ulica 107"
            ],
            "city": "Požega",
            "postalCode": "34000",
            "country": "Croatia"
          }
        ],
        "text": {
          "status": "generated",
          "div": "<div xmlns=\"http://www.w3.org/1999/xhtml\">Provider Organization: Opća županijska bolnica Požega</div>"
        },
        "name": "Opća županijska bolnica Požega"
      }
    },
    {
      "fullUrl": "urn:uuid:ff8c2141-7cec-4a0b-ae8e-587fc4f4c3ad",
      "resource": {
        "resourceType": "Specimen",
        "id": "ff8c2141-7cec-4a0b-ae8e-587fc4f4c3ad",
        "meta": {
          "profile": [
            "http://hl7.eu/fhir/laboratory/StructureDefinition/Specimen-eu-lab"
          ]
        },
        "collection": {
          "collectedDateTime": "2023-07-05"
        },
        "text": {
          "status": "generated",
          "div": "<div xmlns=\"http://www.w3.org/1999/xhtml\"><table class=\"hl7__eu__lab__report\"><tr><th>Specimen</th><th>Collection Date</th></tr><tr><td>Whole blood specimen (specimen)</td><td><span class=\"nb\">05-Jul-2023</span></td></tr></table></div>"
        },
        "type": {
          "coding": [
            {
              "code": "258580003",
              "system": "http://snomed.info/sct",
              "display": "Whole blood specimen (specimen)"
            }
          ]
        }
      }
    },
    {
      "fullUrl": "urn:uuid:c4af578a-a918-49ff-952e-b6eba0a43f1e",
      "resource": {
        "resourceType": "Observation",
        "id": "c4af578a-a918-49ff-952e-b6eba0a43f1e",
        "meta": {
          "profile": [
            "http://hl7.eu/fhir/laboratory/StructureDefinition/Observation-resultslab-eu-lab"
          ]
        },
        "performer": [
          {
            "display": "The Central European Lab"
          }
        ],
        "category": [
          {
            "coding": [
              {
                "system": "http://terminology.hl7.org/CodeSystem/observation-category",
                "code": "laboratory"
              }
            ]
          }
        ],
        "code": {
          "coding": [
            {
              "code": "4548-4",
              "system": "http://loinc.org",
              "display": "Hemoglobin A1c/Hemoglobin.total in Blood"
            }
          ],
          "text": "Hemoglobin A1c/Hemoglobin.total in Blood"
        },
        "valueQuantity": {
          "system": "http://unitsofmeasure.org",
          "value": 6,
          "unit": "%",
          "code": "%"
        },
        "referenceRange": [
          {
            "low": {
              "value": 4,
              "code": "%",
              "system": "http://unitsofmeasure.org"
            }
          },
          {
            "high": {
              "value": 6,
              "code": "%",
              "system": "http://unitsofmeasure.org"
            }
          }
        ],
        "text": {
          "status": "generated",
          "div": "<div xmlns=\"http://www.w3.org/1999/xhtml\"><table class=\"hl7__eu__lab__report\"><tr><th>Test</th><th>05-Jul-2023</th><th>Reference&#xA0;Range</th><th>Unit</th></tr><tr><td>Hemoglobin A1c/Hemoglobin.total in Blood</td><td>6.0</td><td>4 - 6</td><td></td><td>%</td></tr></table></div>"
        },
        "status": "final",
        "subject": {
          "reference": "urn:uuid:85603b46-5d17-4dfb-865f-5c0792afaf50",
          "display": "Jele Jurković"
        },
        "effectiveDateTime": "2023-07-05T18:07:38Z",
        "specimen": {
          "reference": "urn:uuid:ff8c2141-7cec-4a0b-ae8e-587fc4f4c3ad"
        }
      }
    },
    {
      "fullUrl": "urn:uuid:ea5c7604-7963-4668-8eda-0159c8a87c76",
      "resource": {
        "resourceType": "Observation",
        "id": "ea5c7604-7963-4668-8eda-0159c8a87c76",
        "meta": {
          "profile": [
            "http://hl7.eu/fhir/laboratory/StructureDefinition/Observation-resultslab-eu-lab"
          ]
        },
        "performer": [
          {
            "display": "The Central European Lab"
          }
        ],
        "category": [
          {
            "coding": [
              {
                "system": "http://terminology.hl7.org/CodeSystem/observation-category",
                "code": "laboratory"
              }
            ]
          }
        ],
        "code": {
          "coding": [
            {
              "code": "2339-0",
              "system": "http://loinc.org",
              "display": "Glucose [Mass/volume] in Blood"
            }
          ],
          "text": "Glucose [Mass/volume] in Blood"
        },
        "valueQuantity": {
          "system": "http://unitsofmeasure.org",
          "value": 74.8,
          "unit": "mg/dL",
          "code": "mg/dL"
        },
        "referenceRange": [
          {
            "low": {
              "value": 70,
              "code": "mg/dL",
              "system": "http://unitsofmeasure.org"
            }
          },
          {
            "high": {
              "value": 140,
              "code": "mg/dL",
              "system": "http://unitsofmeasure.org"
            }
          }
        ],
        "text": {
          "status": "generated",
          "div": "<div xmlns=\"http://www.w3.org/1999/xhtml\"><table class=\"hl7__eu__lab__report\"><tr><th>Test</th><th>05-Jul-2023</th><th>Reference&#xA0;Range</th><th>Unit</th></tr><tr><td>Glucose [Mass/volume] in Blood</td><td>74.8</td><td>70 - 140</td><td></td><td>mg/dL</td></tr></table></div>"
        },
        "status": "final",
        "subject": {
          "reference": "urn:uuid:85603b46-5d17-4dfb-865f-5c0792afaf50",
          "display": "Jele Jurković"
        },
        "effectiveDateTime": "2023-07-05T18:07:38Z",
        "specimen": {
          "reference": "urn:uuid:ff8c2141-7cec-4a0b-ae8e-587fc4f4c3ad"
        }
      }
    },
    {
      "fullUrl": "urn:uuid:96b12e57-290a-42e9-bd10-edede63b7602",
      "resource": {
        "resourceType": "Observation",
        "id": "96b12e57-290a-42e9-bd10-edede63b7602",
        "meta": {
          "profile": [
            "http://hl7.eu/fhir/laboratory/StructureDefinition/Observation-resultslab-eu-lab"
          ]
        },
        "performer": [
          {
            "display": "The Central European Lab"
          }
        ],
        "category": [
          {
            "coding": [
              {
                "system": "http://terminology.hl7.org/CodeSystem/observation-category",
                "code": "laboratory"
              }
            ]
          }
        ],
        "code": {
          "coding": [
            {
              "code": "6299-2",
              "system": "http://loinc.org",
              "display": "Urea nitrogen [Mass/volume] in Blood"
            }
          ],
          "text": "Urea nitrogen [Mass/volume] in Blood"
        },
        "valueQuantity": {
          "system": "http://unitsofmeasure.org",
          "value": 11.2,
          "unit": "mg/dL",
          "code": "mg/dL"
        },
        "referenceRange": [
          {
            "low": {
              "value": 7,
              "code": "mg/dL",
              "system": "http://unitsofmeasure.org"
            }
          },
          {
            "high": {
              "value": 50,
              "code": "mg/dL",
              "system": "http://unitsofmeasure.org"
            }
          }
        ],
        "text": {
          "status": "generated",
          "div": "<div xmlns=\"http://www.w3.org/1999/xhtml\"><table class=\"hl7__eu__lab__report\"><tr><th>Test</th><th>05-Jul-2023</th><th>Reference&#xA0;Range</th><th>Unit</th></tr><tr><td>Urea nitrogen [Mass/volume] in Blood</td><td>11.2</td><td>7 - 50</td><td></td><td>mg/dL</td></tr></table></div>"
        },
        "status": "final",
        "subject": {
          "reference": "urn:uuid:85603b46-5d17-4dfb-865f-5c0792afaf50",
          "display": "Jele Jurković"
        },
        "effectiveDateTime": "2023-07-05T18:07:38Z",
        "specimen": {
          "reference": "urn:uuid:ff8c2141-7cec-4a0b-ae8e-587fc4f4c3ad"
        }
      }
    },
    {
      "fullUrl": "urn:uuid:febbb606-d895-4544-bf4e-444496b4199e",
      "resource": {
        "resourceType": "Observation",
        "id": "febbb606-d895-4544-bf4e-444496b4199e",
        "meta": {
          "profile": [
            "http://hl7.eu/fhir/laboratory/StructureDefinition/Observation-resultslab-eu-lab"
          ]
        },
        "performer": [
          {
            "display": "The Central European Lab"
          }
        ],
        "category": [
          {
            "coding": [
              {
                "system": "http://terminology.hl7.org/CodeSystem/observation-category",
                "code": "laboratory"
              }
            ]
          }
        ],
        "code": {
          "coding": [
            {
              "code": "38483-4",
              "system": "http://loinc.org",
              "display": "Creatinine [Mass/volume] in Blood"
            }
          ],
          "text": "Creatinine [Mass/volume] in Blood"
        },
        "valueQuantity": {
          "system": "http://unitsofmeasure.org",
          "value": 0.6,
          "unit": "mg/dL",
          "code": "mg/dL"
        },
        "referenceRange": [
          {
            "low": {
              "value": 0.5,
              "code": "mg/dL",
              "system": "http://unitsofmeasure.org"
            }
          },
          {
            "high": {
              "value": 1.3,
              "code": "mg/dL",
              "system": "http://unitsofmeasure.org"
            }
          }
        ],
        "text": {
          "status": "generated",
          "div": "<div xmlns=\"http://www.w3.org/1999/xhtml\"><table class=\"hl7__eu__lab__report\"><tr><th>Test</th><th>05-Jul-2023</th><th>Reference&#xA0;Range</th><th>Unit</th></tr><tr><td>Creatinine [Mass/volume] in Blood</td><td>0.6</td><td>0.5 - 1.3</td><td></td><td>mg/dL</td></tr></table></div>"
        },
        "status": "final",
        "subject": {
          "reference": "urn:uuid:85603b46-5d17-4dfb-865f-5c0792afaf50",
          "display": "Jele Jurković"
        },
        "effectiveDateTime": "2023-07-05T18:07:38Z",
        "specimen": {
          "reference": "urn:uuid:ff8c2141-7cec-4a0b-ae8e-587fc4f4c3ad"
        }
      }
    },
    {
      "fullUrl": "urn:uuid:6ff1e1df-15cc-4bbd-9d7c-43512c01d93a",
      "resource": {
        "resourceType": "Observation",
        "id": "6ff1e1df-15cc-4bbd-9d7c-43512c01d93a",
        "meta": {
          "profile": [
            "http://hl7.eu/fhir/laboratory/StructureDefinition/Observation-resultslab-eu-lab"
          ]
        },
        "performer": [
          {
            "display": "The Central European Lab"
          }
        ],
        "category": [
          {
            "coding": [
              {
                "system": "http://terminology.hl7.org/CodeSystem/observation-category",
                "code": "laboratory"
              }
            ]
          }
        ],
        "code": {
          "coding": [
            {
              "code": "49765-1",
              "system": "http://loinc.org",
              "display": "Calcium [Mass/volume] in Blood"
            }
          ],
          "text": "Calcium [Mass/volume] in Blood"
        },
        "valueQuantity": {
          "system": "http://unitsofmeasure.org",
          "value": 8.6,
          "unit": "mg/dL",
          "code": "mg/dL"
        },
        "referenceRange": [
          {
            "low": {
              "value": 8.5,
              "code": "mg/dL",
              "system": "http://unitsofmeasure.org"
            }
          },
          {
            "high": {
              "value": 10.4,
              "code": "mg/dL",
              "system": "http://unitsofmeasure.org"
            }
          }
        ],
        "text": {
          "status": "generated",
          "div": "<div xmlns=\"http://www.w3.org/1999/xhtml\"><table class=\"hl7__eu__lab__report\"><tr><th>Test</th><th>05-Jul-2023</th><th>Reference&#xA0;Range</th><th>Unit</th></tr><tr><td>Calcium [Mass/volume] in Blood</td><td>8.6</td><td>8.5 - 10.4</td><td></td><td>mg/dL</td></tr></table></div>"
        },
        "status": "final",
        "subject": {
          "reference": "urn:uuid:85603b46-5d17-4dfb-865f-5c0792afaf50",
          "display": "Jele Jurković"
        },
        "effectiveDateTime": "2023-07-05T18:07:38Z",
        "specimen": {
          "reference": "urn:uuid:ff8c2141-7cec-4a0b-ae8e-587fc4f4c3ad"
        }
      }
    },
    {
      "fullUrl": "urn:uuid:6a9cc8f5-5af5-4824-b099-1c6cbbe33266",
      "resource": {
        "resourceType": "Observation",
        "id": "6a9cc8f5-5af5-4824-b099-1c6cbbe33266",
        "meta": {
          "profile": [
            "http://hl7.eu/fhir/laboratory/StructureDefinition/Observation-resultslab-eu-lab"
          ]
        },
        "performer": [
          {
            "display": "The Central European Lab"
          }
        ],
        "category": [
          {
            "coding": [
              {
                "system": "http://terminology.hl7.org/CodeSystem/observation-category",
                "code": "laboratory"
              }
            ]
          }
        ],
        "code": {
          "coding": [
            {
              "code": "2947-0",
              "system": "http://loinc.org",
              "display": "Sodium [Moles/volume] in Blood"
            }
          ],
          "text": "Sodium [Moles/volume] in Blood"
        },
        "valueQuantity": {
          "system": "http://unitsofmeasure.org",
          "value": 137.3,
          "unit": "mmol/L",
          "code": "mmol/L"
        },
        "referenceRange": [
          {
            "low": {
              "value": 135,
              "code": "mmol/L",
              "system": "http://unitsofmeasure.org"
            }
          },
          {
            "high": {
              "value": 145,
              "code": "mmol/L",
              "system": "http://unitsofmeasure.org"
            }
          }
        ],
        "text": {
          "status": "generated",
          "div": "<div xmlns=\"http://www.w3.org/1999/xhtml\"><table class=\"hl7__eu__lab__report\"><tr><th>Test</th><th>05-Jul-2023</th><th>Reference&#xA0;Range</th><th>Unit</th></tr><tr><td>Sodium [Moles/volume] in Blood</td><td>137.3</td><td>135 - 145</td><td></td><td>mmol/L</td></tr></table></div>"
        },
        "status": "final",
        "subject": {
          "reference": "urn:uuid:85603b46-5d17-4dfb-865f-5c0792afaf50",
          "display": "Jele Jurković"
        },
        "effectiveDateTime": "2023-07-05T18:07:38Z",
        "specimen": {
          "reference": "urn:uuid:ff8c2141-7cec-4a0b-ae8e-587fc4f4c3ad"
        }
      }
    },
    {
      "fullUrl": "urn:uuid:60cee64f-b03a-4b3f-a02a-3a6fd7258588",
      "resource": {
        "resourceType": "Observation",
        "id": "60cee64f-b03a-4b3f-a02a-3a6fd7258588",
        "meta": {
          "profile": [
            "http://hl7.eu/fhir/laboratory/StructureDefinition/Observation-resultslab-eu-lab"
          ]
        },
        "performer": [
          {
            "display": "The Central European Lab"
          }
        ],
        "category": [
          {
            "coding": [
              {
                "system": "http://terminology.hl7.org/CodeSystem/observation-category",
                "code": "laboratory"
              }
            ]
          }
        ],
        "code": {
          "coding": [
            {
              "code": "6298-4",
              "system": "http://loinc.org",
              "display": "Potassium [Moles/volume] in Blood"
            }
          ],
          "text": "Potassium [Moles/volume] in Blood"
        },
        "valueQuantity": {
          "system": "http://unitsofmeasure.org",
          "value": 4.3,
          "unit": "mmol/L",
          "code": "mmol/L"
        },
        "referenceRange": [
          {
            "low": {
              "value": 3.5,
              "code": "mmol/L",
              "system": "http://unitsofmeasure.org"
            }
          },
          {
            "high": {
              "value": 5.3,
              "code": "mmol/L",
              "system": "http://unitsofmeasure.org"
            }
          }
        ],
        "text": {
          "status": "generated",
          "div": "<div xmlns=\"http://www.w3.org/1999/xhtml\"><table class=\"hl7__eu__lab__report\"><tr><th>Test</th><th>05-Jul-2023</th><th>Reference&#xA0;Range</th><th>Unit</th></tr><tr><td>Potassium [Moles/volume] in Blood</td><td>4.3</td><td>3.5 - 5.3</td><td></td><td>mmol/L</td></tr></table></div>"
        },
        "status": "final",
        "subject": {
          "reference": "urn:uuid:85603b46-5d17-4dfb-865f-5c0792afaf50",
          "display": "Jele Jurković"
        },
        "effectiveDateTime": "2023-07-05T18:07:38Z",
        "specimen": {
          "reference": "urn:uuid:ff8c2141-7cec-4a0b-ae8e-587fc4f4c3ad"
        }
      }
    },
    {
      "fullUrl": "urn:uuid:6225c40a-bcce-4203-a09f-628da7baf500",
      "resource": {
        "resourceType": "Observation",
        "id": "6225c40a-bcce-4203-a09f-628da7baf500",
        "meta": {
          "profile": [
            "http://hl7.eu/fhir/laboratory/StructureDefinition/Observation-resultslab-eu-lab"
          ]
        },
        "performer": [
          {
            "display": "The Central European Lab"
          }
        ],
        "category": [
          {
            "coding": [
              {
                "system": "http://terminology.hl7.org/CodeSystem/observation-category",
                "code": "laboratory"
              }
            ]
          }
        ],
        "code": {
          "coding": [
            {
              "code": "2069-3",
              "system": "http://loinc.org",
              "display": "Chloride [Moles/volume] in Blood"
            }
          ],
          "text": "Chloride [Moles/volume] in Blood"
        },
        "valueQuantity": {
          "system": "http://unitsofmeasure.org",
          "value": 102,
          "unit": "mmol/L",
          "code": "mmol/L"
        },
        "referenceRange": [
          {
            "low": {
              "value": 98,
              "code": "mmol/L",
              "system": "http://unitsofmeasure.org"
            }
          },
          {
            "high": {
              "value": 110,
              "code": "mmol/L",
              "system": "http://unitsofmeasure.org"
            }
          }
        ],
        "text": {
          "status": "generated",
          "div": "<div xmlns=\"http://www.w3.org/1999/xhtml\"><table class=\"hl7__eu__lab__report\"><tr><th>Test</th><th>05-Jul-2023</th><th>Reference&#xA0;Range</th><th>Unit</th></tr><tr><td>Chloride [Moles/volume] in Blood</td><td>102.0</td><td>98 - 110</td><td></td><td>mmol/L</td></tr></table></div>"
        },
        "status": "final",
        "subject": {
          "reference": "urn:uuid:85603b46-5d17-4dfb-865f-5c0792afaf50",
          "display": "Jele Jurković"
        },
        "effectiveDateTime": "2023-07-05T18:07:38Z",
        "specimen": {
          "reference": "urn:uuid:ff8c2141-7cec-4a0b-ae8e-587fc4f4c3ad"
        }
      }
    },
    {
      "fullUrl": "urn:uuid:963249f3-5a63-4378-ae57-80b4456aa8a8",
      "resource": {
        "resourceType": "Observation",
        "id": "963249f3-5a63-4378-ae57-80b4456aa8a8",
        "meta": {
          "profile": [
            "http://hl7.eu/fhir/laboratory/StructureDefinition/Observation-resultslab-eu-lab"
          ]
        },
        "performer": [
          {
            "display": "The Central European Lab"
          }
        ],
        "category": [
          {
            "coding": [
              {
                "system": "http://terminology.hl7.org/CodeSystem/observation-category",
                "code": "laboratory"
              }
            ]
          }
        ],
        "code": {
          "coding": [
            {
              "code": "20565-8",
              "system": "http://loinc.org",
              "display": "Carbon dioxide, total [Moles/volume] in Blood"
            }
          ],
          "text": "Carbon dioxide, total [Moles/volume] in Blood"
        },
        "valueQuantity": {
          "system": "http://unitsofmeasure.org",
          "value": 24.5,
          "unit": "mmol/L",
          "code": "mmol/L"
        },
        "referenceRange": [
          {
            "low": {
              "value": 22,
              "code": "mmol/L",
              "system": "http://unitsofmeasure.org"
            }
          },
          {
            "high": {
              "value": 32,
              "code": "mmol/L",
              "system": "http://unitsofmeasure.org"
            }
          }
        ],
        "text": {
          "status": "generated",
          "div": "<div xmlns=\"http://www.w3.org/1999/xhtml\"><table class=\"hl7__eu__lab__report\"><tr><th>Test</th><th>05-Jul-2023</th><th>Reference&#xA0;Range</th><th>Unit</th></tr><tr><td>Carbon dioxide, total [Moles/volume] in Blood</td><td>24.5</td><td>22 - 32</td><td></td><td>mmol/L</td></tr></table></div>"
        },
        "status": "final",
        "subject": {
          "reference": "urn:uuid:85603b46-5d17-4dfb-865f-5c0792afaf50",
          "display": "Jele Jurković"
        },
        "effectiveDateTime": "2023-07-05T18:07:38Z",
        "specimen": {
          "reference": "urn:uuid:ff8c2141-7cec-4a0b-ae8e-587fc4f4c3ad"
        }
      }
    },
    {
      "fullUrl": "urn:uuid:63047f2f-6417-490f-a13c-fbadb636e9f9",
      "resource": {
        "resourceType": "Device",
        "id": "63047f2f-6417-490f-a13c-fbadb636e9f9",
        "deviceName": [
          {
            "name": "SYNDERAI Synthetic Generator",
            "type": "manufacturer-name"
          }
        ],
        "version": [
          {
            "value": "5.0"
          }
        ],
        "text": {
          "status": "generated",
          "div": "<div xmlns=\"http://www.w3.org/1999/xhtml\">SYNDERAI Synthetic Generator v5.0</div>"
        },
        "status": "active\"",
        "distinctIdentifier": "synderai-generator-50",
        "manufacturer": "SYNDERAI Project"
      }
    },
    {
      "fullUrl": "urn:uuid:43065ca8-6a39-47a6-8906-6adf68280336",
      "resource": {
        "resourceType": "Provenance",
        "id": "43065ca8-6a39-47a6-8906-6adf68280336",
        "target": [
          {
            "reference": "Patient/85603b46-5d17-4dfb-865f-5c0792afaf50"
          },
          {
            "reference": "Bundle/7d0c8dac-bbe3-44a7-b8e5-a241969203ae"
          },
          {
            "reference": "Composition/676c1651-b576-4730-a5a0-6b6e4c7a6556"
          },
          {
            "reference": "PractitionerRole/137068a4-7613-4797-87bc-b443e9824860"
          },
          {
            "reference": "Practitioner/58989d30-d930-40bd-a65b-c0cad3785086"
          },
          {
            "reference": "PractitionerRole/847cdbd3-6ea9-43fb-a81d-602ed429bbc4"
          },
          {
            "reference": "Organization/ce266b8b-786a-4578-8a7c-381be014a671"
          }
        ],
        "activity": {
          "text": "Synthetic Example Data Generation"
        },
        "policy": [
          "https://synderai.net/synderai-synthetic-data-policy"
        ],
        "agent": [
          {
            "type": {
              "text": "author"
            },
            "who": {
              "reference": "Device/63047f2f-6417-490f-a13c-fbadb636e9f9"
            }
          }
        ],
        "reason": [
          {
            "text": "Interoperability Testing and Training (non-clinical use)"
          }
        ],
        "text": {
          "status": "generated",
          "div": "<div xmlns=\"http://www.w3.org/1999/xhtml\">Provenance for SYNDERAI Synthetic Example Data Resource</div>"
        },
        "recorded": "2023-07-05T20:07:38Z"
      }
    },
    {
      "fullUrl": "urn:uuid:137068a4-7613-4797-87bc-b443e9824860",
      "resource": {
        "resourceType": "PractitionerRole",
        "id": "137068a4-7613-4797-87bc-b443e9824860",
        "meta": {
          "profile": [
            "http://hl7.eu/fhir/base/StructureDefinition/practitionerRole-eu"
          ]
        },
        "text": {
          "status": "generated",
          "div": "<div xmlns=\"http://www.w3.org/1999/xhtml\">Laboratory Role Id: 137068a4-7613-4797-87bc-b443e9824860</div>"
        },
        "practitioner": {
          "reference": "urn:uuid:58989d30-d930-40bd-a65b-c0cad3785086"
        }
      }
    },
    {
      "fullUrl": "urn:uuid:58989d30-d930-40bd-a65b-c0cad3785086",
      "resource": {
        "resourceType": "Practitioner",
        "id": "58989d30-d930-40bd-a65b-c0cad3785086",
        "meta": {
          "profile": [
            "http://hl7.eu/fhir/base/StructureDefinition/practitioner-eu"
          ]
        },
        "identifier": [
          {
            "assigner": {
              "display": "HL7 Europe"
            },
            "system": "urn:oid:2.16.840.1.113883.2.51.999",
            "value": "275b47fa-65e2-442d-b2ad-7f3f3712fa3a"
          }
        ],
        "name": [
          {
            "prefix": [
              "dr"
            ],
            "given": [
              "Ex"
            ],
            "family": "Ample"
          }
        ],
        "address": [
          {
            "line": [
              "Laboratoire Central Européenne",
              "Boulevard du Jardin Botanique 32"
            ],
            "postalCode": "1000",
            "city": "Brussels",
            "country": "Belgium"
          }
        ],
        "text": {
          "status": "generated",
          "div": "<div xmlns=\"http://www.w3.org/1999/xhtml\">Laboratory: Laboratoire Central Européenne, 1000 Brussels, Belgium</div>"
        }
      }
    }
  ],
  "type": "document",
  "timestamp": "2023-07-05T20:07:38Z"
}
