{
  "resourceType": "Bundle",
  "id": "2200728f-bed1-4203-a194-4f6cac596ba1",
  "meta": {
    "profile": [
      "http://hl7.eu/fhir/laboratory/StructureDefinition/Bundle-eu-lab"
    ]
  },
  "identifier": {
    "assigner": {
      "display": "HL7 Europe"
    },
    "system": "urn:oid:2.16.840.1.113883.2.51.999",
    "value": "cf01d298-b7e7-451e-a4ea-de388e2a5232"
  },
  "entry": [
    {
      "fullUrl": "urn:uuid:e6402e39-ad9f-4882-b555-2cf619bc6224",
      "resource": {
        "resourceType": "Composition",
        "id": "e6402e39-ad9f-4882-b555-2cf619bc6224",
        "meta": {
          "profile": [
            "http://hl7.eu/fhir/laboratory/StructureDefinition/Composition-eu-lab"
          ]
        },
        "identifier": {
          "assigner": {
            "display": "HL7 Europe"
          },
          "system": "urn:oid:2.16.840.1.113883.2.51.999",
          "value": "6fe9498a-24ec-4846-9371-a229b4d90330"
        },
        "author": [
          {
            "reference": "urn:uuid:df1c4672-1906-4418-883e-2c5f0484121f"
          }
        ],
        "category": [
          {
            "coding": [
              {
                "code": "26436-6",
                "system": "http://loinc.org",
                "display": "Laboratory studies (set)"
              }
            ]
          }
        ],
        "type": {
          "coding": [
            {
              "code": "11502-2",
              "system": "http://loinc.org",
              "display": "Laboratory report"
            }
          ],
          "text": "Laboratory Report"
        },
        "section": [
          {
            "code": {
              "coding": [
                {
                  "code": "26436-6",
                  "system": "http://loinc.org",
                  "display": "Laboratory studies (set)"
                }
              ],
              "text": "Laboratory studies"
            },
            "section": [
              {
                "code": {
                  "coding": [
                    {
                      "code": "$18723-7",
                      "system": "http://loinc.org",
                      "display": "Hematology studies (set)"
                    }
                  ],
                  "text": "Hematology"
                },
                "entry": [
                  {
                    "reference": "urn:uuid:bb1b8c36-dbf9-40c2-b622-845c0b84ce64"
                  },
                  {
                    "reference": "urn:uuid:9c9379f9-3b47-4ae0-8c5b-edaf282f7365"
                  },
                  {
                    "reference": "urn:uuid:ee4d0c8c-6544-4d49-8354-ba25ca2bb250"
                  },
                  {
                    "reference": "urn:uuid:757b5541-7dc9-480e-911b-db8ebf303d09"
                  },
                  {
                    "reference": "urn:uuid:fe10b3dd-6c9d-4240-a509-e97805a871cb"
                  },
                  {
                    "reference": "urn:uuid:2950f44c-f98c-43d2-b700-f3e6bf597fa7"
                  },
                  {
                    "reference": "urn:uuid:7442fce9-fae3-49d6-90fc-5c9f73d8bafb"
                  },
                  {
                    "reference": "urn:uuid:f00385ea-e266-4e5c-8207-d2702adb4029"
                  },
                  {
                    "reference": "urn:uuid:a02abe92-995d-4caa-87c1-d3fca864e53e"
                  },
                  {
                    "reference": "urn:uuid:4e0ae783-b47a-4ac8-8c26-e9c77e34ec54"
                  },
                  {
                    "reference": "urn:uuid:784b35ca-3f5b-4b83-9b2d-36198d81a5e8"
                  }
                ],
                "text": {
                  "status": "generated",
                  "div": "<div xmlns=\"http://www.w3.org/1999/xhtml\"><h3>Hematology</h3><table class=\"hl7__eu__lab__report\"><thead><tr><th>Test</th><th>11-NOV-2020</th><th>Reference&#xA0;Range</th><th>Unit</th></tr></thead><tbody><tr><td>Leukocytes [#/volume] in Blood by Automated count</td><td><strong>14.6 H</strong></td><td>4 - 11</td><td>10*3/uL</td></tr><tr><td>Erythrocytes [#/volume] in Blood by Automated count</td><td><strong>4.2 L</strong></td><td>4.3 - 6.1</td><td>10*6/uL</td></tr><tr><td>Hemoglobin [Mass/volume] in Blood</td><td><strong>13.3 L</strong></td><td>13.5 - 17.5</td><td>g/dL</td></tr><tr><td>Hematocrit [Volume Fraction] of Blood by Automated count</td><td>41.3</td><td>37 - 52</td><td>%</td></tr><tr><td>MCV [Entitic volume] by Automated count</td><td>89.3</td><td>76 - 98</td><td>fL</td></tr><tr><td>MCH [Entitic mass] by Automated count</td><td>29.3</td><td>27 - 34</td><td>pg</td></tr><tr><td>MCHC [Mass/volume] by Automated count</td><td>33.3</td><td>31 - 36</td><td>g/dL</td></tr><tr><td>Erythrocyte distribution width [Entitic volume] by Automated count</td><td>44.2</td><td>39 - 55</td><td>fL</td></tr><tr><td>Platelets [#/volume] in Blood by Automated count</td><td>348.6</td><td>140 - 424</td><td>10*3/uL</td></tr><tr><td>Platelet distribution width [Entitic volume] in Blood by Automated count</td><td><strong>242.0 H</strong></td><td>13.4 - 17.4</td><td>fL</td></tr><tr><td>Platelet mean volume [Entitic volume] in Blood by Automated count</td><td>9.6</td><td>7.2 - 13.8</td><td>fL</td></tr></tbody></table></div>"
                },
                "title": "Hematology"
              }
            ],
            "title": "Laboratory Report"
          },
          {
            "text": {
              "status": "generated",
              "div": "<div xmlns=\"http://www.w3.org/1999/xhtml\"><h3>Annotation</h3><table class=\"hl7__eu__lab__report\"><tr><th>Conclusion and Recommendations based on this report and previous findings known to us</th></tr><tr><td>The patient shows leukocytosis, mild anemia (low erythrocytes and hemoglobin), and a markedly elevated platelet distribution width. These findings may indicate an ongoing inflammatory or infectious process and possible bone marrow response. Correlation with clinical context and further evaluation for infection, inflammation, or hematologic disorders is recommended.</td></tr></table></div>"
            },
            "code": {
              "coding": [
                {
                  "system": "http://loinc.org",
                  "code": "48767-8",
                  "display": "Annotation comment"
                }
              ]
            },
            "title": "Annotation comment"
          }
        ],
        "status": "final",
        "subject": {
          "reference": "urn:uuid:83e89610-6ef9-4e0a-b079-64a9a5dbb251",
          "display": "Lazăr Florea"
        },
        "date": "2020-11-11T07:09:07Z",
        "title": "Laboratory Report",
        "confidentiality": "N"
      }
    },
    {
      "fullUrl": "urn:uuid:694bfeff-a9bd-4b61-9a93-8064ced89ad6",
      "resource": {
        "resourceType": "DiagnosticReport",
        "id": "694bfeff-a9bd-4b61-9a93-8064ced89ad6",
        "meta": {
          "profile": [
            "http://hl7.eu/fhir/laboratory/StructureDefinition/DiagnosticReport-eu-lab"
          ]
        },
        "identifier": [
          {
            "assigner": {
              "display": "HL7 Europe"
            },
            "system": "urn:oid:2.16.840.1.113883.2.51.999",
            "value": "dd8a96c9-06e3-4729-b7d3-22c2e9c150e7"
          }
        ],
        "extension": [
          {
            "url": "http://hl7.org/fhir/5.0/StructureDefinition/extension-DiagnosticReport.composition",
            "valueReference": {
              "reference": "urn:uuid:6fe9498a-24ec-4846-9371-a229b4d90330"
            }
          }
        ],
        "category": [
          {
            "coding": [
              {
                "code": "26436-6",
                "system": "http://loinc.org",
                "display": "Laboratory studies (set)"
              }
            ]
          }
        ],
        "specimen": [
          {
            "reference": "urn:uuid:ffbacdd9-c0ce-4ab9-8e3f-c7725295bd7a"
          },
          {
            "reference": "urn:uuid:ffbacdd9-c0ce-4ab9-8e3f-c7725295bd7a"
          }
        ],
        "result": [
          {
            "reference": "urn:uuid:bb1b8c36-dbf9-40c2-b622-845c0b84ce64"
          },
          {
            "reference": "urn:uuid:9c9379f9-3b47-4ae0-8c5b-edaf282f7365"
          },
          {
            "reference": "urn:uuid:ee4d0c8c-6544-4d49-8354-ba25ca2bb250"
          },
          {
            "reference": "urn:uuid:757b5541-7dc9-480e-911b-db8ebf303d09"
          },
          {
            "reference": "urn:uuid:fe10b3dd-6c9d-4240-a509-e97805a871cb"
          },
          {
            "reference": "urn:uuid:2950f44c-f98c-43d2-b700-f3e6bf597fa7"
          },
          {
            "reference": "urn:uuid:7442fce9-fae3-49d6-90fc-5c9f73d8bafb"
          },
          {
            "reference": "urn:uuid:f00385ea-e266-4e5c-8207-d2702adb4029"
          },
          {
            "reference": "urn:uuid:a02abe92-995d-4caa-87c1-d3fca864e53e"
          },
          {
            "reference": "urn:uuid:4e0ae783-b47a-4ac8-8c26-e9c77e34ec54"
          },
          {
            "reference": "urn:uuid:784b35ca-3f5b-4b83-9b2d-36198d81a5e8"
          }
        ],
        "status": "registered",
        "code": {
          "coding": [
            {
              "code": "11502-2",
              "system": "http://loinc.org",
              "display": "Laboratory report"
            }
          ]
        },
        "subject": {
          "reference": "urn:uuid:83e89610-6ef9-4e0a-b079-64a9a5dbb251",
          "display": "Lazăr Florea"
        }
      }
    },
    {
      "fullUrl": "urn:uuid:83e89610-6ef9-4e0a-b079-64a9a5dbb251",
      "resource": {
        "resourceType": "Patient",
        "id": "83e89610-6ef9-4e0a-b079-64a9a5dbb251",
        "meta": {
          "security": [
            {
              "system": "http://terminology.hl7.org/CodeSystem/v3-ActReason",
              "code": "HTEST"
            },
            {
              "system": "http://terminology.hl7.org/CodeSystem/v3-ActReason",
              "code": "TRAIN"
            }
          ],
          "tag": [
            {
              "system": "https://synderai.net/fhir/CodeSystem/tags",
              "code": "synthetic",
              "display": "SYNDERAI Synthetic data"
            }
          ],
          "profile": [
            "http://hl7.eu/fhir/base/StructureDefinition/patient-eu-core"
          ]
        },
        "identifier": [
          {
            "type": {
              "coding": [
                {
                  "code": "PT",
                  "system": "http://terminology.hl7.org/CodeSystem/v2-0203"
                }
              ]
            },
            "system": "http://ec.europa.eu/identifier/eci",
            "value": "8693-862290-8"
          },
          {
            "type": {
              "coding": [
                {
                  "code": "MR",
                  "system": "http://terminology.hl7.org/CodeSystem/v2-0203"
                }
              ]
            },
            "system": "http://local.setting.eu/identifier",
            "value": "602fbbf5-967b-6d86-a533-5cec24b13e71"
          }
        ],
        "name": [
          {
            "family": "Florea"
          },
          {
            "given": [
              "Lazăr"
            ]
          },
          {
            "text": "Lazăr Florea"
          }
        ],
        "address": [
          {
            "line": [
              "Drumul Grațian Nistor"
            ],
            "use": "home",
            "type": "physical",
            "postalCode": "265300",
            "city": "Lupeni",
            "country": "Romania"
          }
        ],
        "telecom": [
          {
            "system": "phone",
            "value": "0753 950 380"
          }
        ],
        "extension": [
          {
            "url": "http://hl7.org/fhir/StructureDefinition/patient-nationality",
            "valueCodeableConcept": {
              "coding": [
                {
                  "code": "RO",
                  "system": "http://hl7.org/fhir/ValueSet/country"
                }
              ]
            }
          }
        ],
        "text": {
          "status": "generated",
          "div": "<div xmlns=\"http://www.w3.org/1999/xhtml\"><table class=\"hl7__ips\"><tr><td>Lazăr Florea</td><td>male</td><td>10-Feb-1946</td></tr></table></div>"
        },
        "gender": "male",
        "birthDate": "1946-02-10"
      }
    },
    {
      "fullUrl": "urn:uuid:6e507ad3-0d7a-4f51-b6aa-9175205e4ae6",
      "resource": {
        "resourceType": "ServiceRequest",
        "id": "6e507ad3-0d7a-4f51-b6aa-9175205e4ae6",
        "meta": {
          "profile": [
            "http://hl7.eu/fhir/laboratory/StructureDefinition/ServiceRequest-eu-lab"
          ]
        },
        "identifier": [
          {
            "system": "http://example.org",
            "value": "abc60690-b4fc-4953-a747-934fd49e3a1c"
          }
        ],
        "specimen": [
          {
            "reference": "urn:uuid:ffbacdd9-c0ce-4ab9-8e3f-c7725295bd7a"
          }
        ],
        "reasonCode": [
          {
            "coding": [
              {
                "code": "197927001",
                "system": "http://snomed.info/sct",
                "display": "Recurrent urinary tract infection"
              }
            ]
          },
          {
            "coding": [
              {
                "code": "414545008",
                "system": "http://snomed.info/sct",
                "display": "Ischemic heart disease"
              }
            ]
          },
          {
            "coding": [
              {
                "code": "237602007",
                "system": "http://snomed.info/sct",
                "display": "Metabolic syndrome X"
              }
            ]
          },
          {
            "coding": [
              {
                "code": "271737000",
                "system": "http://snomed.info/sct",
                "display": "Anemia"
              }
            ]
          },
          {
            "coding": [
              {
                "code": "15777000",
                "system": "http://snomed.info/sct",
                "display": "Prediabetes"
              }
            ]
          },
          {
            "coding": [
              {
                "code": "59621000",
                "system": "http://snomed.info/sct",
                "display": "Essential hypertension"
              }
            ]
          },
          {
            "coding": [
              {
                "code": "40055000",
                "system": "http://snomed.info/sct",
                "display": "Chronic sinusitis"
              }
            ]
          }
        ],
        "status": "active",
        "intent": "order",
        "code": {
          "coding": [
            {
              "code": "108252007",
              "system": "http://snomed.info/sct",
              "display": "Laboratory procedure"
            }
          ]
        },
        "subject": {
          "reference": "urn:uuid:83e89610-6ef9-4e0a-b079-64a9a5dbb251",
          "display": "Lazăr Florea"
        },
        "requester": {
          "reference": "urn:uuid:53929e54-c829-40f6-adb5-b57fbf37e4a0"
        }
      }
    },
    {
      "fullUrl": "urn:uuid:53929e54-c829-40f6-adb5-b57fbf37e4a0",
      "resource": {
        "resourceType": "PractitionerRole",
        "id": "53929e54-c829-40f6-adb5-b57fbf37e4a0",
        "meta": {
          "profile": [
            "http://hl7.eu/fhir/base/StructureDefinition/practitionerRole-eu"
          ]
        },
        "text": {
          "status": "generated",
          "div": "<div xmlns=\"http://www.w3.org/1999/xhtml\">Provider Role Id: 53929e54-c829-40f6-adb5-b57fbf37e4a0</div>"
        },
        "organization": {
          "reference": "urn:uuid:0bb7e330-09ad-4aff-8186-31e69469eb2b"
        }
      }
    },
    {
      "fullUrl": "urn:uuid:0bb7e330-09ad-4aff-8186-31e69469eb2b",
      "resource": {
        "resourceType": "Organization",
        "id": "0bb7e330-09ad-4aff-8186-31e69469eb2b",
        "meta": {
          "profile": [
            "http://hl7.eu/fhir/base/StructureDefinition/organization-eu"
          ]
        },
        "identifier": [
          {
            "assigner": {
              "display": "HL7 Europe"
            },
            "system": "urn:oid:2.16.840.1.113883.2.51.999",
            "value": "7f377e21-478f-49b6-b9c5-56011e98c58b"
          }
        ],
        "address": [
          {
            "line": [
              "Strada 1 Decembrie 1918 137 A"
            ],
            "city": "Petroșani",
            "postalCode": "332019",
            "country": "Romania"
          }
        ],
        "text": {
          "status": "generated",
          "div": "<div xmlns=\"http://www.w3.org/1999/xhtml\">Provider Organization: Spitalul de Urgență</div>"
        },
        "name": "Spitalul de Urgență"
      }
    },
    {
      "fullUrl": "urn:uuid:ffbacdd9-c0ce-4ab9-8e3f-c7725295bd7a",
      "resource": {
        "resourceType": "Specimen",
        "id": "ffbacdd9-c0ce-4ab9-8e3f-c7725295bd7a",
        "meta": {
          "profile": [
            "http://hl7.eu/fhir/laboratory/StructureDefinition/Specimen-eu-lab"
          ]
        },
        "collection": {
          "collectedDateTime": "2020-11-11"
        },
        "text": {
          "status": "generated",
          "div": "<div xmlns=\"http://www.w3.org/1999/xhtml\"><table class=\"hl7__eu__lab__report\"><tr><th>Specimen</th><th>Collection Date</th></tr><tr><td>Whole blood specimen (specimen)</td><td><span class=\"nb\">11-Nov-2020</span></td></tr></table></div>"
        },
        "type": {
          "coding": [
            {
              "code": "258580003",
              "system": "http://snomed.info/sct",
              "display": "Whole blood specimen (specimen)"
            }
          ]
        }
      }
    },
    {
      "fullUrl": "urn:uuid:ffbacdd9-c0ce-4ab9-8e3f-c7725295bd7a",
      "resource": {
        "resourceType": "Specimen",
        "id": "ffbacdd9-c0ce-4ab9-8e3f-c7725295bd7a",
        "meta": {
          "profile": [
            "http://hl7.eu/fhir/laboratory/StructureDefinition/Specimen-eu-lab"
          ]
        },
        "collection": {
          "collectedDateTime": "2020-11-11"
        },
        "text": {
          "status": "generated",
          "div": "<div xmlns=\"http://www.w3.org/1999/xhtml\"><table class=\"hl7__eu__lab__report\"><tr><th>Specimen</th><th>Collection Date</th></tr><tr><td>Whole blood specimen (specimen)</td><td><span class=\"nb\">11-Nov-2020</span></td></tr></table></div>"
        },
        "type": {
          "coding": [
            {
              "code": "258580003",
              "system": "http://snomed.info/sct",
              "display": "Whole blood specimen (specimen)"
            }
          ]
        }
      }
    },
    {
      "fullUrl": "urn:uuid:bb1b8c36-dbf9-40c2-b622-845c0b84ce64",
      "resource": {
        "resourceType": "Observation",
        "id": "bb1b8c36-dbf9-40c2-b622-845c0b84ce64",
        "meta": {
          "profile": [
            "http://hl7.eu/fhir/laboratory/StructureDefinition/Observation-resultslab-eu-lab"
          ]
        },
        "performer": [
          {
            "display": "The Central European Lab"
          }
        ],
        "category": [
          {
            "coding": [
              {
                "system": "http://terminology.hl7.org/CodeSystem/observation-category",
                "code": "laboratory"
              }
            ]
          }
        ],
        "code": {
          "coding": [
            {
              "code": "6690-2",
              "system": "http://loinc.org",
              "display": "Leukocytes [#/volume] in Blood by Automated count"
            }
          ],
          "text": "Leukocytes [#/volume] in Blood by Automated count"
        },
        "valueQuantity": {
          "system": "http://unitsofmeasure.org",
          "value": 14.6,
          "unit": "10*3/uL",
          "code": "10*3/uL"
        },
        "referenceRange": [
          {
            "low": {
              "value": 4,
              "code": "10*3/uL",
              "system": "http://unitsofmeasure.org"
            }
          },
          {
            "high": {
              "value": 11,
              "code": "10*3/uL",
              "system": "http://unitsofmeasure.org"
            }
          }
        ],
        "interpretation": [
          {
            "coding": [
              {
                "code": "H",
                "system": "http://terminology.hl7.org/CodeSystem/v3-ObservationInterpretation",
                "display": "High"
              }
            ]
          }
        ],
        "text": {
          "status": "generated",
          "div": "<div xmlns=\"http://www.w3.org/1999/xhtml\"><table class=\"hl7__eu__lab__report\"><tr><th>Test</th><th>11-Nov-2020</th><th>Reference&#xA0;Range</th><th>Unit</th></tr><tr><td>Leukocytes [#/volume] in Blood by Automated count</td><td>14.6</td><td>4 - 11</td><td>H</td><td>10*3/uL</td></tr></table></div>"
        },
        "status": "final",
        "subject": {
          "reference": "urn:uuid:83e89610-6ef9-4e0a-b079-64a9a5dbb251",
          "display": "Lazăr Florea"
        },
        "effectiveDateTime": "2020-11-11T06:09:07Z",
        "specimen": {
          "reference": "urn:uuid:ffbacdd9-c0ce-4ab9-8e3f-c7725295bd7a"
        }
      }
    },
    {
      "fullUrl": "urn:uuid:9c9379f9-3b47-4ae0-8c5b-edaf282f7365",
      "resource": {
        "resourceType": "Observation",
        "id": "9c9379f9-3b47-4ae0-8c5b-edaf282f7365",
        "meta": {
          "profile": [
            "http://hl7.eu/fhir/laboratory/StructureDefinition/Observation-resultslab-eu-lab"
          ]
        },
        "performer": [
          {
            "display": "The Central European Lab"
          }
        ],
        "category": [
          {
            "coding": [
              {
                "system": "http://terminology.hl7.org/CodeSystem/observation-category",
                "code": "laboratory"
              }
            ]
          }
        ],
        "code": {
          "coding": [
            {
              "code": "789-8",
              "system": "http://loinc.org",
              "display": "Erythrocytes [#/volume] in Blood by Automated count"
            }
          ],
          "text": "Erythrocytes [#/volume] in Blood by Automated count"
        },
        "valueQuantity": {
          "system": "http://unitsofmeasure.org",
          "value": 4.2,
          "unit": "10*6/uL",
          "code": "10*6/uL"
        },
        "referenceRange": [
          {
            "low": {
              "value": 4.3,
              "code": "10*6/uL",
              "system": "http://unitsofmeasure.org"
            }
          },
          {
            "high": {
              "value": 6.1,
              "code": "10*6/uL",
              "system": "http://unitsofmeasure.org"
            }
          }
        ],
        "interpretation": [
          {
            "coding": [
              {
                "code": "L",
                "system": "http://terminology.hl7.org/CodeSystem/v3-ObservationInterpretation",
                "display": "Low"
              }
            ]
          }
        ],
        "text": {
          "status": "generated",
          "div": "<div xmlns=\"http://www.w3.org/1999/xhtml\"><table class=\"hl7__eu__lab__report\"><tr><th>Test</th><th>11-Nov-2020</th><th>Reference&#xA0;Range</th><th>Unit</th></tr><tr><td>Erythrocytes [#/volume] in Blood by Automated count</td><td>4.2</td><td>4.3 - 6.1</td><td>L</td><td>10*6/uL</td></tr></table></div>"
        },
        "status": "final",
        "subject": {
          "reference": "urn:uuid:83e89610-6ef9-4e0a-b079-64a9a5dbb251",
          "display": "Lazăr Florea"
        },
        "effectiveDateTime": "2020-11-11T06:09:07Z",
        "specimen": {
          "reference": "urn:uuid:ffbacdd9-c0ce-4ab9-8e3f-c7725295bd7a"
        }
      }
    },
    {
      "fullUrl": "urn:uuid:ee4d0c8c-6544-4d49-8354-ba25ca2bb250",
      "resource": {
        "resourceType": "Observation",
        "id": "ee4d0c8c-6544-4d49-8354-ba25ca2bb250",
        "meta": {
          "profile": [
            "http://hl7.eu/fhir/laboratory/StructureDefinition/Observation-resultslab-eu-lab"
          ]
        },
        "performer": [
          {
            "display": "The Central European Lab"
          }
        ],
        "category": [
          {
            "coding": [
              {
                "system": "http://terminology.hl7.org/CodeSystem/observation-category",
                "code": "laboratory"
              }
            ]
          }
        ],
        "code": {
          "coding": [
            {
              "code": "718-7",
              "system": "http://loinc.org",
              "display": "Hemoglobin [Mass/volume] in Blood"
            }
          ],
          "text": "Hemoglobin [Mass/volume] in Blood"
        },
        "valueQuantity": {
          "system": "http://unitsofmeasure.org",
          "value": 13.3,
          "unit": "g/dL",
          "code": "g/dL"
        },
        "referenceRange": [
          {
            "low": {
              "value": 13.5,
              "code": "g/dL",
              "system": "http://unitsofmeasure.org"
            }
          },
          {
            "high": {
              "value": 17.5,
              "code": "g/dL",
              "system": "http://unitsofmeasure.org"
            }
          }
        ],
        "interpretation": [
          {
            "coding": [
              {
                "code": "L",
                "system": "http://terminology.hl7.org/CodeSystem/v3-ObservationInterpretation",
                "display": "Low"
              }
            ]
          }
        ],
        "text": {
          "status": "generated",
          "div": "<div xmlns=\"http://www.w3.org/1999/xhtml\"><table class=\"hl7__eu__lab__report\"><tr><th>Test</th><th>11-Nov-2020</th><th>Reference&#xA0;Range</th><th>Unit</th></tr><tr><td>Hemoglobin [Mass/volume] in Blood</td><td>13.3</td><td>13.5 - 17.5</td><td>L</td><td>g/dL</td></tr></table></div>"
        },
        "status": "final",
        "subject": {
          "reference": "urn:uuid:83e89610-6ef9-4e0a-b079-64a9a5dbb251",
          "display": "Lazăr Florea"
        },
        "effectiveDateTime": "2020-11-11T06:09:07Z",
        "specimen": {
          "reference": "urn:uuid:ffbacdd9-c0ce-4ab9-8e3f-c7725295bd7a"
        }
      }
    },
    {
      "fullUrl": "urn:uuid:757b5541-7dc9-480e-911b-db8ebf303d09",
      "resource": {
        "resourceType": "Observation",
        "id": "757b5541-7dc9-480e-911b-db8ebf303d09",
        "meta": {
          "profile": [
            "http://hl7.eu/fhir/laboratory/StructureDefinition/Observation-resultslab-eu-lab"
          ]
        },
        "performer": [
          {
            "display": "The Central European Lab"
          }
        ],
        "category": [
          {
            "coding": [
              {
                "system": "http://terminology.hl7.org/CodeSystem/observation-category",
                "code": "laboratory"
              }
            ]
          }
        ],
        "code": {
          "coding": [
            {
              "code": "4544-3",
              "system": "http://loinc.org",
              "display": "Hematocrit [Volume Fraction] of Blood by Automated count"
            }
          ],
          "text": "Hematocrit [Volume Fraction] of Blood by Automated count"
        },
        "valueQuantity": {
          "system": "http://unitsofmeasure.org",
          "value": 41.3,
          "unit": "%",
          "code": "%"
        },
        "referenceRange": [
          {
            "low": {
              "value": 37,
              "code": "%",
              "system": "http://unitsofmeasure.org"
            }
          },
          {
            "high": {
              "value": 52,
              "code": "%",
              "system": "http://unitsofmeasure.org"
            }
          }
        ],
        "text": {
          "status": "generated",
          "div": "<div xmlns=\"http://www.w3.org/1999/xhtml\"><table class=\"hl7__eu__lab__report\"><tr><th>Test</th><th>11-Nov-2020</th><th>Reference&#xA0;Range</th><th>Unit</th></tr><tr><td>Hematocrit [Volume Fraction] of Blood by Automated count</td><td>41.3</td><td>37 - 52</td><td></td><td>%</td></tr></table></div>"
        },
        "status": "final",
        "subject": {
          "reference": "urn:uuid:83e89610-6ef9-4e0a-b079-64a9a5dbb251",
          "display": "Lazăr Florea"
        },
        "effectiveDateTime": "2020-11-11T06:09:07Z",
        "specimen": {
          "reference": "urn:uuid:ffbacdd9-c0ce-4ab9-8e3f-c7725295bd7a"
        }
      }
    },
    {
      "fullUrl": "urn:uuid:fe10b3dd-6c9d-4240-a509-e97805a871cb",
      "resource": {
        "resourceType": "Observation",
        "id": "fe10b3dd-6c9d-4240-a509-e97805a871cb",
        "meta": {
          "profile": [
            "http://hl7.eu/fhir/laboratory/StructureDefinition/Observation-resultslab-eu-lab"
          ]
        },
        "performer": [
          {
            "display": "The Central European Lab"
          }
        ],
        "category": [
          {
            "coding": [
              {
                "system": "http://terminology.hl7.org/CodeSystem/observation-category",
                "code": "laboratory"
              }
            ]
          }
        ],
        "code": {
          "coding": [
            {
              "code": "787-2",
              "system": "http://loinc.org",
              "display": "MCV [Entitic volume] by Automated count"
            }
          ],
          "text": "MCV [Entitic volume] by Automated count"
        },
        "valueQuantity": {
          "system": "http://unitsofmeasure.org",
          "value": 89.3,
          "unit": "fL",
          "code": "fL"
        },
        "referenceRange": [
          {
            "low": {
              "value": 76,
              "code": "fL",
              "system": "http://unitsofmeasure.org"
            }
          },
          {
            "high": {
              "value": 98,
              "code": "fL",
              "system": "http://unitsofmeasure.org"
            }
          }
        ],
        "text": {
          "status": "generated",
          "div": "<div xmlns=\"http://www.w3.org/1999/xhtml\"><table class=\"hl7__eu__lab__report\"><tr><th>Test</th><th>11-Nov-2020</th><th>Reference&#xA0;Range</th><th>Unit</th></tr><tr><td>MCV [Entitic volume] by Automated count</td><td>89.3</td><td>76 - 98</td><td></td><td>fL</td></tr></table></div>"
        },
        "status": "final",
        "subject": {
          "reference": "urn:uuid:83e89610-6ef9-4e0a-b079-64a9a5dbb251",
          "display": "Lazăr Florea"
        },
        "effectiveDateTime": "2020-11-11T06:09:07Z",
        "specimen": {
          "reference": "urn:uuid:ffbacdd9-c0ce-4ab9-8e3f-c7725295bd7a"
        }
      }
    },
    {
      "fullUrl": "urn:uuid:2950f44c-f98c-43d2-b700-f3e6bf597fa7",
      "resource": {
        "resourceType": "Observation",
        "id": "2950f44c-f98c-43d2-b700-f3e6bf597fa7",
        "meta": {
          "profile": [
            "http://hl7.eu/fhir/laboratory/StructureDefinition/Observation-resultslab-eu-lab"
          ]
        },
        "performer": [
          {
            "display": "The Central European Lab"
          }
        ],
        "category": [
          {
            "coding": [
              {
                "system": "http://terminology.hl7.org/CodeSystem/observation-category",
                "code": "laboratory"
              }
            ]
          }
        ],
        "code": {
          "coding": [
            {
              "code": "785-6",
              "system": "http://loinc.org",
              "display": "MCH [Entitic mass] by Automated count"
            }
          ],
          "text": "MCH [Entitic mass] by Automated count"
        },
        "valueQuantity": {
          "system": "http://unitsofmeasure.org",
          "value": 29.3,
          "unit": "pg",
          "code": "pg"
        },
        "referenceRange": [
          {
            "low": {
              "value": 27,
              "code": "pg",
              "system": "http://unitsofmeasure.org"
            }
          },
          {
            "high": {
              "value": 34,
              "code": "pg",
              "system": "http://unitsofmeasure.org"
            }
          }
        ],
        "text": {
          "status": "generated",
          "div": "<div xmlns=\"http://www.w3.org/1999/xhtml\"><table class=\"hl7__eu__lab__report\"><tr><th>Test</th><th>11-Nov-2020</th><th>Reference&#xA0;Range</th><th>Unit</th></tr><tr><td>MCH [Entitic mass] by Automated count</td><td>29.3</td><td>27 - 34</td><td></td><td>pg</td></tr></table></div>"
        },
        "status": "final",
        "subject": {
          "reference": "urn:uuid:83e89610-6ef9-4e0a-b079-64a9a5dbb251",
          "display": "Lazăr Florea"
        },
        "effectiveDateTime": "2020-11-11T06:09:07Z",
        "specimen": {
          "reference": "urn:uuid:ffbacdd9-c0ce-4ab9-8e3f-c7725295bd7a"
        }
      }
    },
    {
      "fullUrl": "urn:uuid:7442fce9-fae3-49d6-90fc-5c9f73d8bafb",
      "resource": {
        "resourceType": "Observation",
        "id": "7442fce9-fae3-49d6-90fc-5c9f73d8bafb",
        "meta": {
          "profile": [
            "http://hl7.eu/fhir/laboratory/StructureDefinition/Observation-resultslab-eu-lab"
          ]
        },
        "performer": [
          {
            "display": "The Central European Lab"
          }
        ],
        "category": [
          {
            "coding": [
              {
                "system": "http://terminology.hl7.org/CodeSystem/observation-category",
                "code": "laboratory"
              }
            ]
          }
        ],
        "code": {
          "coding": [
            {
              "code": "786-4",
              "system": "http://loinc.org",
              "display": "MCHC [Mass/volume] by Automated count"
            }
          ],
          "text": "MCHC [Mass/volume] by Automated count"
        },
        "valueQuantity": {
          "system": "http://unitsofmeasure.org",
          "value": 33.3,
          "unit": "g/dL",
          "code": "g/dL"
        },
        "referenceRange": [
          {
            "low": {
              "value": 31,
              "code": "g/dL",
              "system": "http://unitsofmeasure.org"
            }
          },
          {
            "high": {
              "value": 36,
              "code": "g/dL",
              "system": "http://unitsofmeasure.org"
            }
          }
        ],
        "text": {
          "status": "generated",
          "div": "<div xmlns=\"http://www.w3.org/1999/xhtml\"><table class=\"hl7__eu__lab__report\"><tr><th>Test</th><th>11-Nov-2020</th><th>Reference&#xA0;Range</th><th>Unit</th></tr><tr><td>MCHC [Mass/volume] by Automated count</td><td>33.3</td><td>31 - 36</td><td></td><td>g/dL</td></tr></table></div>"
        },
        "status": "final",
        "subject": {
          "reference": "urn:uuid:83e89610-6ef9-4e0a-b079-64a9a5dbb251",
          "display": "Lazăr Florea"
        },
        "effectiveDateTime": "2020-11-11T06:09:07Z",
        "specimen": {
          "reference": "urn:uuid:ffbacdd9-c0ce-4ab9-8e3f-c7725295bd7a"
        }
      }
    },
    {
      "fullUrl": "urn:uuid:f00385ea-e266-4e5c-8207-d2702adb4029",
      "resource": {
        "resourceType": "Observation",
        "id": "f00385ea-e266-4e5c-8207-d2702adb4029",
        "meta": {
          "profile": [
            "http://hl7.eu/fhir/laboratory/StructureDefinition/Observation-resultslab-eu-lab"
          ]
        },
        "performer": [
          {
            "display": "The Central European Lab"
          }
        ],
        "category": [
          {
            "coding": [
              {
                "system": "http://terminology.hl7.org/CodeSystem/observation-category",
                "code": "laboratory"
              }
            ]
          }
        ],
        "code": {
          "coding": [
            {
              "code": "21000-5",
              "system": "http://loinc.org",
              "display": "Erythrocyte distribution width [Entitic volume] by Automated count"
            }
          ],
          "text": "Erythrocyte distribution width [Entitic volume] by Automated count"
        },
        "valueQuantity": {
          "system": "http://unitsofmeasure.org",
          "value": 44.2,
          "unit": "fL",
          "code": "fL"
        },
        "referenceRange": [
          {
            "low": {
              "value": 39,
              "code": "fL",
              "system": "http://unitsofmeasure.org"
            }
          },
          {
            "high": {
              "value": 55,
              "code": "fL",
              "system": "http://unitsofmeasure.org"
            }
          }
        ],
        "text": {
          "status": "generated",
          "div": "<div xmlns=\"http://www.w3.org/1999/xhtml\"><table class=\"hl7__eu__lab__report\"><tr><th>Test</th><th>11-Nov-2020</th><th>Reference&#xA0;Range</th><th>Unit</th></tr><tr><td>Erythrocyte distribution width [Entitic volume] by Automated count</td><td>44.2</td><td>39 - 55</td><td></td><td>fL</td></tr></table></div>"
        },
        "status": "final",
        "subject": {
          "reference": "urn:uuid:83e89610-6ef9-4e0a-b079-64a9a5dbb251",
          "display": "Lazăr Florea"
        },
        "effectiveDateTime": "2020-11-11T06:09:07Z",
        "specimen": {
          "reference": "urn:uuid:ffbacdd9-c0ce-4ab9-8e3f-c7725295bd7a"
        }
      }
    },
    {
      "fullUrl": "urn:uuid:a02abe92-995d-4caa-87c1-d3fca864e53e",
      "resource": {
        "resourceType": "Observation",
        "id": "a02abe92-995d-4caa-87c1-d3fca864e53e",
        "meta": {
          "profile": [
            "http://hl7.eu/fhir/laboratory/StructureDefinition/Observation-resultslab-eu-lab"
          ]
        },
        "performer": [
          {
            "display": "The Central European Lab"
          }
        ],
        "category": [
          {
            "coding": [
              {
                "system": "http://terminology.hl7.org/CodeSystem/observation-category",
                "code": "laboratory"
              }
            ]
          }
        ],
        "code": {
          "coding": [
            {
              "code": "777-3",
              "system": "http://loinc.org",
              "display": "Platelets [#/volume] in Blood by Automated count"
            }
          ],
          "text": "Platelets [#/volume] in Blood by Automated count"
        },
        "valueQuantity": {
          "system": "http://unitsofmeasure.org",
          "value": 348.6,
          "unit": "10*3/uL",
          "code": "10*3/uL"
        },
        "referenceRange": [
          {
            "low": {
              "value": 140,
              "code": "10*3/uL",
              "system": "http://unitsofmeasure.org"
            }
          },
          {
            "high": {
              "value": 424,
              "code": "10*3/uL",
              "system": "http://unitsofmeasure.org"
            }
          }
        ],
        "text": {
          "status": "generated",
          "div": "<div xmlns=\"http://www.w3.org/1999/xhtml\"><table class=\"hl7__eu__lab__report\"><tr><th>Test</th><th>11-Nov-2020</th><th>Reference&#xA0;Range</th><th>Unit</th></tr><tr><td>Platelets [#/volume] in Blood by Automated count</td><td>348.6</td><td>140 - 424</td><td></td><td>10*3/uL</td></tr></table></div>"
        },
        "status": "final",
        "subject": {
          "reference": "urn:uuid:83e89610-6ef9-4e0a-b079-64a9a5dbb251",
          "display": "Lazăr Florea"
        },
        "effectiveDateTime": "2020-11-11T06:09:07Z",
        "specimen": {
          "reference": "urn:uuid:ffbacdd9-c0ce-4ab9-8e3f-c7725295bd7a"
        }
      }
    },
    {
      "fullUrl": "urn:uuid:4e0ae783-b47a-4ac8-8c26-e9c77e34ec54",
      "resource": {
        "resourceType": "Observation",
        "id": "4e0ae783-b47a-4ac8-8c26-e9c77e34ec54",
        "meta": {
          "profile": [
            "http://hl7.eu/fhir/laboratory/StructureDefinition/Observation-resultslab-eu-lab"
          ]
        },
        "performer": [
          {
            "display": "The Central European Lab"
          }
        ],
        "category": [
          {
            "coding": [
              {
                "system": "http://terminology.hl7.org/CodeSystem/observation-category",
                "code": "laboratory"
              }
            ]
          }
        ],
        "code": {
          "coding": [
            {
              "code": "32207-3",
              "system": "http://loinc.org",
              "display": "Platelet distribution width [Entitic volume] in Blood by Automated count"
            }
          ],
          "text": "Platelet distribution width [Entitic volume] in Blood by Automated count"
        },
        "valueQuantity": {
          "system": "http://unitsofmeasure.org",
          "value": 242,
          "unit": "fL",
          "code": "fL"
        },
        "referenceRange": [
          {
            "low": {
              "value": 13.4,
              "code": "fL",
              "system": "http://unitsofmeasure.org"
            }
          },
          {
            "high": {
              "value": 17.4,
              "code": "fL",
              "system": "http://unitsofmeasure.org"
            }
          }
        ],
        "interpretation": [
          {
            "coding": [
              {
                "code": "H",
                "system": "http://terminology.hl7.org/CodeSystem/v3-ObservationInterpretation",
                "display": "High"
              }
            ]
          }
        ],
        "text": {
          "status": "generated",
          "div": "<div xmlns=\"http://www.w3.org/1999/xhtml\"><table class=\"hl7__eu__lab__report\"><tr><th>Test</th><th>11-Nov-2020</th><th>Reference&#xA0;Range</th><th>Unit</th></tr><tr><td>Platelet distribution width [Entitic volume] in Blood by Automated count</td><td>242.0</td><td>13.4 - 17.4</td><td>H</td><td>fL</td></tr></table></div>"
        },
        "status": "final",
        "subject": {
          "reference": "urn:uuid:83e89610-6ef9-4e0a-b079-64a9a5dbb251",
          "display": "Lazăr Florea"
        },
        "effectiveDateTime": "2020-11-11T06:09:07Z",
        "specimen": {
          "reference": "urn:uuid:ffbacdd9-c0ce-4ab9-8e3f-c7725295bd7a"
        }
      }
    },
    {
      "fullUrl": "urn:uuid:784b35ca-3f5b-4b83-9b2d-36198d81a5e8",
      "resource": {
        "resourceType": "Observation",
        "id": "784b35ca-3f5b-4b83-9b2d-36198d81a5e8",
        "meta": {
          "profile": [
            "http://hl7.eu/fhir/laboratory/StructureDefinition/Observation-resultslab-eu-lab"
          ]
        },
        "performer": [
          {
            "display": "The Central European Lab"
          }
        ],
        "category": [
          {
            "coding": [
              {
                "system": "http://terminology.hl7.org/CodeSystem/observation-category",
                "code": "laboratory"
              }
            ]
          }
        ],
        "code": {
          "coding": [
            {
              "code": "32623-1",
              "system": "http://loinc.org",
              "display": "Platelet mean volume [Entitic volume] in Blood by Automated count"
            }
          ],
          "text": "Platelet mean volume [Entitic volume] in Blood by Automated count"
        },
        "valueQuantity": {
          "system": "http://unitsofmeasure.org",
          "value": 9.6,
          "unit": "fL",
          "code": "fL"
        },
        "referenceRange": [
          {
            "low": {
              "value": 7.2,
              "code": "fL",
              "system": "http://unitsofmeasure.org"
            }
          },
          {
            "high": {
              "value": 13.8,
              "code": "fL",
              "system": "http://unitsofmeasure.org"
            }
          }
        ],
        "text": {
          "status": "generated",
          "div": "<div xmlns=\"http://www.w3.org/1999/xhtml\"><table class=\"hl7__eu__lab__report\"><tr><th>Test</th><th>11-Nov-2020</th><th>Reference&#xA0;Range</th><th>Unit</th></tr><tr><td>Platelet mean volume [Entitic volume] in Blood by Automated count</td><td>9.6</td><td>7.2 - 13.8</td><td></td><td>fL</td></tr></table></div>"
        },
        "status": "final",
        "subject": {
          "reference": "urn:uuid:83e89610-6ef9-4e0a-b079-64a9a5dbb251",
          "display": "Lazăr Florea"
        },
        "effectiveDateTime": "2020-11-11T06:09:07Z",
        "specimen": {
          "reference": "urn:uuid:ffbacdd9-c0ce-4ab9-8e3f-c7725295bd7a"
        }
      }
    },
    {
      "fullUrl": "urn:uuid:0e3602d2-ae2d-402c-8c12-7fbbe801d648",
      "resource": {
        "resourceType": "Device",
        "id": "0e3602d2-ae2d-402c-8c12-7fbbe801d648",
        "deviceName": [
          {
            "name": "SYNDERAI Synthetic Generator",
            "type": "manufacturer-name"
          }
        ],
        "version": [
          {
            "value": "5.0"
          }
        ],
        "text": {
          "status": "generated",
          "div": "<div xmlns=\"http://www.w3.org/1999/xhtml\">SYNDERAI Synthetic Generator v5.0</div>"
        },
        "status": "active\"",
        "distinctIdentifier": "synderai-generator-50",
        "manufacturer": "SYNDERAI Project"
      }
    },
    {
      "fullUrl": "urn:uuid:f6d4c908-90d3-435c-8b8b-6f44e5f970e3",
      "resource": {
        "resourceType": "Provenance",
        "id": "f6d4c908-90d3-435c-8b8b-6f44e5f970e3",
        "target": [
          {
            "reference": "Patient/83e89610-6ef9-4e0a-b079-64a9a5dbb251"
          },
          {
            "reference": "Bundle/2200728f-bed1-4203-a194-4f6cac596ba1"
          },
          {
            "reference": "Composition/e6402e39-ad9f-4882-b555-2cf619bc6224"
          },
          {
            "reference": "PractitionerRole/df1c4672-1906-4418-883e-2c5f0484121f"
          },
          {
            "reference": "Practitioner/82961995-5194-44ff-8932-7fdffaf64045"
          },
          {
            "reference": "PractitionerRole/53929e54-c829-40f6-adb5-b57fbf37e4a0"
          },
          {
            "reference": "Organization/0bb7e330-09ad-4aff-8186-31e69469eb2b"
          }
        ],
        "activity": {
          "text": "Synthetic Example Data Generation"
        },
        "policy": [
          "https://synderai.net/synderai-synthetic-data-policy"
        ],
        "agent": [
          {
            "type": {
              "text": "author"
            },
            "who": {
              "reference": "Device/0e3602d2-ae2d-402c-8c12-7fbbe801d648"
            }
          }
        ],
        "reason": [
          {
            "text": "Interoperability Testing and Training (non-clinical use)"
          }
        ],
        "text": {
          "status": "generated",
          "div": "<div xmlns=\"http://www.w3.org/1999/xhtml\">Provenance for SYNDERAI Synthetic Example Data Resource</div>"
        },
        "recorded": "2020-11-11T07:09:07Z"
      }
    },
    {
      "fullUrl": "urn:uuid:df1c4672-1906-4418-883e-2c5f0484121f",
      "resource": {
        "resourceType": "PractitionerRole",
        "id": "df1c4672-1906-4418-883e-2c5f0484121f",
        "meta": {
          "profile": [
            "http://hl7.eu/fhir/base/StructureDefinition/practitionerRole-eu"
          ]
        },
        "text": {
          "status": "generated",
          "div": "<div xmlns=\"http://www.w3.org/1999/xhtml\">Laboratory Role Id: df1c4672-1906-4418-883e-2c5f0484121f</div>"
        },
        "practitioner": {
          "reference": "urn:uuid:82961995-5194-44ff-8932-7fdffaf64045"
        }
      }
    },
    {
      "fullUrl": "urn:uuid:82961995-5194-44ff-8932-7fdffaf64045",
      "resource": {
        "resourceType": "Practitioner",
        "id": "82961995-5194-44ff-8932-7fdffaf64045",
        "meta": {
          "profile": [
            "http://hl7.eu/fhir/base/StructureDefinition/practitioner-eu"
          ]
        },
        "identifier": [
          {
            "assigner": {
              "display": "HL7 Europe"
            },
            "system": "urn:oid:2.16.840.1.113883.2.51.999",
            "value": "c0f1e955-fd76-479f-9e1b-969c6b417628"
          }
        ],
        "name": [
          {
            "prefix": [
              "dr"
            ],
            "given": [
              "Ex"
            ],
            "family": "Ample"
          }
        ],
        "address": [
          {
            "line": [
              "Laboratoire Central Européenne",
              "Boulevard du Jardin Botanique 32"
            ],
            "postalCode": "1000",
            "city": "Brussels",
            "country": "Belgium"
          }
        ],
        "text": {
          "status": "generated",
          "div": "<div xmlns=\"http://www.w3.org/1999/xhtml\">Laboratory: Laboratoire Central Européenne, 1000 Brussels, Belgium</div>"
        }
      }
    }
  ],
  "type": "document",
  "timestamp": "2020-11-11T07:09:07Z"
}
