{
  "resourceType": "Bundle",
  "id": "d18d332b-594d-4c47-9e30-4547872beab7",
  "meta": {
    "profile": [
      "http://hl7.eu/fhir/laboratory/StructureDefinition/Bundle-eu-lab"
    ]
  },
  "identifier": {
    "assigner": {
      "display": "HL7 Europe"
    },
    "system": "urn:oid:2.16.840.1.113883.2.51.999",
    "value": "d6216ccb-b036-48de-a1a9-75d3c0184c72"
  },
  "entry": [
    {
      "fullUrl": "urn:uuid:e70b9770-7be7-4acd-ac28-462cd27995bd",
      "resource": {
        "resourceType": "Composition",
        "id": "e70b9770-7be7-4acd-ac28-462cd27995bd",
        "meta": {
          "profile": [
            "http://hl7.eu/fhir/laboratory/StructureDefinition/Composition-eu-lab"
          ]
        },
        "identifier": {
          "assigner": {
            "display": "HL7 Europe"
          },
          "system": "urn:oid:2.16.840.1.113883.2.51.999",
          "value": "1f4d7101-c6b3-43d1-9c7f-a40d435c6f76"
        },
        "author": [
          {
            "reference": "urn:uuid:36a4633b-cb9a-40cb-babd-0feb77ac1e8e"
          }
        ],
        "category": [
          {
            "coding": [
              {
                "code": "26436-6",
                "system": "http://loinc.org",
                "display": "Laboratory studies (set)"
              }
            ]
          }
        ],
        "type": {
          "coding": [
            {
              "code": "11502-2",
              "system": "http://loinc.org",
              "display": "Laboratory report"
            }
          ],
          "text": "Laboratory Report"
        },
        "section": [
          {
            "code": {
              "coding": [
                {
                  "code": "26436-6",
                  "system": "http://loinc.org",
                  "display": "Laboratory studies (set)"
                }
              ],
              "text": "Laboratory studies"
            },
            "section": [
              {
                "code": {
                  "coding": [
                    {
                      "code": "$18719-5",
                      "system": "http://loinc.org",
                      "display": "Chemistry studies (set)"
                    }
                  ],
                  "text": "Chemistry"
                },
                "entry": [
                  {
                    "reference": "urn:uuid:22692c6d-6872-41b6-8249-ee6a6ddc221d"
                  },
                  {
                    "reference": "urn:uuid:355a4528-cbe7-46a3-8fa4-79d60897ea16"
                  },
                  {
                    "reference": "urn:uuid:e42f5fa4-62b3-4728-992b-7ccf53b61bfa"
                  },
                  {
                    "reference": "urn:uuid:eb338910-f1e0-4c71-9d29-ae2a74cc99cd"
                  },
                  {
                    "reference": "urn:uuid:69d874c0-181a-4a76-9005-eb23ab9f88ea"
                  },
                  {
                    "reference": "urn:uuid:2b46a4aa-b5f7-4db1-818c-491878bc1e5f"
                  },
                  {
                    "reference": "urn:uuid:33a4f6b1-bf3c-4f9f-b8ef-0a7d728c510e"
                  },
                  {
                    "reference": "urn:uuid:9527f61b-f7f7-4503-b2c8-f45178f9fc0d"
                  },
                  {
                    "reference": "urn:uuid:0922ed1c-c719-40d8-8de8-49258c49c7e8"
                  }
                ],
                "text": {
                  "status": "generated",
                  "div": "<div xmlns=\"http://www.w3.org/1999/xhtml\"><h3>Chemistry</h3><table class=\"hl7__eu__lab__report\"><thead><tr><th>Test</th><th>15-MAR-2022</th><th>Reference&#xA0;Range</th><th>Unit</th></tr></thead><tbody><tr><td>Hemoglobin A1c/Hemoglobin.total in Blood</td><td><strong>6.0 H</strong></td><td>4.8 - 5.7</td><td>%</td></tr><tr><td>Glucose [Mass/volume] in Blood</td><td>90.1</td><td>70 - 100</td><td>mg/dL</td></tr><tr><td>Urea nitrogen [Mass/volume] in Blood</td><td>19.2</td><td>7 - 20</td><td>mg/dL</td></tr><tr><td>Creatinine [Mass/volume] in Blood</td><td>0.8</td><td>0.6 - 1.1</td><td>mg/dL</td></tr><tr><td>Calcium [Mass/volume] in Blood</td><td>8.6</td><td>8.5 - 10.5</td><td>mg/dL</td></tr><tr><td>Sodium [Moles/volume] in Blood</td><td>137.7</td><td>135 - 145</td><td>mmol/L</td></tr><tr><td>Potassium [Moles/volume] in Blood</td><td>4.2</td><td>3.5 - 5.1</td><td>mmol/L</td></tr><tr><td>Chloride [Moles/volume] in Blood</td><td>107.7</td><td>98 - 110</td><td>mmol/L</td></tr><tr><td>Carbon dioxide, total [Moles/volume] in Blood</td><td>29.0</td><td>22 - 29</td><td>mmol/L</td></tr></tbody></table></div>"
                },
                "title": "Chemistry"
              }
            ],
            "title": "Laboratory Report"
          },
          {
            "text": {
              "status": "generated",
              "div": "<div xmlns=\"http://www.w3.org/1999/xhtml\"><h3>Annotation</h3><table class=\"hl7__eu__lab__report\"><tr><th>Conclusion and Recommendations based on this report and previous findings known to us</th></tr><tr><td>All parameters are within normal limits except for a mildly elevated HbA1c (6.0%), indicating possible prediabetes or impaired glucose tolerance. Recommend clinical correlation and consideration of lifestyle modification or further evaluation for glycemic control. No evidence of renal or electrolyte disturbances.</td></tr></table></div>"
            },
            "code": {
              "coding": [
                {
                  "system": "http://loinc.org",
                  "code": "48767-8",
                  "display": "Annotation comment"
                }
              ]
            },
            "title": "Annotation comment"
          }
        ],
        "status": "final",
        "subject": {
          "reference": "urn:uuid:315fde72-9faf-4724-9a65-9f6302f9fb06",
          "display": "Marina Norbiato"
        },
        "date": "2022-03-15T06:31:43Z",
        "title": "Laboratory Report",
        "confidentiality": "N"
      }
    },
    {
      "fullUrl": "urn:uuid:8535d9ef-a832-4af9-ae19-8a54718fbb83",
      "resource": {
        "resourceType": "DiagnosticReport",
        "id": "8535d9ef-a832-4af9-ae19-8a54718fbb83",
        "meta": {
          "profile": [
            "http://hl7.eu/fhir/laboratory/StructureDefinition/DiagnosticReport-eu-lab"
          ]
        },
        "identifier": [
          {
            "assigner": {
              "display": "HL7 Europe"
            },
            "system": "urn:oid:2.16.840.1.113883.2.51.999",
            "value": "4a2b0a50-5ee0-40b5-97a0-8870f9003321"
          }
        ],
        "extension": [
          {
            "url": "http://hl7.org/fhir/5.0/StructureDefinition/extension-DiagnosticReport.composition",
            "valueReference": {
              "reference": "urn:uuid:1f4d7101-c6b3-43d1-9c7f-a40d435c6f76"
            }
          }
        ],
        "category": [
          {
            "coding": [
              {
                "code": "26436-6",
                "system": "http://loinc.org",
                "display": "Laboratory studies (set)"
              }
            ]
          }
        ],
        "specimen": [
          {
            "reference": "urn:uuid:8523e763-5db8-4d4e-bb56-303b859287a2"
          }
        ],
        "result": [
          {
            "reference": "urn:uuid:22692c6d-6872-41b6-8249-ee6a6ddc221d"
          },
          {
            "reference": "urn:uuid:355a4528-cbe7-46a3-8fa4-79d60897ea16"
          },
          {
            "reference": "urn:uuid:e42f5fa4-62b3-4728-992b-7ccf53b61bfa"
          },
          {
            "reference": "urn:uuid:eb338910-f1e0-4c71-9d29-ae2a74cc99cd"
          },
          {
            "reference": "urn:uuid:69d874c0-181a-4a76-9005-eb23ab9f88ea"
          },
          {
            "reference": "urn:uuid:2b46a4aa-b5f7-4db1-818c-491878bc1e5f"
          },
          {
            "reference": "urn:uuid:33a4f6b1-bf3c-4f9f-b8ef-0a7d728c510e"
          },
          {
            "reference": "urn:uuid:9527f61b-f7f7-4503-b2c8-f45178f9fc0d"
          },
          {
            "reference": "urn:uuid:0922ed1c-c719-40d8-8de8-49258c49c7e8"
          }
        ],
        "status": "registered",
        "code": {
          "coding": [
            {
              "code": "11502-2",
              "system": "http://loinc.org",
              "display": "Laboratory report"
            }
          ]
        },
        "subject": {
          "reference": "urn:uuid:315fde72-9faf-4724-9a65-9f6302f9fb06",
          "display": "Marina Norbiato"
        }
      }
    },
    {
      "fullUrl": "urn:uuid:315fde72-9faf-4724-9a65-9f6302f9fb06",
      "resource": {
        "resourceType": "Patient",
        "id": "315fde72-9faf-4724-9a65-9f6302f9fb06",
        "meta": {
          "security": [
            {
              "system": "http://terminology.hl7.org/CodeSystem/v3-ActReason",
              "code": "HTEST"
            },
            {
              "system": "http://terminology.hl7.org/CodeSystem/v3-ActReason",
              "code": "TRAIN"
            }
          ],
          "tag": [
            {
              "system": "https://synderai.net/fhir/CodeSystem/tags",
              "code": "synthetic",
              "display": "SYNDERAI Synthetic data"
            }
          ],
          "profile": [
            "http://hl7.eu/fhir/base/StructureDefinition/patient-eu-core"
          ]
        },
        "identifier": [
          {
            "type": {
              "coding": [
                {
                  "code": "PT",
                  "system": "http://terminology.hl7.org/CodeSystem/v2-0203"
                }
              ]
            },
            "system": "http://ec.europa.eu/identifier/eci",
            "value": "5004-598122-7"
          },
          {
            "type": {
              "coding": [
                {
                  "code": "MR",
                  "system": "http://terminology.hl7.org/CodeSystem/v2-0203"
                }
              ]
            },
            "system": "http://local.setting.eu/identifier",
            "value": "35cd3e66-58a0-050b-9928-8805facaac98"
          }
        ],
        "name": [
          {
            "family": "Norbiato"
          },
          {
            "given": [
              "Marina"
            ]
          },
          {
            "text": "Marina Norbiato"
          }
        ],
        "address": [
          {
            "line": [
              "Via Squarcione, 2 Piano 6"
            ],
            "use": "home",
            "type": "physical",
            "postalCode": "25080",
            "city": "Remedello Di Sotto",
            "country": "Italy"
          }
        ],
        "telecom": [
          {
            "system": "phone",
            "value": "016359725"
          }
        ],
        "extension": [
          {
            "url": "http://hl7.org/fhir/StructureDefinition/patient-nationality",
            "valueCodeableConcept": {
              "coding": [
                {
                  "code": "IT",
                  "system": "http://hl7.org/fhir/ValueSet/country"
                }
              ]
            }
          }
        ],
        "text": {
          "status": "generated",
          "div": "<div xmlns=\"http://www.w3.org/1999/xhtml\"><table class=\"hl7__ips\"><tr><td>Marina Norbiato</td><td>female</td><td>30-Aug-1999</td></tr></table></div>"
        },
        "gender": "female",
        "birthDate": "1999-08-30"
      }
    },
    {
      "fullUrl": "urn:uuid:fcc0b751-a797-41d7-aded-1d380f8aa24e",
      "resource": {
        "resourceType": "ServiceRequest",
        "id": "fcc0b751-a797-41d7-aded-1d380f8aa24e",
        "meta": {
          "profile": [
            "http://hl7.eu/fhir/laboratory/StructureDefinition/ServiceRequest-eu-lab"
          ]
        },
        "identifier": [
          {
            "system": "http://example.org",
            "value": "985da247-bbd1-4edd-9de4-4969a5cc5aa6"
          }
        ],
        "specimen": [
          {
            "reference": "urn:uuid:8523e763-5db8-4d4e-bb56-303b859287a2"
          }
        ],
        "reasonCode": [
          {
            "coding": [
              {
                "code": "15777000",
                "system": "http://snomed.info/sct",
                "display": "Prediabetes"
              }
            ]
          }
        ],
        "status": "active",
        "intent": "order",
        "code": {
          "coding": [
            {
              "code": "108252007",
              "system": "http://snomed.info/sct",
              "display": "Laboratory procedure"
            }
          ]
        },
        "subject": {
          "reference": "urn:uuid:315fde72-9faf-4724-9a65-9f6302f9fb06",
          "display": "Marina Norbiato"
        },
        "requester": {
          "reference": "urn:uuid:abcd73ab-8b60-44bd-b550-a6a590b5039d"
        }
      }
    },
    {
      "fullUrl": "urn:uuid:abcd73ab-8b60-44bd-b550-a6a590b5039d",
      "resource": {
        "resourceType": "PractitionerRole",
        "id": "abcd73ab-8b60-44bd-b550-a6a590b5039d",
        "meta": {
          "profile": [
            "http://hl7.eu/fhir/base/StructureDefinition/practitionerRole-eu"
          ]
        },
        "text": {
          "status": "generated",
          "div": "<div xmlns=\"http://www.w3.org/1999/xhtml\">Provider Role Id: abcd73ab-8b60-44bd-b550-a6a590b5039d</div>"
        },
        "organization": {
          "reference": "urn:uuid:61f9af73-97e5-44e6-88fb-1710b6954490"
        }
      }
    },
    {
      "fullUrl": "urn:uuid:61f9af73-97e5-44e6-88fb-1710b6954490",
      "resource": {
        "resourceType": "Organization",
        "id": "61f9af73-97e5-44e6-88fb-1710b6954490",
        "meta": {
          "profile": [
            "http://hl7.eu/fhir/base/StructureDefinition/organization-eu"
          ]
        },
        "identifier": [
          {
            "assigner": {
              "display": "HL7 Europe"
            },
            "system": "urn:oid:2.16.840.1.113883.2.51.999",
            "value": "e457c6ee-3839-4cb3-b7f1-832471f84c18"
          }
        ],
        "address": [
          {
            "line": [
              "Piazzetta Donatori di sangue 1"
            ],
            "city": "Leno",
            "postalCode": "25024",
            "country": "Italy"
          }
        ],
        "text": {
          "status": "generated",
          "div": "<div xmlns=\"http://www.w3.org/1999/xhtml\">Provider Organization: Ospedale di Leno</div>"
        },
        "name": "Ospedale di Leno"
      }
    },
    {
      "fullUrl": "urn:uuid:8523e763-5db8-4d4e-bb56-303b859287a2",
      "resource": {
        "resourceType": "Specimen",
        "id": "8523e763-5db8-4d4e-bb56-303b859287a2",
        "meta": {
          "profile": [
            "http://hl7.eu/fhir/laboratory/StructureDefinition/Specimen-eu-lab"
          ]
        },
        "collection": {
          "collectedDateTime": "2022-03-15"
        },
        "text": {
          "status": "generated",
          "div": "<div xmlns=\"http://www.w3.org/1999/xhtml\"><table class=\"hl7__eu__lab__report\"><tr><th>Specimen</th><th>Collection Date</th></tr><tr><td>Whole blood specimen (specimen)</td><td><span class=\"nb\">15-Mar-2022</span></td></tr></table></div>"
        },
        "type": {
          "coding": [
            {
              "code": "258580003",
              "system": "http://snomed.info/sct",
              "display": "Whole blood specimen (specimen)"
            }
          ]
        }
      }
    },
    {
      "fullUrl": "urn:uuid:22692c6d-6872-41b6-8249-ee6a6ddc221d",
      "resource": {
        "resourceType": "Observation",
        "id": "22692c6d-6872-41b6-8249-ee6a6ddc221d",
        "meta": {
          "profile": [
            "http://hl7.eu/fhir/laboratory/StructureDefinition/Observation-resultslab-eu-lab"
          ]
        },
        "performer": [
          {
            "display": "The Central European Lab"
          }
        ],
        "category": [
          {
            "coding": [
              {
                "system": "http://terminology.hl7.org/CodeSystem/observation-category",
                "code": "laboratory"
              }
            ]
          }
        ],
        "code": {
          "coding": [
            {
              "code": "4548-4",
              "system": "http://loinc.org",
              "display": "Hemoglobin A1c/Hemoglobin.total in Blood"
            }
          ],
          "text": "Hemoglobin A1c/Hemoglobin.total in Blood"
        },
        "valueQuantity": {
          "system": "http://unitsofmeasure.org",
          "value": 6,
          "unit": "%",
          "code": "%"
        },
        "referenceRange": [
          {
            "low": {
              "value": 4.8,
              "code": "%",
              "system": "http://unitsofmeasure.org"
            }
          },
          {
            "high": {
              "value": 5.7,
              "code": "%",
              "system": "http://unitsofmeasure.org"
            }
          }
        ],
        "interpretation": [
          {
            "coding": [
              {
                "code": "H",
                "system": "http://terminology.hl7.org/CodeSystem/v3-ObservationInterpretation",
                "display": "High"
              }
            ]
          }
        ],
        "text": {
          "status": "generated",
          "div": "<div xmlns=\"http://www.w3.org/1999/xhtml\"><table class=\"hl7__eu__lab__report\"><tr><th>Test</th><th>15-Mar-2022</th><th>Reference&#xA0;Range</th><th>Unit</th></tr><tr><td>Hemoglobin A1c/Hemoglobin.total in Blood</td><td>6.0</td><td>4.8 - 5.7</td><td>H</td><td>%</td></tr></table></div>"
        },
        "status": "final",
        "subject": {
          "reference": "urn:uuid:315fde72-9faf-4724-9a65-9f6302f9fb06",
          "display": "Marina Norbiato"
        },
        "effectiveDateTime": "2022-03-15T05:31:43Z",
        "specimen": {
          "reference": "urn:uuid:8523e763-5db8-4d4e-bb56-303b859287a2"
        }
      }
    },
    {
      "fullUrl": "urn:uuid:355a4528-cbe7-46a3-8fa4-79d60897ea16",
      "resource": {
        "resourceType": "Observation",
        "id": "355a4528-cbe7-46a3-8fa4-79d60897ea16",
        "meta": {
          "profile": [
            "http://hl7.eu/fhir/laboratory/StructureDefinition/Observation-resultslab-eu-lab"
          ]
        },
        "performer": [
          {
            "display": "The Central European Lab"
          }
        ],
        "category": [
          {
            "coding": [
              {
                "system": "http://terminology.hl7.org/CodeSystem/observation-category",
                "code": "laboratory"
              }
            ]
          }
        ],
        "code": {
          "coding": [
            {
              "code": "2339-0",
              "system": "http://loinc.org",
              "display": "Glucose [Mass/volume] in Blood"
            }
          ],
          "text": "Glucose [Mass/volume] in Blood"
        },
        "valueQuantity": {
          "system": "http://unitsofmeasure.org",
          "value": 90.1,
          "unit": "mg/dL",
          "code": "mg/dL"
        },
        "referenceRange": [
          {
            "low": {
              "value": 70,
              "code": "mg/dL",
              "system": "http://unitsofmeasure.org"
            }
          },
          {
            "high": {
              "value": 100,
              "code": "mg/dL",
              "system": "http://unitsofmeasure.org"
            }
          }
        ],
        "text": {
          "status": "generated",
          "div": "<div xmlns=\"http://www.w3.org/1999/xhtml\"><table class=\"hl7__eu__lab__report\"><tr><th>Test</th><th>15-Mar-2022</th><th>Reference&#xA0;Range</th><th>Unit</th></tr><tr><td>Glucose [Mass/volume] in Blood</td><td>90.1</td><td>70 - 100</td><td></td><td>mg/dL</td></tr></table></div>"
        },
        "status": "final",
        "subject": {
          "reference": "urn:uuid:315fde72-9faf-4724-9a65-9f6302f9fb06",
          "display": "Marina Norbiato"
        },
        "effectiveDateTime": "2022-03-15T05:31:43Z",
        "specimen": {
          "reference": "urn:uuid:8523e763-5db8-4d4e-bb56-303b859287a2"
        }
      }
    },
    {
      "fullUrl": "urn:uuid:e42f5fa4-62b3-4728-992b-7ccf53b61bfa",
      "resource": {
        "resourceType": "Observation",
        "id": "e42f5fa4-62b3-4728-992b-7ccf53b61bfa",
        "meta": {
          "profile": [
            "http://hl7.eu/fhir/laboratory/StructureDefinition/Observation-resultslab-eu-lab"
          ]
        },
        "performer": [
          {
            "display": "The Central European Lab"
          }
        ],
        "category": [
          {
            "coding": [
              {
                "system": "http://terminology.hl7.org/CodeSystem/observation-category",
                "code": "laboratory"
              }
            ]
          }
        ],
        "code": {
          "coding": [
            {
              "code": "6299-2",
              "system": "http://loinc.org",
              "display": "Urea nitrogen [Mass/volume] in Blood"
            }
          ],
          "text": "Urea nitrogen [Mass/volume] in Blood"
        },
        "valueQuantity": {
          "system": "http://unitsofmeasure.org",
          "value": 19.2,
          "unit": "mg/dL",
          "code": "mg/dL"
        },
        "referenceRange": [
          {
            "low": {
              "value": 7,
              "code": "mg/dL",
              "system": "http://unitsofmeasure.org"
            }
          },
          {
            "high": {
              "value": 20,
              "code": "mg/dL",
              "system": "http://unitsofmeasure.org"
            }
          }
        ],
        "text": {
          "status": "generated",
          "div": "<div xmlns=\"http://www.w3.org/1999/xhtml\"><table class=\"hl7__eu__lab__report\"><tr><th>Test</th><th>15-Mar-2022</th><th>Reference&#xA0;Range</th><th>Unit</th></tr><tr><td>Urea nitrogen [Mass/volume] in Blood</td><td>19.2</td><td>7 - 20</td><td></td><td>mg/dL</td></tr></table></div>"
        },
        "status": "final",
        "subject": {
          "reference": "urn:uuid:315fde72-9faf-4724-9a65-9f6302f9fb06",
          "display": "Marina Norbiato"
        },
        "effectiveDateTime": "2022-03-15T05:31:43Z",
        "specimen": {
          "reference": "urn:uuid:8523e763-5db8-4d4e-bb56-303b859287a2"
        }
      }
    },
    {
      "fullUrl": "urn:uuid:eb338910-f1e0-4c71-9d29-ae2a74cc99cd",
      "resource": {
        "resourceType": "Observation",
        "id": "eb338910-f1e0-4c71-9d29-ae2a74cc99cd",
        "meta": {
          "profile": [
            "http://hl7.eu/fhir/laboratory/StructureDefinition/Observation-resultslab-eu-lab"
          ]
        },
        "performer": [
          {
            "display": "The Central European Lab"
          }
        ],
        "category": [
          {
            "coding": [
              {
                "system": "http://terminology.hl7.org/CodeSystem/observation-category",
                "code": "laboratory"
              }
            ]
          }
        ],
        "code": {
          "coding": [
            {
              "code": "38483-4",
              "system": "http://loinc.org",
              "display": "Creatinine [Mass/volume] in Blood"
            }
          ],
          "text": "Creatinine [Mass/volume] in Blood"
        },
        "valueQuantity": {
          "system": "http://unitsofmeasure.org",
          "value": 0.8,
          "unit": "mg/dL",
          "code": "mg/dL"
        },
        "referenceRange": [
          {
            "low": {
              "value": 0.6,
              "code": "mg/dL",
              "system": "http://unitsofmeasure.org"
            }
          },
          {
            "high": {
              "value": 1.1,
              "code": "mg/dL",
              "system": "http://unitsofmeasure.org"
            }
          }
        ],
        "text": {
          "status": "generated",
          "div": "<div xmlns=\"http://www.w3.org/1999/xhtml\"><table class=\"hl7__eu__lab__report\"><tr><th>Test</th><th>15-Mar-2022</th><th>Reference&#xA0;Range</th><th>Unit</th></tr><tr><td>Creatinine [Mass/volume] in Blood</td><td>0.8</td><td>0.6 - 1.1</td><td></td><td>mg/dL</td></tr></table></div>"
        },
        "status": "final",
        "subject": {
          "reference": "urn:uuid:315fde72-9faf-4724-9a65-9f6302f9fb06",
          "display": "Marina Norbiato"
        },
        "effectiveDateTime": "2022-03-15T05:31:43Z",
        "specimen": {
          "reference": "urn:uuid:8523e763-5db8-4d4e-bb56-303b859287a2"
        }
      }
    },
    {
      "fullUrl": "urn:uuid:69d874c0-181a-4a76-9005-eb23ab9f88ea",
      "resource": {
        "resourceType": "Observation",
        "id": "69d874c0-181a-4a76-9005-eb23ab9f88ea",
        "meta": {
          "profile": [
            "http://hl7.eu/fhir/laboratory/StructureDefinition/Observation-resultslab-eu-lab"
          ]
        },
        "performer": [
          {
            "display": "The Central European Lab"
          }
        ],
        "category": [
          {
            "coding": [
              {
                "system": "http://terminology.hl7.org/CodeSystem/observation-category",
                "code": "laboratory"
              }
            ]
          }
        ],
        "code": {
          "coding": [
            {
              "code": "49765-1",
              "system": "http://loinc.org",
              "display": "Calcium [Mass/volume] in Blood"
            }
          ],
          "text": "Calcium [Mass/volume] in Blood"
        },
        "valueQuantity": {
          "system": "http://unitsofmeasure.org",
          "value": 8.6,
          "unit": "mg/dL",
          "code": "mg/dL"
        },
        "referenceRange": [
          {
            "low": {
              "value": 8.5,
              "code": "mg/dL",
              "system": "http://unitsofmeasure.org"
            }
          },
          {
            "high": {
              "value": 10.5,
              "code": "mg/dL",
              "system": "http://unitsofmeasure.org"
            }
          }
        ],
        "text": {
          "status": "generated",
          "div": "<div xmlns=\"http://www.w3.org/1999/xhtml\"><table class=\"hl7__eu__lab__report\"><tr><th>Test</th><th>15-Mar-2022</th><th>Reference&#xA0;Range</th><th>Unit</th></tr><tr><td>Calcium [Mass/volume] in Blood</td><td>8.6</td><td>8.5 - 10.5</td><td></td><td>mg/dL</td></tr></table></div>"
        },
        "status": "final",
        "subject": {
          "reference": "urn:uuid:315fde72-9faf-4724-9a65-9f6302f9fb06",
          "display": "Marina Norbiato"
        },
        "effectiveDateTime": "2022-03-15T05:31:43Z",
        "specimen": {
          "reference": "urn:uuid:8523e763-5db8-4d4e-bb56-303b859287a2"
        }
      }
    },
    {
      "fullUrl": "urn:uuid:2b46a4aa-b5f7-4db1-818c-491878bc1e5f",
      "resource": {
        "resourceType": "Observation",
        "id": "2b46a4aa-b5f7-4db1-818c-491878bc1e5f",
        "meta": {
          "profile": [
            "http://hl7.eu/fhir/laboratory/StructureDefinition/Observation-resultslab-eu-lab"
          ]
        },
        "performer": [
          {
            "display": "The Central European Lab"
          }
        ],
        "category": [
          {
            "coding": [
              {
                "system": "http://terminology.hl7.org/CodeSystem/observation-category",
                "code": "laboratory"
              }
            ]
          }
        ],
        "code": {
          "coding": [
            {
              "code": "2947-0",
              "system": "http://loinc.org",
              "display": "Sodium [Moles/volume] in Blood"
            }
          ],
          "text": "Sodium [Moles/volume] in Blood"
        },
        "valueQuantity": {
          "system": "http://unitsofmeasure.org",
          "value": 137.7,
          "unit": "mmol/L",
          "code": "mmol/L"
        },
        "referenceRange": [
          {
            "low": {
              "value": 135,
              "code": "mmol/L",
              "system": "http://unitsofmeasure.org"
            }
          },
          {
            "high": {
              "value": 145,
              "code": "mmol/L",
              "system": "http://unitsofmeasure.org"
            }
          }
        ],
        "text": {
          "status": "generated",
          "div": "<div xmlns=\"http://www.w3.org/1999/xhtml\"><table class=\"hl7__eu__lab__report\"><tr><th>Test</th><th>15-Mar-2022</th><th>Reference&#xA0;Range</th><th>Unit</th></tr><tr><td>Sodium [Moles/volume] in Blood</td><td>137.7</td><td>135 - 145</td><td></td><td>mmol/L</td></tr></table></div>"
        },
        "status": "final",
        "subject": {
          "reference": "urn:uuid:315fde72-9faf-4724-9a65-9f6302f9fb06",
          "display": "Marina Norbiato"
        },
        "effectiveDateTime": "2022-03-15T05:31:43Z",
        "specimen": {
          "reference": "urn:uuid:8523e763-5db8-4d4e-bb56-303b859287a2"
        }
      }
    },
    {
      "fullUrl": "urn:uuid:33a4f6b1-bf3c-4f9f-b8ef-0a7d728c510e",
      "resource": {
        "resourceType": "Observation",
        "id": "33a4f6b1-bf3c-4f9f-b8ef-0a7d728c510e",
        "meta": {
          "profile": [
            "http://hl7.eu/fhir/laboratory/StructureDefinition/Observation-resultslab-eu-lab"
          ]
        },
        "performer": [
          {
            "display": "The Central European Lab"
          }
        ],
        "category": [
          {
            "coding": [
              {
                "system": "http://terminology.hl7.org/CodeSystem/observation-category",
                "code": "laboratory"
              }
            ]
          }
        ],
        "code": {
          "coding": [
            {
              "code": "6298-4",
              "system": "http://loinc.org",
              "display": "Potassium [Moles/volume] in Blood"
            }
          ],
          "text": "Potassium [Moles/volume] in Blood"
        },
        "valueQuantity": {
          "system": "http://unitsofmeasure.org",
          "value": 4.2,
          "unit": "mmol/L",
          "code": "mmol/L"
        },
        "referenceRange": [
          {
            "low": {
              "value": 3.5,
              "code": "mmol/L",
              "system": "http://unitsofmeasure.org"
            }
          },
          {
            "high": {
              "value": 5.1,
              "code": "mmol/L",
              "system": "http://unitsofmeasure.org"
            }
          }
        ],
        "text": {
          "status": "generated",
          "div": "<div xmlns=\"http://www.w3.org/1999/xhtml\"><table class=\"hl7__eu__lab__report\"><tr><th>Test</th><th>15-Mar-2022</th><th>Reference&#xA0;Range</th><th>Unit</th></tr><tr><td>Potassium [Moles/volume] in Blood</td><td>4.2</td><td>3.5 - 5.1</td><td></td><td>mmol/L</td></tr></table></div>"
        },
        "status": "final",
        "subject": {
          "reference": "urn:uuid:315fde72-9faf-4724-9a65-9f6302f9fb06",
          "display": "Marina Norbiato"
        },
        "effectiveDateTime": "2022-03-15T05:31:43Z",
        "specimen": {
          "reference": "urn:uuid:8523e763-5db8-4d4e-bb56-303b859287a2"
        }
      }
    },
    {
      "fullUrl": "urn:uuid:9527f61b-f7f7-4503-b2c8-f45178f9fc0d",
      "resource": {
        "resourceType": "Observation",
        "id": "9527f61b-f7f7-4503-b2c8-f45178f9fc0d",
        "meta": {
          "profile": [
            "http://hl7.eu/fhir/laboratory/StructureDefinition/Observation-resultslab-eu-lab"
          ]
        },
        "performer": [
          {
            "display": "The Central European Lab"
          }
        ],
        "category": [
          {
            "coding": [
              {
                "system": "http://terminology.hl7.org/CodeSystem/observation-category",
                "code": "laboratory"
              }
            ]
          }
        ],
        "code": {
          "coding": [
            {
              "code": "2069-3",
              "system": "http://loinc.org",
              "display": "Chloride [Moles/volume] in Blood"
            }
          ],
          "text": "Chloride [Moles/volume] in Blood"
        },
        "valueQuantity": {
          "system": "http://unitsofmeasure.org",
          "value": 107.7,
          "unit": "mmol/L",
          "code": "mmol/L"
        },
        "referenceRange": [
          {
            "low": {
              "value": 98,
              "code": "mmol/L",
              "system": "http://unitsofmeasure.org"
            }
          },
          {
            "high": {
              "value": 110,
              "code": "mmol/L",
              "system": "http://unitsofmeasure.org"
            }
          }
        ],
        "text": {
          "status": "generated",
          "div": "<div xmlns=\"http://www.w3.org/1999/xhtml\"><table class=\"hl7__eu__lab__report\"><tr><th>Test</th><th>15-Mar-2022</th><th>Reference&#xA0;Range</th><th>Unit</th></tr><tr><td>Chloride [Moles/volume] in Blood</td><td>107.7</td><td>98 - 110</td><td></td><td>mmol/L</td></tr></table></div>"
        },
        "status": "final",
        "subject": {
          "reference": "urn:uuid:315fde72-9faf-4724-9a65-9f6302f9fb06",
          "display": "Marina Norbiato"
        },
        "effectiveDateTime": "2022-03-15T05:31:43Z",
        "specimen": {
          "reference": "urn:uuid:8523e763-5db8-4d4e-bb56-303b859287a2"
        }
      }
    },
    {
      "fullUrl": "urn:uuid:0922ed1c-c719-40d8-8de8-49258c49c7e8",
      "resource": {
        "resourceType": "Observation",
        "id": "0922ed1c-c719-40d8-8de8-49258c49c7e8",
        "meta": {
          "profile": [
            "http://hl7.eu/fhir/laboratory/StructureDefinition/Observation-resultslab-eu-lab"
          ]
        },
        "performer": [
          {
            "display": "The Central European Lab"
          }
        ],
        "category": [
          {
            "coding": [
              {
                "system": "http://terminology.hl7.org/CodeSystem/observation-category",
                "code": "laboratory"
              }
            ]
          }
        ],
        "code": {
          "coding": [
            {
              "code": "20565-8",
              "system": "http://loinc.org",
              "display": "Carbon dioxide, total [Moles/volume] in Blood"
            }
          ],
          "text": "Carbon dioxide, total [Moles/volume] in Blood"
        },
        "valueQuantity": {
          "system": "http://unitsofmeasure.org",
          "value": 29,
          "unit": "mmol/L",
          "code": "mmol/L"
        },
        "referenceRange": [
          {
            "low": {
              "value": 22,
              "code": "mmol/L",
              "system": "http://unitsofmeasure.org"
            }
          },
          {
            "high": {
              "value": 29,
              "code": "mmol/L",
              "system": "http://unitsofmeasure.org"
            }
          }
        ],
        "text": {
          "status": "generated",
          "div": "<div xmlns=\"http://www.w3.org/1999/xhtml\"><table class=\"hl7__eu__lab__report\"><tr><th>Test</th><th>15-Mar-2022</th><th>Reference&#xA0;Range</th><th>Unit</th></tr><tr><td>Carbon dioxide, total [Moles/volume] in Blood</td><td>29.0</td><td>22 - 29</td><td></td><td>mmol/L</td></tr></table></div>"
        },
        "status": "final",
        "subject": {
          "reference": "urn:uuid:315fde72-9faf-4724-9a65-9f6302f9fb06",
          "display": "Marina Norbiato"
        },
        "effectiveDateTime": "2022-03-15T05:31:43Z",
        "specimen": {
          "reference": "urn:uuid:8523e763-5db8-4d4e-bb56-303b859287a2"
        }
      }
    },
    {
      "fullUrl": "urn:uuid:e318af3c-fd20-4f83-b253-c3e8c50fcbfb",
      "resource": {
        "resourceType": "Device",
        "id": "e318af3c-fd20-4f83-b253-c3e8c50fcbfb",
        "deviceName": [
          {
            "name": "SYNDERAI Synthetic Generator",
            "type": "manufacturer-name"
          }
        ],
        "version": [
          {
            "value": "5.0"
          }
        ],
        "text": {
          "status": "generated",
          "div": "<div xmlns=\"http://www.w3.org/1999/xhtml\">SYNDERAI Synthetic Generator v5.0</div>"
        },
        "status": "active\"",
        "distinctIdentifier": "synderai-generator-50",
        "manufacturer": "SYNDERAI Project"
      }
    },
    {
      "fullUrl": "urn:uuid:c326fc8f-21ad-41d7-a2e5-4d827df33e5e",
      "resource": {
        "resourceType": "Provenance",
        "id": "c326fc8f-21ad-41d7-a2e5-4d827df33e5e",
        "target": [
          {
            "reference": "Patient/315fde72-9faf-4724-9a65-9f6302f9fb06"
          },
          {
            "reference": "Bundle/d18d332b-594d-4c47-9e30-4547872beab7"
          },
          {
            "reference": "Composition/e70b9770-7be7-4acd-ac28-462cd27995bd"
          },
          {
            "reference": "PractitionerRole/36a4633b-cb9a-40cb-babd-0feb77ac1e8e"
          },
          {
            "reference": "Practitioner/9aebba4b-5a84-4839-96ae-ba4a00a968f5"
          },
          {
            "reference": "PractitionerRole/abcd73ab-8b60-44bd-b550-a6a590b5039d"
          },
          {
            "reference": "Organization/61f9af73-97e5-44e6-88fb-1710b6954490"
          }
        ],
        "activity": {
          "text": "Synthetic Example Data Generation"
        },
        "policy": [
          "https://synderai.net/synderai-synthetic-data-policy"
        ],
        "agent": [
          {
            "type": {
              "text": "author"
            },
            "who": {
              "reference": "Device/e318af3c-fd20-4f83-b253-c3e8c50fcbfb"
            }
          }
        ],
        "reason": [
          {
            "text": "Interoperability Testing and Training (non-clinical use)"
          }
        ],
        "text": {
          "status": "generated",
          "div": "<div xmlns=\"http://www.w3.org/1999/xhtml\">Provenance for SYNDERAI Synthetic Example Data Resource</div>"
        },
        "recorded": "2022-03-15T06:31:43Z"
      }
    },
    {
      "fullUrl": "urn:uuid:36a4633b-cb9a-40cb-babd-0feb77ac1e8e",
      "resource": {
        "resourceType": "PractitionerRole",
        "id": "36a4633b-cb9a-40cb-babd-0feb77ac1e8e",
        "meta": {
          "profile": [
            "http://hl7.eu/fhir/base/StructureDefinition/practitionerRole-eu"
          ]
        },
        "text": {
          "status": "generated",
          "div": "<div xmlns=\"http://www.w3.org/1999/xhtml\">Laboratory Role Id: 36a4633b-cb9a-40cb-babd-0feb77ac1e8e</div>"
        },
        "practitioner": {
          "reference": "urn:uuid:9aebba4b-5a84-4839-96ae-ba4a00a968f5"
        }
      }
    },
    {
      "fullUrl": "urn:uuid:9aebba4b-5a84-4839-96ae-ba4a00a968f5",
      "resource": {
        "resourceType": "Practitioner",
        "id": "9aebba4b-5a84-4839-96ae-ba4a00a968f5",
        "meta": {
          "profile": [
            "http://hl7.eu/fhir/base/StructureDefinition/practitioner-eu"
          ]
        },
        "identifier": [
          {
            "assigner": {
              "display": "HL7 Europe"
            },
            "system": "urn:oid:2.16.840.1.113883.2.51.999",
            "value": "b6e5bcdb-ee1e-4190-a139-fa50aac44dfb"
          }
        ],
        "name": [
          {
            "prefix": [
              "dr"
            ],
            "given": [
              "Ex"
            ],
            "family": "Ample"
          }
        ],
        "address": [
          {
            "line": [
              "Laboratoire Central Européenne",
              "Boulevard du Jardin Botanique 32"
            ],
            "postalCode": "1000",
            "city": "Brussels",
            "country": "Belgium"
          }
        ],
        "text": {
          "status": "generated",
          "div": "<div xmlns=\"http://www.w3.org/1999/xhtml\">Laboratory: Laboratoire Central Européenne, 1000 Brussels, Belgium</div>"
        }
      }
    }
  ],
  "type": "document",
  "timestamp": "2022-03-15T06:31:43Z"
}
