{
  "resourceType": "Bundle",
  "id": "a16aac8a-3497-49d9-b0b8-efcbf69cda46",
  "meta": {
    "profile": [
      "http://hl7.eu/fhir/laboratory/StructureDefinition/Bundle-eu-lab"
    ]
  },
  "identifier": {
    "assigner": {
      "display": "HL7 Europe"
    },
    "system": "urn:oid:2.16.840.1.113883.2.51.999",
    "value": "ba4786af-771a-48ab-9390-f2b0823a7767"
  },
  "entry": [
    {
      "fullUrl": "urn:uuid:177bba3a-229e-4c88-9584-0300ce25023d",
      "resource": {
        "resourceType": "Composition",
        "id": "177bba3a-229e-4c88-9584-0300ce25023d",
        "meta": {
          "profile": [
            "http://hl7.eu/fhir/laboratory/StructureDefinition/Composition-eu-lab"
          ]
        },
        "identifier": {
          "assigner": {
            "display": "HL7 Europe"
          },
          "system": "urn:oid:2.16.840.1.113883.2.51.999",
          "value": "796a12cf-a9ac-4061-b1f3-156edb5c970e"
        },
        "author": [
          {
            "reference": "urn:uuid:aadc1928-35e8-4c4f-9247-d0ca05fe0389"
          }
        ],
        "category": [
          {
            "coding": [
              {
                "code": "26436-6",
                "system": "http://loinc.org",
                "display": "Laboratory studies (set)"
              }
            ]
          }
        ],
        "type": {
          "coding": [
            {
              "code": "11502-2",
              "system": "http://loinc.org",
              "display": "Laboratory report"
            }
          ],
          "text": "Laboratory Report"
        },
        "section": [
          {
            "code": {
              "coding": [
                {
                  "code": "26436-6",
                  "system": "http://loinc.org",
                  "display": "Laboratory studies (set)"
                }
              ],
              "text": "Laboratory studies"
            },
            "section": [
              {
                "code": {
                  "coding": [
                    {
                      "code": "$18719-5",
                      "system": "http://loinc.org",
                      "display": "Chemistry studies (set)"
                    }
                  ],
                  "text": "Chemistry"
                },
                "entry": [
                  {
                    "reference": "urn:uuid:f63c7e87-5082-47d3-9916-9e6a53014986"
                  },
                  {
                    "reference": "urn:uuid:e12785f7-6ff6-4e8a-98e2-b9d3f96c4f69"
                  },
                  {
                    "reference": "urn:uuid:41332811-59bb-42ca-a2f1-5823b574f8f6"
                  },
                  {
                    "reference": "urn:uuid:57892f0c-7141-4347-a51d-c770d0feca38"
                  },
                  {
                    "reference": "urn:uuid:fe3d2db5-9124-488a-a7b3-5e04c5ee57af"
                  },
                  {
                    "reference": "urn:uuid:ebb53a33-18be-4749-92b1-22aace2a2429"
                  },
                  {
                    "reference": "urn:uuid:b43e9917-351e-4fe4-b165-60001185fe57"
                  },
                  {
                    "reference": "urn:uuid:a19d7922-8b44-4998-8b72-10767b6da2cd"
                  },
                  {
                    "reference": "urn:uuid:a80cccea-4ffa-4491-99fe-7adb7ea8586d"
                  },
                  {
                    "reference": "urn:uuid:04dee472-f75c-448c-81c6-e3e95629d647"
                  },
                  {
                    "reference": "urn:uuid:14fca1ad-4352-41af-8cc3-88bd3f191a1c"
                  },
                  {
                    "reference": "urn:uuid:204b5afb-f1dc-4ddd-9897-f2bb990d55a5"
                  },
                  {
                    "reference": "urn:uuid:15636816-0abe-4e5a-ba16-84689c557430"
                  }
                ],
                "text": {
                  "status": "generated",
                  "div": "<div xmlns=\"http://www.w3.org/1999/xhtml\"><h3>Chemistry</h3><table class=\"hl7__eu__lab__report\"><thead><tr><th>Test</th><th>14-APR-2024</th><th>Reference&#xA0;Range</th><th>Unit</th></tr></thead><tbody><tr><td>Hemoglobin A1c/Hemoglobin.total in Blood</td><td><strong>6.0 H</strong></td><td>4.8 - 5.7</td><td>%</td></tr><tr><td>Glucose [Mass/volume] in Blood</td><td>70.7</td><td>70 - 140</td><td>mg/dL</td></tr><tr><td>Urea nitrogen [Mass/volume] in Blood</td><td>15.7</td><td>7 - 20</td><td>mg/dL</td></tr><tr><td>Creatinine [Mass/volume] in Blood</td><td>1.0</td><td>0.6 - 1.2</td><td>mg/dL</td></tr><tr><td>Calcium [Mass/volume] in Blood</td><td>9.1</td><td>8.5 - 10.4</td><td>mg/dL</td></tr><tr><td>Sodium [Moles/volume] in Blood</td><td>136.9</td><td>135 - 145</td><td>mmol/L</td></tr><tr><td>Potassium [Moles/volume] in Blood</td><td><strong>5.2 H</strong></td><td>3.5 - 5.1</td><td>mmol/L</td></tr><tr><td>Chloride [Moles/volume] in Blood</td><td>106.1</td><td>98 - 107</td><td>mmol/L</td></tr><tr><td>Carbon dioxide, total [Moles/volume] in Blood</td><td><strong>21.1 L</strong></td><td>22 - 29</td><td>mmol/L</td></tr><tr><td>Cholesterol [Mass/volume] in Serum or Plasma</td><td><strong>200.9 H</strong></td><td>125 - 200</td><td>mg/dL</td></tr><tr><td>Triglyceride [Mass/volume] in Serum or Plasma</td><td>137.4</td><td>35 - 150</td><td>mg/dL</td></tr><tr><td>Cholesterol in LDL [Mass/volume] in Serum or Plasma by Direct assay</td><td>115.1</td><td>0 - 130</td><td>mg/dL</td></tr><tr><td>Cholesterol in HDL [Mass/volume] in Serum or Plasma</td><td>58.3</td><td>40 - 100</td><td>mg/dL</td></tr></tbody></table></div>"
                },
                "title": "Chemistry"
              }
            ],
            "title": "Laboratory Report"
          },
          {
            "text": {
              "status": "generated",
              "div": "<div xmlns=\"http://www.w3.org/1999/xhtml\"><h3>Annotation</h3><table class=\"hl7__eu__lab__report\"><tr><th>Conclusion and Recommendations based on this report and previous findings known to us</th></tr><tr><td>The patient shows mildly elevated HbA1c, suggesting impaired glucose regulation or early diabetes, despite normal fasting glucose. Potassium is slightly high, and total CO₂ is mildly low, which may indicate mild metabolic acidosis or compensation. Total cholesterol is borderline elevated, but LDL and HDL are within target ranges. Renal function and other electrolytes are normal. Recommend further evaluation of glycemic control and possible causes for mild hyperkalemia and low CO₂.</td></tr></table></div>"
            },
            "code": {
              "coding": [
                {
                  "system": "http://loinc.org",
                  "code": "48767-8",
                  "display": "Annotation comment"
                }
              ]
            },
            "title": "Annotation comment"
          }
        ],
        "status": "final",
        "subject": {
          "reference": "urn:uuid:65437256-5b57-48b1-a29f-d2c1ed53fc0a",
          "display": "Katy Johnston"
        },
        "date": "2024-04-14T11:58:49Z",
        "title": "Laboratory Report",
        "confidentiality": "N"
      }
    },
    {
      "fullUrl": "urn:uuid:7f653b8b-e3ab-407d-b513-9efd864b25c4",
      "resource": {
        "resourceType": "DiagnosticReport",
        "id": "7f653b8b-e3ab-407d-b513-9efd864b25c4",
        "meta": {
          "profile": [
            "http://hl7.eu/fhir/laboratory/StructureDefinition/DiagnosticReport-eu-lab"
          ]
        },
        "identifier": [
          {
            "assigner": {
              "display": "HL7 Europe"
            },
            "system": "urn:oid:2.16.840.1.113883.2.51.999",
            "value": "7abe14c4-ab6d-459e-988c-48a049657b3e"
          }
        ],
        "extension": [
          {
            "url": "http://hl7.org/fhir/5.0/StructureDefinition/extension-DiagnosticReport.composition",
            "valueReference": {
              "reference": "urn:uuid:796a12cf-a9ac-4061-b1f3-156edb5c970e"
            }
          }
        ],
        "category": [
          {
            "coding": [
              {
                "code": "26436-6",
                "system": "http://loinc.org",
                "display": "Laboratory studies (set)"
              }
            ]
          }
        ],
        "specimen": [
          {
            "reference": "urn:uuid:66ec3217-cde0-48b8-a93c-7d690be8f3c7"
          },
          {
            "reference": "urn:uuid:1166a7a9-5043-46a9-9e73-0e02fd94dac1"
          }
        ],
        "result": [
          {
            "reference": "urn:uuid:f63c7e87-5082-47d3-9916-9e6a53014986"
          },
          {
            "reference": "urn:uuid:e12785f7-6ff6-4e8a-98e2-b9d3f96c4f69"
          },
          {
            "reference": "urn:uuid:41332811-59bb-42ca-a2f1-5823b574f8f6"
          },
          {
            "reference": "urn:uuid:57892f0c-7141-4347-a51d-c770d0feca38"
          },
          {
            "reference": "urn:uuid:fe3d2db5-9124-488a-a7b3-5e04c5ee57af"
          },
          {
            "reference": "urn:uuid:ebb53a33-18be-4749-92b1-22aace2a2429"
          },
          {
            "reference": "urn:uuid:b43e9917-351e-4fe4-b165-60001185fe57"
          },
          {
            "reference": "urn:uuid:a19d7922-8b44-4998-8b72-10767b6da2cd"
          },
          {
            "reference": "urn:uuid:a80cccea-4ffa-4491-99fe-7adb7ea8586d"
          },
          {
            "reference": "urn:uuid:04dee472-f75c-448c-81c6-e3e95629d647"
          },
          {
            "reference": "urn:uuid:14fca1ad-4352-41af-8cc3-88bd3f191a1c"
          },
          {
            "reference": "urn:uuid:204b5afb-f1dc-4ddd-9897-f2bb990d55a5"
          },
          {
            "reference": "urn:uuid:15636816-0abe-4e5a-ba16-84689c557430"
          }
        ],
        "status": "registered",
        "code": {
          "coding": [
            {
              "code": "11502-2",
              "system": "http://loinc.org",
              "display": "Laboratory report"
            }
          ]
        },
        "subject": {
          "reference": "urn:uuid:65437256-5b57-48b1-a29f-d2c1ed53fc0a",
          "display": "Katy Johnston"
        }
      }
    },
    {
      "fullUrl": "urn:uuid:65437256-5b57-48b1-a29f-d2c1ed53fc0a",
      "resource": {
        "resourceType": "Patient",
        "id": "65437256-5b57-48b1-a29f-d2c1ed53fc0a",
        "meta": {
          "security": [
            {
              "system": "http://terminology.hl7.org/CodeSystem/v3-ActReason",
              "code": "HTEST"
            },
            {
              "system": "http://terminology.hl7.org/CodeSystem/v3-ActReason",
              "code": "TRAIN"
            }
          ],
          "tag": [
            {
              "system": "https://synderai.net/fhir/CodeSystem/tags",
              "code": "synthetic",
              "display": "SYNDERAI Synthetic data"
            }
          ],
          "profile": [
            "http://hl7.eu/fhir/base/StructureDefinition/patient-eu-core"
          ]
        },
        "identifier": [
          {
            "type": {
              "coding": [
                {
                  "code": "PT",
                  "system": "http://terminology.hl7.org/CodeSystem/v2-0203"
                }
              ]
            },
            "system": "http://ec.europa.eu/identifier/eci",
            "value": "1854-452946-6"
          },
          {
            "type": {
              "coding": [
                {
                  "code": "MR",
                  "system": "http://terminology.hl7.org/CodeSystem/v2-0203"
                }
              ]
            },
            "system": "http://local.setting.eu/identifier",
            "value": "f94741cf-8405-9657-1aec-b3bd1788b46e"
          }
        ],
        "name": [
          {
            "family": "Johnston"
          },
          {
            "given": [
              "Katy"
            ]
          },
          {
            "text": "Katy Johnston"
          }
        ],
        "address": [
          {
            "line": [
              "Flat 16f",
              "Stokes roads"
            ],
            "use": "home",
            "type": "physical",
            "postalCode": "E1",
            "city": "London",
            "country": "United Kingdom"
          }
        ],
        "telecom": [
          {
            "system": "phone",
            "value": "+44808 1570256"
          }
        ],
        "extension": [
          {
            "url": "http://hl7.org/fhir/StructureDefinition/patient-nationality",
            "valueCodeableConcept": {
              "coding": [
                {
                  "code": "GB",
                  "system": "http://hl7.org/fhir/ValueSet/country"
                }
              ]
            }
          }
        ],
        "text": {
          "status": "generated",
          "div": "<div xmlns=\"http://www.w3.org/1999/xhtml\"><table class=\"hl7__ips\"><tr><td>Katy Johnston</td><td>female</td><td>19-Sep-1988</td></tr></table></div>"
        },
        "gender": "female",
        "birthDate": "1988-09-19"
      }
    },
    {
      "fullUrl": "urn:uuid:ad3c419e-ff53-4f18-b769-d15aa3a59ae4",
      "resource": {
        "resourceType": "ServiceRequest",
        "id": "ad3c419e-ff53-4f18-b769-d15aa3a59ae4",
        "meta": {
          "profile": [
            "http://hl7.eu/fhir/laboratory/StructureDefinition/ServiceRequest-eu-lab"
          ]
        },
        "identifier": [
          {
            "system": "http://example.org",
            "value": "49567012-6340-4aaa-86b5-8e2070f9f37a"
          }
        ],
        "specimen": [
          {
            "reference": "urn:uuid:66ec3217-cde0-48b8-a93c-7d690be8f3c7"
          },
          {
            "reference": "urn:uuid:1166a7a9-5043-46a9-9e73-0e02fd94dac1"
          }
        ],
        "reasonCode": [
          {
            "coding": [
              {
                "code": "284549007",
                "system": "http://snomed.info/sct",
                "display": "Laceration of hand"
              }
            ]
          },
          {
            "coding": [
              {
                "code": "312608009",
                "system": "http://snomed.info/sct",
                "display": "Laceration - injury"
              }
            ]
          },
          {
            "coding": [
              {
                "code": "15777000",
                "system": "http://snomed.info/sct",
                "display": "Prediabetes"
              }
            ]
          },
          {
            "coding": [
              {
                "code": "271737000",
                "system": "http://snomed.info/sct",
                "display": "Anemia"
              }
            ]
          },
          {
            "coding": [
              {
                "code": "203082005",
                "system": "http://snomed.info/sct",
                "display": "Fibromyalgia"
              }
            ]
          },
          {
            "coding": [
              {
                "code": "6525002",
                "system": "http://snomed.info/sct",
                "display": "Dependent drug abuse"
              }
            ]
          },
          {
            "coding": [
              {
                "code": "124171000119105",
                "system": "http://snomed.info/sct",
                "display": "Chronic intractable migraine without aura"
              }
            ]
          },
          {
            "coding": [
              {
                "code": "196416002",
                "system": "http://snomed.info/sct",
                "display": "Impacted molars"
              }
            ]
          }
        ],
        "status": "active",
        "intent": "order",
        "code": {
          "coding": [
            {
              "code": "108252007",
              "system": "http://snomed.info/sct",
              "display": "Laboratory procedure"
            }
          ]
        },
        "subject": {
          "reference": "urn:uuid:65437256-5b57-48b1-a29f-d2c1ed53fc0a",
          "display": "Katy Johnston"
        },
        "requester": {
          "reference": "urn:uuid:c3217c37-abd0-43c8-943b-0c7408baac5e"
        }
      }
    },
    {
      "fullUrl": "urn:uuid:c3217c37-abd0-43c8-943b-0c7408baac5e",
      "resource": {
        "resourceType": "PractitionerRole",
        "id": "c3217c37-abd0-43c8-943b-0c7408baac5e",
        "meta": {
          "profile": [
            "http://hl7.eu/fhir/base/StructureDefinition/practitionerRole-eu"
          ]
        },
        "text": {
          "status": "generated",
          "div": "<div xmlns=\"http://www.w3.org/1999/xhtml\">Provider Role Id: c3217c37-abd0-43c8-943b-0c7408baac5e</div>"
        },
        "organization": {
          "reference": "urn:uuid:956c66e3-2cd9-4e6c-aa96-fce081d68959"
        }
      }
    },
    {
      "fullUrl": "urn:uuid:956c66e3-2cd9-4e6c-aa96-fce081d68959",
      "resource": {
        "resourceType": "Organization",
        "id": "956c66e3-2cd9-4e6c-aa96-fce081d68959",
        "meta": {
          "profile": [
            "http://hl7.eu/fhir/base/StructureDefinition/organization-eu"
          ]
        },
        "identifier": [
          {
            "assigner": {
              "display": "HL7 Europe"
            },
            "system": "urn:oid:2.16.840.1.113883.2.51.999",
            "value": "5674e0bb-c46a-4e0e-8e14-14a6a4305939"
          }
        ],
        "address": [
          {
            "city": "London",
            "postalCode": "SE1 7",
            "country": "United Kingdom"
          }
        ],
        "text": {
          "status": "generated",
          "div": "<div xmlns=\"http://www.w3.org/1999/xhtml\">Provider Organization: Evelina Children&#039;s Hospital</div>"
        },
        "name": "Evelina Children&#039;s Hospital"
      }
    },
    {
      "fullUrl": "urn:uuid:66ec3217-cde0-48b8-a93c-7d690be8f3c7",
      "resource": {
        "resourceType": "Specimen",
        "id": "66ec3217-cde0-48b8-a93c-7d690be8f3c7",
        "meta": {
          "profile": [
            "http://hl7.eu/fhir/laboratory/StructureDefinition/Specimen-eu-lab"
          ]
        },
        "collection": {
          "collectedDateTime": "2024-04-14"
        },
        "text": {
          "status": "generated",
          "div": "<div xmlns=\"http://www.w3.org/1999/xhtml\"><table class=\"hl7__eu__lab__report\"><tr><th>Specimen</th><th>Collection Date</th></tr><tr><td>Whole blood specimen (specimen)</td><td><span class=\"nb\">14-Apr-2024</span></td></tr></table></div>"
        },
        "type": {
          "coding": [
            {
              "code": "258580003",
              "system": "http://snomed.info/sct",
              "display": "Whole blood specimen (specimen)"
            }
          ]
        }
      }
    },
    {
      "fullUrl": "urn:uuid:1166a7a9-5043-46a9-9e73-0e02fd94dac1",
      "resource": {
        "resourceType": "Specimen",
        "id": "1166a7a9-5043-46a9-9e73-0e02fd94dac1",
        "meta": {
          "profile": [
            "http://hl7.eu/fhir/laboratory/StructureDefinition/Specimen-eu-lab"
          ]
        },
        "collection": {
          "collectedDateTime": "2024-04-14"
        },
        "text": {
          "status": "generated",
          "div": "<div xmlns=\"http://www.w3.org/1999/xhtml\"><table class=\"hl7__eu__lab__report\"><tr><th>Specimen</th><th>Collection Date</th></tr><tr><td>Acellular blood (serum or plasma) specimen</td><td><span class=\"nb\">14-Apr-2024</span></td></tr></table></div>"
        },
        "type": {
          "coding": [
            {
              "code": "122592007",
              "system": "http://snomed.info/sct",
              "display": "Acellular blood (serum or plasma) specimen"
            }
          ]
        }
      }
    },
    {
      "fullUrl": "urn:uuid:f63c7e87-5082-47d3-9916-9e6a53014986",
      "resource": {
        "resourceType": "Observation",
        "id": "f63c7e87-5082-47d3-9916-9e6a53014986",
        "meta": {
          "profile": [
            "http://hl7.eu/fhir/laboratory/StructureDefinition/Observation-resultslab-eu-lab"
          ]
        },
        "performer": [
          {
            "display": "The Central European Lab"
          }
        ],
        "category": [
          {
            "coding": [
              {
                "system": "http://terminology.hl7.org/CodeSystem/observation-category",
                "code": "laboratory"
              }
            ]
          }
        ],
        "code": {
          "coding": [
            {
              "code": "4548-4",
              "system": "http://loinc.org",
              "display": "Hemoglobin A1c/Hemoglobin.total in Blood"
            }
          ],
          "text": "Hemoglobin A1c/Hemoglobin.total in Blood"
        },
        "valueQuantity": {
          "system": "http://unitsofmeasure.org",
          "value": 6,
          "unit": "%",
          "code": "%"
        },
        "referenceRange": [
          {
            "low": {
              "value": 4.8,
              "code": "%",
              "system": "http://unitsofmeasure.org"
            }
          },
          {
            "high": {
              "value": 5.7,
              "code": "%",
              "system": "http://unitsofmeasure.org"
            }
          }
        ],
        "interpretation": [
          {
            "coding": [
              {
                "code": "H",
                "system": "http://terminology.hl7.org/CodeSystem/v3-ObservationInterpretation",
                "display": "High"
              }
            ]
          }
        ],
        "text": {
          "status": "generated",
          "div": "<div xmlns=\"http://www.w3.org/1999/xhtml\"><table class=\"hl7__eu__lab__report\"><tr><th>Test</th><th>14-Apr-2024</th><th>Reference&#xA0;Range</th><th>Unit</th></tr><tr><td>Hemoglobin A1c/Hemoglobin.total in Blood</td><td>6.0</td><td>4.8 - 5.7</td><td>H</td><td>%</td></tr></table></div>"
        },
        "status": "final",
        "subject": {
          "reference": "urn:uuid:65437256-5b57-48b1-a29f-d2c1ed53fc0a",
          "display": "Katy Johnston"
        },
        "effectiveDateTime": "2024-04-14T09:58:49Z",
        "specimen": {
          "reference": "urn:uuid:66ec3217-cde0-48b8-a93c-7d690be8f3c7"
        }
      }
    },
    {
      "fullUrl": "urn:uuid:e12785f7-6ff6-4e8a-98e2-b9d3f96c4f69",
      "resource": {
        "resourceType": "Observation",
        "id": "e12785f7-6ff6-4e8a-98e2-b9d3f96c4f69",
        "meta": {
          "profile": [
            "http://hl7.eu/fhir/laboratory/StructureDefinition/Observation-resultslab-eu-lab"
          ]
        },
        "performer": [
          {
            "display": "The Central European Lab"
          }
        ],
        "category": [
          {
            "coding": [
              {
                "system": "http://terminology.hl7.org/CodeSystem/observation-category",
                "code": "laboratory"
              }
            ]
          }
        ],
        "code": {
          "coding": [
            {
              "code": "2339-0",
              "system": "http://loinc.org",
              "display": "Glucose [Mass/volume] in Blood"
            }
          ],
          "text": "Glucose [Mass/volume] in Blood"
        },
        "valueQuantity": {
          "system": "http://unitsofmeasure.org",
          "value": 70.7,
          "unit": "mg/dL",
          "code": "mg/dL"
        },
        "referenceRange": [
          {
            "low": {
              "value": 70,
              "code": "mg/dL",
              "system": "http://unitsofmeasure.org"
            }
          },
          {
            "high": {
              "value": 140,
              "code": "mg/dL",
              "system": "http://unitsofmeasure.org"
            }
          }
        ],
        "text": {
          "status": "generated",
          "div": "<div xmlns=\"http://www.w3.org/1999/xhtml\"><table class=\"hl7__eu__lab__report\"><tr><th>Test</th><th>14-Apr-2024</th><th>Reference&#xA0;Range</th><th>Unit</th></tr><tr><td>Glucose [Mass/volume] in Blood</td><td>70.7</td><td>70 - 140</td><td></td><td>mg/dL</td></tr></table></div>"
        },
        "status": "final",
        "subject": {
          "reference": "urn:uuid:65437256-5b57-48b1-a29f-d2c1ed53fc0a",
          "display": "Katy Johnston"
        },
        "effectiveDateTime": "2024-04-14T09:58:49Z",
        "specimen": {
          "reference": "urn:uuid:66ec3217-cde0-48b8-a93c-7d690be8f3c7"
        }
      }
    },
    {
      "fullUrl": "urn:uuid:41332811-59bb-42ca-a2f1-5823b574f8f6",
      "resource": {
        "resourceType": "Observation",
        "id": "41332811-59bb-42ca-a2f1-5823b574f8f6",
        "meta": {
          "profile": [
            "http://hl7.eu/fhir/laboratory/StructureDefinition/Observation-resultslab-eu-lab"
          ]
        },
        "performer": [
          {
            "display": "The Central European Lab"
          }
        ],
        "category": [
          {
            "coding": [
              {
                "system": "http://terminology.hl7.org/CodeSystem/observation-category",
                "code": "laboratory"
              }
            ]
          }
        ],
        "code": {
          "coding": [
            {
              "code": "6299-2",
              "system": "http://loinc.org",
              "display": "Urea nitrogen [Mass/volume] in Blood"
            }
          ],
          "text": "Urea nitrogen [Mass/volume] in Blood"
        },
        "valueQuantity": {
          "system": "http://unitsofmeasure.org",
          "value": 15.7,
          "unit": "mg/dL",
          "code": "mg/dL"
        },
        "referenceRange": [
          {
            "low": {
              "value": 7,
              "code": "mg/dL",
              "system": "http://unitsofmeasure.org"
            }
          },
          {
            "high": {
              "value": 20,
              "code": "mg/dL",
              "system": "http://unitsofmeasure.org"
            }
          }
        ],
        "text": {
          "status": "generated",
          "div": "<div xmlns=\"http://www.w3.org/1999/xhtml\"><table class=\"hl7__eu__lab__report\"><tr><th>Test</th><th>14-Apr-2024</th><th>Reference&#xA0;Range</th><th>Unit</th></tr><tr><td>Urea nitrogen [Mass/volume] in Blood</td><td>15.7</td><td>7 - 20</td><td></td><td>mg/dL</td></tr></table></div>"
        },
        "status": "final",
        "subject": {
          "reference": "urn:uuid:65437256-5b57-48b1-a29f-d2c1ed53fc0a",
          "display": "Katy Johnston"
        },
        "effectiveDateTime": "2024-04-14T09:58:49Z",
        "specimen": {
          "reference": "urn:uuid:66ec3217-cde0-48b8-a93c-7d690be8f3c7"
        }
      }
    },
    {
      "fullUrl": "urn:uuid:57892f0c-7141-4347-a51d-c770d0feca38",
      "resource": {
        "resourceType": "Observation",
        "id": "57892f0c-7141-4347-a51d-c770d0feca38",
        "meta": {
          "profile": [
            "http://hl7.eu/fhir/laboratory/StructureDefinition/Observation-resultslab-eu-lab"
          ]
        },
        "performer": [
          {
            "display": "The Central European Lab"
          }
        ],
        "category": [
          {
            "coding": [
              {
                "system": "http://terminology.hl7.org/CodeSystem/observation-category",
                "code": "laboratory"
              }
            ]
          }
        ],
        "code": {
          "coding": [
            {
              "code": "38483-4",
              "system": "http://loinc.org",
              "display": "Creatinine [Mass/volume] in Blood"
            }
          ],
          "text": "Creatinine [Mass/volume] in Blood"
        },
        "valueQuantity": {
          "system": "http://unitsofmeasure.org",
          "value": 1,
          "unit": "mg/dL",
          "code": "mg/dL"
        },
        "referenceRange": [
          {
            "low": {
              "value": 0.6,
              "code": "mg/dL",
              "system": "http://unitsofmeasure.org"
            }
          },
          {
            "high": {
              "value": 1.2,
              "code": "mg/dL",
              "system": "http://unitsofmeasure.org"
            }
          }
        ],
        "text": {
          "status": "generated",
          "div": "<div xmlns=\"http://www.w3.org/1999/xhtml\"><table class=\"hl7__eu__lab__report\"><tr><th>Test</th><th>14-Apr-2024</th><th>Reference&#xA0;Range</th><th>Unit</th></tr><tr><td>Creatinine [Mass/volume] in Blood</td><td>1.0</td><td>0.6 - 1.2</td><td></td><td>mg/dL</td></tr></table></div>"
        },
        "status": "final",
        "subject": {
          "reference": "urn:uuid:65437256-5b57-48b1-a29f-d2c1ed53fc0a",
          "display": "Katy Johnston"
        },
        "effectiveDateTime": "2024-04-14T09:58:49Z",
        "specimen": {
          "reference": "urn:uuid:66ec3217-cde0-48b8-a93c-7d690be8f3c7"
        }
      }
    },
    {
      "fullUrl": "urn:uuid:fe3d2db5-9124-488a-a7b3-5e04c5ee57af",
      "resource": {
        "resourceType": "Observation",
        "id": "fe3d2db5-9124-488a-a7b3-5e04c5ee57af",
        "meta": {
          "profile": [
            "http://hl7.eu/fhir/laboratory/StructureDefinition/Observation-resultslab-eu-lab"
          ]
        },
        "performer": [
          {
            "display": "The Central European Lab"
          }
        ],
        "category": [
          {
            "coding": [
              {
                "system": "http://terminology.hl7.org/CodeSystem/observation-category",
                "code": "laboratory"
              }
            ]
          }
        ],
        "code": {
          "coding": [
            {
              "code": "49765-1",
              "system": "http://loinc.org",
              "display": "Calcium [Mass/volume] in Blood"
            }
          ],
          "text": "Calcium [Mass/volume] in Blood"
        },
        "valueQuantity": {
          "system": "http://unitsofmeasure.org",
          "value": 9.1,
          "unit": "mg/dL",
          "code": "mg/dL"
        },
        "referenceRange": [
          {
            "low": {
              "value": 8.5,
              "code": "mg/dL",
              "system": "http://unitsofmeasure.org"
            }
          },
          {
            "high": {
              "value": 10.4,
              "code": "mg/dL",
              "system": "http://unitsofmeasure.org"
            }
          }
        ],
        "text": {
          "status": "generated",
          "div": "<div xmlns=\"http://www.w3.org/1999/xhtml\"><table class=\"hl7__eu__lab__report\"><tr><th>Test</th><th>14-Apr-2024</th><th>Reference&#xA0;Range</th><th>Unit</th></tr><tr><td>Calcium [Mass/volume] in Blood</td><td>9.1</td><td>8.5 - 10.4</td><td></td><td>mg/dL</td></tr></table></div>"
        },
        "status": "final",
        "subject": {
          "reference": "urn:uuid:65437256-5b57-48b1-a29f-d2c1ed53fc0a",
          "display": "Katy Johnston"
        },
        "effectiveDateTime": "2024-04-14T09:58:49Z",
        "specimen": {
          "reference": "urn:uuid:66ec3217-cde0-48b8-a93c-7d690be8f3c7"
        }
      }
    },
    {
      "fullUrl": "urn:uuid:ebb53a33-18be-4749-92b1-22aace2a2429",
      "resource": {
        "resourceType": "Observation",
        "id": "ebb53a33-18be-4749-92b1-22aace2a2429",
        "meta": {
          "profile": [
            "http://hl7.eu/fhir/laboratory/StructureDefinition/Observation-resultslab-eu-lab"
          ]
        },
        "performer": [
          {
            "display": "The Central European Lab"
          }
        ],
        "category": [
          {
            "coding": [
              {
                "system": "http://terminology.hl7.org/CodeSystem/observation-category",
                "code": "laboratory"
              }
            ]
          }
        ],
        "code": {
          "coding": [
            {
              "code": "2947-0",
              "system": "http://loinc.org",
              "display": "Sodium [Moles/volume] in Blood"
            }
          ],
          "text": "Sodium [Moles/volume] in Blood"
        },
        "valueQuantity": {
          "system": "http://unitsofmeasure.org",
          "value": 136.9,
          "unit": "mmol/L",
          "code": "mmol/L"
        },
        "referenceRange": [
          {
            "low": {
              "value": 135,
              "code": "mmol/L",
              "system": "http://unitsofmeasure.org"
            }
          },
          {
            "high": {
              "value": 145,
              "code": "mmol/L",
              "system": "http://unitsofmeasure.org"
            }
          }
        ],
        "text": {
          "status": "generated",
          "div": "<div xmlns=\"http://www.w3.org/1999/xhtml\"><table class=\"hl7__eu__lab__report\"><tr><th>Test</th><th>14-Apr-2024</th><th>Reference&#xA0;Range</th><th>Unit</th></tr><tr><td>Sodium [Moles/volume] in Blood</td><td>136.9</td><td>135 - 145</td><td></td><td>mmol/L</td></tr></table></div>"
        },
        "status": "final",
        "subject": {
          "reference": "urn:uuid:65437256-5b57-48b1-a29f-d2c1ed53fc0a",
          "display": "Katy Johnston"
        },
        "effectiveDateTime": "2024-04-14T09:58:49Z",
        "specimen": {
          "reference": "urn:uuid:66ec3217-cde0-48b8-a93c-7d690be8f3c7"
        }
      }
    },
    {
      "fullUrl": "urn:uuid:b43e9917-351e-4fe4-b165-60001185fe57",
      "resource": {
        "resourceType": "Observation",
        "id": "b43e9917-351e-4fe4-b165-60001185fe57",
        "meta": {
          "profile": [
            "http://hl7.eu/fhir/laboratory/StructureDefinition/Observation-resultslab-eu-lab"
          ]
        },
        "performer": [
          {
            "display": "The Central European Lab"
          }
        ],
        "category": [
          {
            "coding": [
              {
                "system": "http://terminology.hl7.org/CodeSystem/observation-category",
                "code": "laboratory"
              }
            ]
          }
        ],
        "code": {
          "coding": [
            {
              "code": "6298-4",
              "system": "http://loinc.org",
              "display": "Potassium [Moles/volume] in Blood"
            }
          ],
          "text": "Potassium [Moles/volume] in Blood"
        },
        "valueQuantity": {
          "system": "http://unitsofmeasure.org",
          "value": 5.2,
          "unit": "mmol/L",
          "code": "mmol/L"
        },
        "referenceRange": [
          {
            "low": {
              "value": 3.5,
              "code": "mmol/L",
              "system": "http://unitsofmeasure.org"
            }
          },
          {
            "high": {
              "value": 5.1,
              "code": "mmol/L",
              "system": "http://unitsofmeasure.org"
            }
          }
        ],
        "interpretation": [
          {
            "coding": [
              {
                "code": "H",
                "system": "http://terminology.hl7.org/CodeSystem/v3-ObservationInterpretation",
                "display": "High"
              }
            ]
          }
        ],
        "text": {
          "status": "generated",
          "div": "<div xmlns=\"http://www.w3.org/1999/xhtml\"><table class=\"hl7__eu__lab__report\"><tr><th>Test</th><th>14-Apr-2024</th><th>Reference&#xA0;Range</th><th>Unit</th></tr><tr><td>Potassium [Moles/volume] in Blood</td><td>5.2</td><td>3.5 - 5.1</td><td>H</td><td>mmol/L</td></tr></table></div>"
        },
        "status": "final",
        "subject": {
          "reference": "urn:uuid:65437256-5b57-48b1-a29f-d2c1ed53fc0a",
          "display": "Katy Johnston"
        },
        "effectiveDateTime": "2024-04-14T09:58:49Z",
        "specimen": {
          "reference": "urn:uuid:66ec3217-cde0-48b8-a93c-7d690be8f3c7"
        }
      }
    },
    {
      "fullUrl": "urn:uuid:a19d7922-8b44-4998-8b72-10767b6da2cd",
      "resource": {
        "resourceType": "Observation",
        "id": "a19d7922-8b44-4998-8b72-10767b6da2cd",
        "meta": {
          "profile": [
            "http://hl7.eu/fhir/laboratory/StructureDefinition/Observation-resultslab-eu-lab"
          ]
        },
        "performer": [
          {
            "display": "The Central European Lab"
          }
        ],
        "category": [
          {
            "coding": [
              {
                "system": "http://terminology.hl7.org/CodeSystem/observation-category",
                "code": "laboratory"
              }
            ]
          }
        ],
        "code": {
          "coding": [
            {
              "code": "2069-3",
              "system": "http://loinc.org",
              "display": "Chloride [Moles/volume] in Blood"
            }
          ],
          "text": "Chloride [Moles/volume] in Blood"
        },
        "valueQuantity": {
          "system": "http://unitsofmeasure.org",
          "value": 106.1,
          "unit": "mmol/L",
          "code": "mmol/L"
        },
        "referenceRange": [
          {
            "low": {
              "value": 98,
              "code": "mmol/L",
              "system": "http://unitsofmeasure.org"
            }
          },
          {
            "high": {
              "value": 107,
              "code": "mmol/L",
              "system": "http://unitsofmeasure.org"
            }
          }
        ],
        "text": {
          "status": "generated",
          "div": "<div xmlns=\"http://www.w3.org/1999/xhtml\"><table class=\"hl7__eu__lab__report\"><tr><th>Test</th><th>14-Apr-2024</th><th>Reference&#xA0;Range</th><th>Unit</th></tr><tr><td>Chloride [Moles/volume] in Blood</td><td>106.1</td><td>98 - 107</td><td></td><td>mmol/L</td></tr></table></div>"
        },
        "status": "final",
        "subject": {
          "reference": "urn:uuid:65437256-5b57-48b1-a29f-d2c1ed53fc0a",
          "display": "Katy Johnston"
        },
        "effectiveDateTime": "2024-04-14T09:58:49Z",
        "specimen": {
          "reference": "urn:uuid:66ec3217-cde0-48b8-a93c-7d690be8f3c7"
        }
      }
    },
    {
      "fullUrl": "urn:uuid:a80cccea-4ffa-4491-99fe-7adb7ea8586d",
      "resource": {
        "resourceType": "Observation",
        "id": "a80cccea-4ffa-4491-99fe-7adb7ea8586d",
        "meta": {
          "profile": [
            "http://hl7.eu/fhir/laboratory/StructureDefinition/Observation-resultslab-eu-lab"
          ]
        },
        "performer": [
          {
            "display": "The Central European Lab"
          }
        ],
        "category": [
          {
            "coding": [
              {
                "system": "http://terminology.hl7.org/CodeSystem/observation-category",
                "code": "laboratory"
              }
            ]
          }
        ],
        "code": {
          "coding": [
            {
              "code": "20565-8",
              "system": "http://loinc.org",
              "display": "Carbon dioxide, total [Moles/volume] in Blood"
            }
          ],
          "text": "Carbon dioxide, total [Moles/volume] in Blood"
        },
        "valueQuantity": {
          "system": "http://unitsofmeasure.org",
          "value": 21.1,
          "unit": "mmol/L",
          "code": "mmol/L"
        },
        "referenceRange": [
          {
            "low": {
              "value": 22,
              "code": "mmol/L",
              "system": "http://unitsofmeasure.org"
            }
          },
          {
            "high": {
              "value": 29,
              "code": "mmol/L",
              "system": "http://unitsofmeasure.org"
            }
          }
        ],
        "interpretation": [
          {
            "coding": [
              {
                "code": "L",
                "system": "http://terminology.hl7.org/CodeSystem/v3-ObservationInterpretation",
                "display": "Low"
              }
            ]
          }
        ],
        "text": {
          "status": "generated",
          "div": "<div xmlns=\"http://www.w3.org/1999/xhtml\"><table class=\"hl7__eu__lab__report\"><tr><th>Test</th><th>14-Apr-2024</th><th>Reference&#xA0;Range</th><th>Unit</th></tr><tr><td>Carbon dioxide, total [Moles/volume] in Blood</td><td>21.1</td><td>22 - 29</td><td>L</td><td>mmol/L</td></tr></table></div>"
        },
        "status": "final",
        "subject": {
          "reference": "urn:uuid:65437256-5b57-48b1-a29f-d2c1ed53fc0a",
          "display": "Katy Johnston"
        },
        "effectiveDateTime": "2024-04-14T09:58:49Z",
        "specimen": {
          "reference": "urn:uuid:66ec3217-cde0-48b8-a93c-7d690be8f3c7"
        }
      }
    },
    {
      "fullUrl": "urn:uuid:04dee472-f75c-448c-81c6-e3e95629d647",
      "resource": {
        "resourceType": "Observation",
        "id": "04dee472-f75c-448c-81c6-e3e95629d647",
        "meta": {
          "profile": [
            "http://hl7.eu/fhir/laboratory/StructureDefinition/Observation-resultslab-eu-lab"
          ]
        },
        "performer": [
          {
            "display": "The Central European Lab"
          }
        ],
        "category": [
          {
            "coding": [
              {
                "system": "http://terminology.hl7.org/CodeSystem/observation-category",
                "code": "laboratory"
              }
            ]
          }
        ],
        "code": {
          "coding": [
            {
              "code": "2093-3",
              "system": "http://loinc.org",
              "display": "Cholesterol [Mass/volume] in Serum or Plasma"
            }
          ],
          "text": "Cholesterol [Mass/volume] in Serum or Plasma"
        },
        "valueQuantity": {
          "system": "http://unitsofmeasure.org",
          "value": 200.9,
          "unit": "mg/dL",
          "code": "mg/dL"
        },
        "referenceRange": [
          {
            "low": {
              "value": 125,
              "code": "mg/dL",
              "system": "http://unitsofmeasure.org"
            }
          },
          {
            "high": {
              "value": 200,
              "code": "mg/dL",
              "system": "http://unitsofmeasure.org"
            }
          }
        ],
        "interpretation": [
          {
            "coding": [
              {
                "code": "H",
                "system": "http://terminology.hl7.org/CodeSystem/v3-ObservationInterpretation",
                "display": "High"
              }
            ]
          }
        ],
        "text": {
          "status": "generated",
          "div": "<div xmlns=\"http://www.w3.org/1999/xhtml\"><table class=\"hl7__eu__lab__report\"><tr><th>Test</th><th>14-Apr-2024</th><th>Reference&#xA0;Range</th><th>Unit</th></tr><tr><td>Cholesterol [Mass/volume] in Serum or Plasma</td><td>200.9</td><td>125 - 200</td><td>H</td><td>mg/dL</td></tr></table></div>"
        },
        "status": "final",
        "subject": {
          "reference": "urn:uuid:65437256-5b57-48b1-a29f-d2c1ed53fc0a",
          "display": "Katy Johnston"
        },
        "effectiveDateTime": "2024-04-14T09:58:49Z",
        "specimen": {
          "reference": "urn:uuid:1166a7a9-5043-46a9-9e73-0e02fd94dac1"
        }
      }
    },
    {
      "fullUrl": "urn:uuid:14fca1ad-4352-41af-8cc3-88bd3f191a1c",
      "resource": {
        "resourceType": "Observation",
        "id": "14fca1ad-4352-41af-8cc3-88bd3f191a1c",
        "meta": {
          "profile": [
            "http://hl7.eu/fhir/laboratory/StructureDefinition/Observation-resultslab-eu-lab"
          ]
        },
        "performer": [
          {
            "display": "The Central European Lab"
          }
        ],
        "category": [
          {
            "coding": [
              {
                "system": "http://terminology.hl7.org/CodeSystem/observation-category",
                "code": "laboratory"
              }
            ]
          }
        ],
        "code": {
          "coding": [
            {
              "code": "2571-8",
              "system": "http://loinc.org",
              "display": "Triglyceride [Mass/volume] in Serum or Plasma"
            }
          ],
          "text": "Triglyceride [Mass/volume] in Serum or Plasma"
        },
        "valueQuantity": {
          "system": "http://unitsofmeasure.org",
          "value": 137.4,
          "unit": "mg/dL",
          "code": "mg/dL"
        },
        "referenceRange": [
          {
            "low": {
              "value": 35,
              "code": "mg/dL",
              "system": "http://unitsofmeasure.org"
            }
          },
          {
            "high": {
              "value": 150,
              "code": "mg/dL",
              "system": "http://unitsofmeasure.org"
            }
          }
        ],
        "text": {
          "status": "generated",
          "div": "<div xmlns=\"http://www.w3.org/1999/xhtml\"><table class=\"hl7__eu__lab__report\"><tr><th>Test</th><th>14-Apr-2024</th><th>Reference&#xA0;Range</th><th>Unit</th></tr><tr><td>Triglyceride [Mass/volume] in Serum or Plasma</td><td>137.4</td><td>35 - 150</td><td></td><td>mg/dL</td></tr></table></div>"
        },
        "status": "final",
        "subject": {
          "reference": "urn:uuid:65437256-5b57-48b1-a29f-d2c1ed53fc0a",
          "display": "Katy Johnston"
        },
        "effectiveDateTime": "2024-04-14T09:58:49Z",
        "specimen": {
          "reference": "urn:uuid:1166a7a9-5043-46a9-9e73-0e02fd94dac1"
        }
      }
    },
    {
      "fullUrl": "urn:uuid:204b5afb-f1dc-4ddd-9897-f2bb990d55a5",
      "resource": {
        "resourceType": "Observation",
        "id": "204b5afb-f1dc-4ddd-9897-f2bb990d55a5",
        "meta": {
          "profile": [
            "http://hl7.eu/fhir/laboratory/StructureDefinition/Observation-resultslab-eu-lab"
          ]
        },
        "performer": [
          {
            "display": "The Central European Lab"
          }
        ],
        "category": [
          {
            "coding": [
              {
                "system": "http://terminology.hl7.org/CodeSystem/observation-category",
                "code": "laboratory"
              }
            ]
          }
        ],
        "code": {
          "coding": [
            {
              "code": "18262-6",
              "system": "http://loinc.org",
              "display": "Cholesterol in LDL [Mass/volume] in Serum or Plasma by Direct assay"
            }
          ],
          "text": "Cholesterol in LDL [Mass/volume] in Serum or Plasma by Direct assay"
        },
        "valueQuantity": {
          "system": "http://unitsofmeasure.org",
          "value": 115.1,
          "unit": "mg/dL",
          "code": "mg/dL"
        },
        "referenceRange": [
          {
            "low": {
              "value": 0,
              "code": "mg/dL",
              "system": "http://unitsofmeasure.org"
            }
          },
          {
            "high": {
              "value": 130,
              "code": "mg/dL",
              "system": "http://unitsofmeasure.org"
            }
          }
        ],
        "text": {
          "status": "generated",
          "div": "<div xmlns=\"http://www.w3.org/1999/xhtml\"><table class=\"hl7__eu__lab__report\"><tr><th>Test</th><th>14-Apr-2024</th><th>Reference&#xA0;Range</th><th>Unit</th></tr><tr><td>Cholesterol in LDL [Mass/volume] in Serum or Plasma by Direct assay</td><td>115.1</td><td>0 - 130</td><td></td><td>mg/dL</td></tr></table></div>"
        },
        "status": "final",
        "subject": {
          "reference": "urn:uuid:65437256-5b57-48b1-a29f-d2c1ed53fc0a",
          "display": "Katy Johnston"
        },
        "effectiveDateTime": "2024-04-14T09:58:49Z",
        "specimen": {
          "reference": "urn:uuid:1166a7a9-5043-46a9-9e73-0e02fd94dac1"
        }
      }
    },
    {
      "fullUrl": "urn:uuid:15636816-0abe-4e5a-ba16-84689c557430",
      "resource": {
        "resourceType": "Observation",
        "id": "15636816-0abe-4e5a-ba16-84689c557430",
        "meta": {
          "profile": [
            "http://hl7.eu/fhir/laboratory/StructureDefinition/Observation-resultslab-eu-lab"
          ]
        },
        "performer": [
          {
            "display": "The Central European Lab"
          }
        ],
        "category": [
          {
            "coding": [
              {
                "system": "http://terminology.hl7.org/CodeSystem/observation-category",
                "code": "laboratory"
              }
            ]
          }
        ],
        "code": {
          "coding": [
            {
              "code": "2085-9",
              "system": "http://loinc.org",
              "display": "Cholesterol in HDL [Mass/volume] in Serum or Plasma"
            }
          ],
          "text": "Cholesterol in HDL [Mass/volume] in Serum or Plasma"
        },
        "valueQuantity": {
          "system": "http://unitsofmeasure.org",
          "value": 58.3,
          "unit": "mg/dL",
          "code": "mg/dL"
        },
        "referenceRange": [
          {
            "low": {
              "value": 40,
              "code": "mg/dL",
              "system": "http://unitsofmeasure.org"
            }
          },
          {
            "high": {
              "value": 100,
              "code": "mg/dL",
              "system": "http://unitsofmeasure.org"
            }
          }
        ],
        "text": {
          "status": "generated",
          "div": "<div xmlns=\"http://www.w3.org/1999/xhtml\"><table class=\"hl7__eu__lab__report\"><tr><th>Test</th><th>14-Apr-2024</th><th>Reference&#xA0;Range</th><th>Unit</th></tr><tr><td>Cholesterol in HDL [Mass/volume] in Serum or Plasma</td><td>58.3</td><td>40 - 100</td><td></td><td>mg/dL</td></tr></table></div>"
        },
        "status": "final",
        "subject": {
          "reference": "urn:uuid:65437256-5b57-48b1-a29f-d2c1ed53fc0a",
          "display": "Katy Johnston"
        },
        "effectiveDateTime": "2024-04-14T09:58:49Z",
        "specimen": {
          "reference": "urn:uuid:1166a7a9-5043-46a9-9e73-0e02fd94dac1"
        }
      }
    },
    {
      "fullUrl": "urn:uuid:f5963fc7-9efd-4d2a-8057-0e9aa1d00ef9",
      "resource": {
        "resourceType": "Device",
        "id": "f5963fc7-9efd-4d2a-8057-0e9aa1d00ef9",
        "deviceName": [
          {
            "name": "SYNDERAI Synthetic Generator",
            "type": "manufacturer-name"
          }
        ],
        "version": [
          {
            "value": "5.0"
          }
        ],
        "text": {
          "status": "generated",
          "div": "<div xmlns=\"http://www.w3.org/1999/xhtml\">SYNDERAI Synthetic Generator v5.0</div>"
        },
        "status": "active\"",
        "distinctIdentifier": "synderai-generator-50",
        "manufacturer": "SYNDERAI Project"
      }
    },
    {
      "fullUrl": "urn:uuid:7da47883-07a4-4945-92a3-3d954069e715",
      "resource": {
        "resourceType": "Provenance",
        "id": "7da47883-07a4-4945-92a3-3d954069e715",
        "target": [
          {
            "reference": "Patient/65437256-5b57-48b1-a29f-d2c1ed53fc0a"
          },
          {
            "reference": "Bundle/a16aac8a-3497-49d9-b0b8-efcbf69cda46"
          },
          {
            "reference": "Composition/177bba3a-229e-4c88-9584-0300ce25023d"
          },
          {
            "reference": "PractitionerRole/aadc1928-35e8-4c4f-9247-d0ca05fe0389"
          },
          {
            "reference": "Practitioner/2afbcf02-6964-481f-89f1-ee3a0e32c25b"
          },
          {
            "reference": "PractitionerRole/c3217c37-abd0-43c8-943b-0c7408baac5e"
          },
          {
            "reference": "Organization/956c66e3-2cd9-4e6c-aa96-fce081d68959"
          }
        ],
        "activity": {
          "text": "Synthetic Example Data Generation"
        },
        "policy": [
          "https://synderai.net/synderai-synthetic-data-policy"
        ],
        "agent": [
          {
            "type": {
              "text": "author"
            },
            "who": {
              "reference": "Device/f5963fc7-9efd-4d2a-8057-0e9aa1d00ef9"
            }
          }
        ],
        "reason": [
          {
            "text": "Interoperability Testing and Training (non-clinical use)"
          }
        ],
        "text": {
          "status": "generated",
          "div": "<div xmlns=\"http://www.w3.org/1999/xhtml\">Provenance for SYNDERAI Synthetic Example Data Resource</div>"
        },
        "recorded": "2024-04-14T11:58:49Z"
      }
    },
    {
      "fullUrl": "urn:uuid:aadc1928-35e8-4c4f-9247-d0ca05fe0389",
      "resource": {
        "resourceType": "PractitionerRole",
        "id": "aadc1928-35e8-4c4f-9247-d0ca05fe0389",
        "meta": {
          "profile": [
            "http://hl7.eu/fhir/base/StructureDefinition/practitionerRole-eu"
          ]
        },
        "text": {
          "status": "generated",
          "div": "<div xmlns=\"http://www.w3.org/1999/xhtml\">Laboratory Role Id: aadc1928-35e8-4c4f-9247-d0ca05fe0389</div>"
        },
        "practitioner": {
          "reference": "urn:uuid:2afbcf02-6964-481f-89f1-ee3a0e32c25b"
        }
      }
    },
    {
      "fullUrl": "urn:uuid:2afbcf02-6964-481f-89f1-ee3a0e32c25b",
      "resource": {
        "resourceType": "Practitioner",
        "id": "2afbcf02-6964-481f-89f1-ee3a0e32c25b",
        "meta": {
          "profile": [
            "http://hl7.eu/fhir/base/StructureDefinition/practitioner-eu"
          ]
        },
        "identifier": [
          {
            "assigner": {
              "display": "HL7 Europe"
            },
            "system": "urn:oid:2.16.840.1.113883.2.51.999",
            "value": "33c07191-070d-4cf5-b170-f04371eba132"
          }
        ],
        "name": [
          {
            "prefix": [
              "dr"
            ],
            "given": [
              "Ex"
            ],
            "family": "Ample"
          }
        ],
        "address": [
          {
            "line": [
              "Laboratoire Central Européenne",
              "Boulevard du Jardin Botanique 32"
            ],
            "postalCode": "1000",
            "city": "Brussels",
            "country": "Belgium"
          }
        ],
        "text": {
          "status": "generated",
          "div": "<div xmlns=\"http://www.w3.org/1999/xhtml\">Laboratory: Laboratoire Central Européenne, 1000 Brussels, Belgium</div>"
        }
      }
    }
  ],
  "type": "document",
  "timestamp": "2024-04-14T11:58:49Z"
}
