{
  "resourceType": "Bundle",
  "id": "b7984923-5c67-421f-a9bb-754fa0f1443b",
  "meta": {
    "profile": [
      "http://hl7.eu/fhir/laboratory/StructureDefinition/Bundle-eu-lab"
    ]
  },
  "identifier": {
    "assigner": {
      "display": "HL7 Europe"
    },
    "system": "urn:oid:2.16.840.1.113883.2.51.999",
    "value": "77eb309d-c8d0-417e-9e14-ecf34563b030"
  },
  "entry": [
    {
      "fullUrl": "urn:uuid:155354f6-0841-48ca-b6a2-49eff0d0266d",
      "resource": {
        "resourceType": "Composition",
        "id": "155354f6-0841-48ca-b6a2-49eff0d0266d",
        "meta": {
          "profile": [
            "http://hl7.eu/fhir/laboratory/StructureDefinition/Composition-eu-lab"
          ]
        },
        "identifier": {
          "assigner": {
            "display": "HL7 Europe"
          },
          "system": "urn:oid:2.16.840.1.113883.2.51.999",
          "value": "e1c88084-4988-4c82-a6cf-90222ee38a8e"
        },
        "author": [
          {
            "reference": "urn:uuid:8e1cf9f2-ae3d-4c41-9cba-11dd6aba0558"
          }
        ],
        "category": [
          {
            "coding": [
              {
                "code": "26436-6",
                "system": "http://loinc.org",
                "display": "Laboratory studies (set)"
              }
            ]
          }
        ],
        "type": {
          "coding": [
            {
              "code": "11502-2",
              "system": "http://loinc.org",
              "display": "Laboratory report"
            }
          ],
          "text": "Laboratory Report"
        },
        "section": [
          {
            "code": {
              "coding": [
                {
                  "code": "26436-6",
                  "system": "http://loinc.org",
                  "display": "Laboratory studies (set)"
                }
              ],
              "text": "Laboratory studies"
            },
            "section": [
              {
                "code": {
                  "coding": [
                    {
                      "code": "$18719-5",
                      "system": "http://loinc.org",
                      "display": "Chemistry studies (set)"
                    }
                  ],
                  "text": "Chemistry"
                },
                "entry": [
                  {
                    "reference": "urn:uuid:96a4ce7b-1b99-40e5-ae44-d264fbc537ad"
                  },
                  {
                    "reference": "urn:uuid:fda7ddb2-f992-4fdb-ac86-269a25478549"
                  },
                  {
                    "reference": "urn:uuid:a04b7387-8212-4559-b5fb-9f924a91ff2e"
                  },
                  {
                    "reference": "urn:uuid:93400a9c-aa47-4b00-99d3-60fd3da13ff9"
                  },
                  {
                    "reference": "urn:uuid:94ae4f6b-166b-44f2-83aa-4cc3c01b543f"
                  },
                  {
                    "reference": "urn:uuid:195392a4-87bf-4584-97b2-ab73494d2507"
                  },
                  {
                    "reference": "urn:uuid:37d44fc4-dc96-495f-992b-3553e7a38fe7"
                  },
                  {
                    "reference": "urn:uuid:735c2ecd-49cb-439e-b39a-803b36c9a865"
                  },
                  {
                    "reference": "urn:uuid:538ec845-1d14-4b62-ace8-ec775d7ade95"
                  },
                  {
                    "reference": "urn:uuid:0103095c-7774-4428-893c-780f28004f24"
                  },
                  {
                    "reference": "urn:uuid:629eba39-1583-49f2-b23c-cffc2a471ace"
                  },
                  {
                    "reference": "urn:uuid:1c460762-8f9e-4050-9ed9-754b47785a66"
                  },
                  {
                    "reference": "urn:uuid:6c0331aa-711e-405b-8d4a-90a7bc8d45a7"
                  },
                  {
                    "reference": "urn:uuid:e0e2bc51-11ba-4fc2-a609-89ad3925f55e"
                  },
                  {
                    "reference": "urn:uuid:aee21dc3-3127-4271-b0d9-f91e741efa57"
                  },
                  {
                    "reference": "urn:uuid:fef606da-3dd5-47cd-bb2d-9843141538e7"
                  }
                ],
                "text": {
                  "status": "generated",
                  "div": "<div xmlns=\"http://www.w3.org/1999/xhtml\"><h3>Chemistry</h3><table class=\"hl7__eu__lab__report\"><thead><tr><th>Test</th><th>14-DEC-2015</th><th>Reference&#xA0;Range</th><th>Unit</th></tr></thead><tbody><tr><td>Glucose [Mass/volume] in Blood</td><td>72.8</td><td>70 - 140</td><td>mg/dL</td></tr><tr><td>Urea nitrogen [Mass/volume] in Blood</td><td>14.8</td><td>7 - 25</td><td>mg/dL</td></tr><tr><td>Creatinine [Mass/volume] in Blood</td><td><strong>3.3 H</strong></td><td>0.6 - 1.1</td><td>mg/dL</td></tr><tr><td>Calcium [Mass/volume] in Blood</td><td>9.6</td><td>8.6 - 10.4</td><td>mg/dL</td></tr><tr><td>Sodium [Moles/volume] in Blood</td><td>142.2</td><td>135 - 145</td><td>mmol/L</td></tr><tr><td>Potassium [Moles/volume] in Blood</td><td>5.0</td><td>3.5 - 5.1</td><td>mmol/L</td></tr><tr><td>Chloride [Moles/volume] in Blood</td><td>104.4</td><td>98 - 110</td><td>mmol/L</td></tr><tr><td>Carbon dioxide, total [Moles/volume] in Blood</td><td><strong>20.2 L</strong></td><td>22 - 29</td><td>mmol/L</td></tr><tr><td>Protein [Mass/volume] in Serum or Plasma</td><td><strong>6.1 L</strong></td><td>6.6 - 8.3</td><td>g/dL</td></tr><tr><td>Albumin [Mass/volume] in Serum or Plasma</td><td>4.1</td><td>3.5 - 5</td><td>g/dL</td></tr><tr><td>Globulin [Mass/volume] in Serum by calculation</td><td>3.0</td><td>2 - 3.5</td><td>g/L</td></tr><tr><td>Bilirubin.total [Mass/volume] in Serum or Plasma</td><td>1.0</td><td>0.3 - 1.2</td><td>mg/dL</td></tr><tr><td>Alkaline phosphatase [Enzymatic activity/volume] in Serum or Plasma</td><td>49.0</td><td>39 - 141</td><td>U/L</td></tr><tr><td>Alanine aminotransferase [Enzymatic activity/volume] in Serum or Plasma</td><td><strong>42.4 H</strong></td><td>7 - 40</td><td>U/L</td></tr><tr><td>Aspartate aminotransferase [Enzymatic activity/volume] in Serum or Plasma</td><td>13.2</td><td>10 - 32</td><td>U/L</td></tr><tr><td>Ketones [Presence] in Urine by Test strip</td><td>Urine ketone test = +++</td><td></td><td></td></tr></tbody></table></div>"
                },
                "title": "Chemistry"
              },
              {
                "code": {
                  "coding": [
                    {
                      "code": "$18729-4",
                      "system": "http://loinc.org",
                      "display": "Urinalysis studies (set)"
                    }
                  ],
                  "text": "Urinalysis"
                },
                "entry": [
                  {
                    "reference": "urn:uuid:82363465-d4b6-4eaf-8e30-9d382f6c5742"
                  },
                  {
                    "reference": "urn:uuid:a18f2422-9e06-4f38-af04-d33046b78a96"
                  },
                  {
                    "reference": "urn:uuid:5feb7e17-9055-4297-96d8-d808a62de208"
                  },
                  {
                    "reference": "urn:uuid:b9a0fbc3-c411-46f5-bf2e-54c2f00518fd"
                  },
                  {
                    "reference": "urn:uuid:157b4140-ecb1-4f4c-b807-6998cad58e42"
                  },
                  {
                    "reference": "urn:uuid:fd51911e-e3d2-4e21-bff3-2736f9a9e2a0"
                  },
                  {
                    "reference": "urn:uuid:e55f5314-372b-4069-b8bd-6be49150001c"
                  },
                  {
                    "reference": "urn:uuid:0f062235-f788-4e11-aab5-eeb92bf47ec2"
                  },
                  {
                    "reference": "urn:uuid:6cac9054-f159-4c30-9751-e8c96647e602"
                  },
                  {
                    "reference": "urn:uuid:a77aca16-099a-486a-b196-d6dd83b3440f"
                  },
                  {
                    "reference": "urn:uuid:97f106be-923c-4098-8df1-32594f992775"
                  },
                  {
                    "reference": "urn:uuid:909cb5ba-7693-4f22-b270-216041ea9a16"
                  }
                ],
                "text": {
                  "status": "generated",
                  "div": "<div xmlns=\"http://www.w3.org/1999/xhtml\"><h3>Urinalysis</h3><table class=\"hl7__eu__lab__report\"><thead><tr><th>Test</th><th>14-DEC-2015</th><th>Reference&#xA0;Range</th><th>Unit</th></tr></thead><tbody><tr><td>Glucose [Mass/volume] in Urine by Test strip</td><td><strong>2.4 H</strong></td><td>0 - 0.8</td><td>mg/dL</td></tr><tr><td>Glucose [Presence] in Urine by Test strip</td><td>++</td><td></td><td></td></tr><tr><td>Bilirubin.total [Mass/volume] in Urine by Test strip</td><td><strong>1.4 H</strong></td><td>0 - 1</td><td>mg/dL</td></tr><tr><td>Bilirubin.total [Presence] in Urine by Test strip</td><td>Finding of bilirubin in urine</td><td></td><td></td></tr><tr><td>Ketones [Mass/volume] in Urine by Test strip</td><td><strong>13.7 H</strong></td><td>0 - 4</td><td>mg/dL</td></tr><tr><td>Specific gravity of Urine by Test strip</td><td><strong>1.0 L</strong></td><td>1.005 - 1.03</td><td>{nominal}</td></tr><tr><td>pH of Urine by Test strip</td><td>5.6</td><td>4.5 - 7</td><td>pH</td></tr><tr><td>Protein [Mass/volume] in Urine by Test strip</td><td><strong>447.2 H</strong></td><td>0 - 145</td><td>mg/dL</td></tr><tr><td>Protein [Presence] in Urine by Test strip</td><td>Urine protein test = +++</td><td></td><td></td></tr><tr><td>Nitrite [Presence] in Urine by Test strip</td><td>Urine nitrite negative</td><td></td><td></td></tr><tr><td>Hemoglobin [Presence] in Urine by Test strip</td><td>Urine blood test = negative</td><td></td><td></td></tr><tr><td>Leukocyte esterase [Presence] in Urine by Test strip</td><td>Urine leukocyte test negative</td><td></td><td></td></tr></tbody></table></div>"
                },
                "title": "Urinalysis"
              },
              {
                "code": {
                  "coding": [
                    {
                      "code": "$LP7846-1",
                      "system": "http://loinc.org",
                      "display": "Specimen information"
                    }
                  ],
                  "text": "Specimen information"
                },
                "entry": [
                  {
                    "reference": "urn:uuid:1112c11f-ff79-4670-9800-5f663ee2f85b"
                  },
                  {
                    "reference": "urn:uuid:d5e108f5-b67a-4057-9dd9-05b0dbc5edfb"
                  },
                  {
                    "reference": "urn:uuid:36f19904-a119-4de6-9758-41c3108c9280"
                  },
                  {
                    "reference": "urn:uuid:9e52c08a-8e2f-4087-a1da-e8010b99fa25"
                  }
                ],
                "text": {
                  "status": "generated",
                  "div": "<div xmlns=\"http://www.w3.org/1999/xhtml\"><h3>Specimen information</h3><table class=\"hl7__eu__lab__report\"><thead><tr><th>Test</th><th>14-DEC-2015</th><th>Specimen</th><th></th></tr></thead><tbody><tr><td>Appearance of Urine</td><td>Cloudy urine</td><td>Urine</td><td></td></tr><tr><td>Odor of Urine</td><td>Urine smell ammoniacal</td><td>Urine</td><td></td></tr><tr><td>Clarity of Urine</td><td>Translucent</td><td>Urine</td><td></td></tr><tr><td>Color of Urine</td><td>Brown color</td><td>Urine</td><td></td></tr></tbody></table></div>"
                },
                "title": "Specimen information"
              }
            ],
            "title": "Laboratory Report"
          },
          {
            "text": {
              "status": "generated",
              "div": "<div xmlns=\"http://www.w3.org/1999/xhtml\"><h3>Annotation</h3><table class=\"hl7__eu__lab__report\"><tr><th>Conclusion and Recommendations based on this report and previous findings known to us</th></tr><tr><td>The patient shows markedly elevated serum creatinine, low total protein, low CO₂, and elevated liver enzymes, suggesting impaired renal function with possible metabolic acidosis and mild hepatic involvement. Urinalysis reveals significant proteinuria, glucosuria, ketonuria, and bilirubinuria, with abnormal urine appearance and color, supporting nephrotic syndrome or acute kidney injury with possible underlying diabetes or liver dysfunction. Immediate clinical evaluation and further diagnostic workup are recommended.</td></tr></table></div>"
            },
            "code": {
              "coding": [
                {
                  "system": "http://loinc.org",
                  "code": "48767-8",
                  "display": "Annotation comment"
                }
              ]
            },
            "title": "Annotation comment"
          }
        ],
        "status": "final",
        "subject": {
          "reference": "urn:uuid:86339c47-e8dc-4af9-8868-b705e0ece3a6",
          "display": "Iva Kratochvílová"
        },
        "date": "2015-12-14T14:37:29Z",
        "title": "Laboratory Report",
        "confidentiality": "N"
      }
    },
    {
      "fullUrl": "urn:uuid:b5440e20-ae75-4f8b-8734-b8a4eaa98ff0",
      "resource": {
        "resourceType": "DiagnosticReport",
        "id": "b5440e20-ae75-4f8b-8734-b8a4eaa98ff0",
        "meta": {
          "profile": [
            "http://hl7.eu/fhir/laboratory/StructureDefinition/DiagnosticReport-eu-lab"
          ]
        },
        "identifier": [
          {
            "assigner": {
              "display": "HL7 Europe"
            },
            "system": "urn:oid:2.16.840.1.113883.2.51.999",
            "value": "2c69df1e-7e5d-4a29-8039-170185b2e8a4"
          }
        ],
        "extension": [
          {
            "url": "http://hl7.org/fhir/5.0/StructureDefinition/extension-DiagnosticReport.composition",
            "valueReference": {
              "reference": "urn:uuid:e1c88084-4988-4c82-a6cf-90222ee38a8e"
            }
          }
        ],
        "category": [
          {
            "coding": [
              {
                "code": "26436-6",
                "system": "http://loinc.org",
                "display": "Laboratory studies (set)"
              }
            ]
          }
        ],
        "specimen": [
          {
            "reference": "urn:uuid:bd111581-3c23-46c5-ada7-c47b3891b559"
          },
          {
            "reference": "urn:uuid:0522649c-b18a-47d5-84c4-a98bf766392b"
          },
          {
            "reference": "urn:uuid:ac197571-7a84-4b21-83ee-516e0d14b4f6"
          },
          {
            "reference": "urn:uuid:fd6121ee-ee66-4d77-8445-b443cbbf741f"
          }
        ],
        "result": [
          {
            "reference": "urn:uuid:96a4ce7b-1b99-40e5-ae44-d264fbc537ad"
          },
          {
            "reference": "urn:uuid:fda7ddb2-f992-4fdb-ac86-269a25478549"
          },
          {
            "reference": "urn:uuid:a04b7387-8212-4559-b5fb-9f924a91ff2e"
          },
          {
            "reference": "urn:uuid:93400a9c-aa47-4b00-99d3-60fd3da13ff9"
          },
          {
            "reference": "urn:uuid:94ae4f6b-166b-44f2-83aa-4cc3c01b543f"
          },
          {
            "reference": "urn:uuid:195392a4-87bf-4584-97b2-ab73494d2507"
          },
          {
            "reference": "urn:uuid:37d44fc4-dc96-495f-992b-3553e7a38fe7"
          },
          {
            "reference": "urn:uuid:735c2ecd-49cb-439e-b39a-803b36c9a865"
          },
          {
            "reference": "urn:uuid:538ec845-1d14-4b62-ace8-ec775d7ade95"
          },
          {
            "reference": "urn:uuid:0103095c-7774-4428-893c-780f28004f24"
          },
          {
            "reference": "urn:uuid:629eba39-1583-49f2-b23c-cffc2a471ace"
          },
          {
            "reference": "urn:uuid:1c460762-8f9e-4050-9ed9-754b47785a66"
          },
          {
            "reference": "urn:uuid:6c0331aa-711e-405b-8d4a-90a7bc8d45a7"
          },
          {
            "reference": "urn:uuid:e0e2bc51-11ba-4fc2-a609-89ad3925f55e"
          },
          {
            "reference": "urn:uuid:aee21dc3-3127-4271-b0d9-f91e741efa57"
          },
          {
            "reference": "urn:uuid:1112c11f-ff79-4670-9800-5f663ee2f85b"
          },
          {
            "reference": "urn:uuid:d5e108f5-b67a-4057-9dd9-05b0dbc5edfb"
          },
          {
            "reference": "urn:uuid:36f19904-a119-4de6-9758-41c3108c9280"
          },
          {
            "reference": "urn:uuid:9e52c08a-8e2f-4087-a1da-e8010b99fa25"
          },
          {
            "reference": "urn:uuid:82363465-d4b6-4eaf-8e30-9d382f6c5742"
          },
          {
            "reference": "urn:uuid:a18f2422-9e06-4f38-af04-d33046b78a96"
          },
          {
            "reference": "urn:uuid:5feb7e17-9055-4297-96d8-d808a62de208"
          },
          {
            "reference": "urn:uuid:b9a0fbc3-c411-46f5-bf2e-54c2f00518fd"
          },
          {
            "reference": "urn:uuid:157b4140-ecb1-4f4c-b807-6998cad58e42"
          },
          {
            "reference": "urn:uuid:fef606da-3dd5-47cd-bb2d-9843141538e7"
          },
          {
            "reference": "urn:uuid:fd51911e-e3d2-4e21-bff3-2736f9a9e2a0"
          },
          {
            "reference": "urn:uuid:e55f5314-372b-4069-b8bd-6be49150001c"
          },
          {
            "reference": "urn:uuid:0f062235-f788-4e11-aab5-eeb92bf47ec2"
          },
          {
            "reference": "urn:uuid:6cac9054-f159-4c30-9751-e8c96647e602"
          },
          {
            "reference": "urn:uuid:a77aca16-099a-486a-b196-d6dd83b3440f"
          },
          {
            "reference": "urn:uuid:97f106be-923c-4098-8df1-32594f992775"
          },
          {
            "reference": "urn:uuid:909cb5ba-7693-4f22-b270-216041ea9a16"
          }
        ],
        "status": "registered",
        "code": {
          "coding": [
            {
              "code": "11502-2",
              "system": "http://loinc.org",
              "display": "Laboratory report"
            }
          ]
        },
        "subject": {
          "reference": "urn:uuid:86339c47-e8dc-4af9-8868-b705e0ece3a6",
          "display": "Iva Kratochvílová"
        }
      }
    },
    {
      "fullUrl": "urn:uuid:86339c47-e8dc-4af9-8868-b705e0ece3a6",
      "resource": {
        "resourceType": "Patient",
        "id": "86339c47-e8dc-4af9-8868-b705e0ece3a6",
        "meta": {
          "security": [
            {
              "system": "http://terminology.hl7.org/CodeSystem/v3-ActReason",
              "code": "HTEST"
            },
            {
              "system": "http://terminology.hl7.org/CodeSystem/v3-ActReason",
              "code": "TRAIN"
            }
          ],
          "tag": [
            {
              "system": "https://synderai.net/fhir/CodeSystem/tags",
              "code": "synthetic",
              "display": "SYNDERAI Synthetic data"
            }
          ],
          "profile": [
            "http://hl7.eu/fhir/base/StructureDefinition/patient-eu-core"
          ]
        },
        "identifier": [
          {
            "type": {
              "coding": [
                {
                  "code": "PT",
                  "system": "http://terminology.hl7.org/CodeSystem/v2-0203"
                }
              ]
            },
            "system": "http://ec.europa.eu/identifier/eci",
            "value": "4380-389488-0"
          },
          {
            "type": {
              "coding": [
                {
                  "code": "MR",
                  "system": "http://terminology.hl7.org/CodeSystem/v2-0203"
                }
              ]
            },
            "system": "http://local.setting.eu/identifier",
            "value": "f8f9ebdc-03dd-2fc0-819c-affa4ffd7f67"
          }
        ],
        "name": [
          {
            "family": "Kratochvílová"
          },
          {
            "given": [
              "Iva"
            ]
          },
          {
            "text": "Iva Kratochvílová"
          }
        ],
        "address": [
          {
            "line": [
              "Žofie Podlipské 4"
            ],
            "use": "home",
            "type": "physical",
            "postalCode": "27324",
            "city": "Postoloprty",
            "country": "Czechia"
          }
        ],
        "telecom": [
          {
            "system": "phone",
            "value": "00420 607 985 072"
          }
        ],
        "extension": [
          {
            "url": "http://hl7.org/fhir/StructureDefinition/patient-nationality",
            "valueCodeableConcept": {
              "coding": [
                {
                  "code": "CZ",
                  "system": "http://hl7.org/fhir/ValueSet/country"
                }
              ]
            }
          }
        ],
        "text": {
          "status": "generated",
          "div": "<div xmlns=\"http://www.w3.org/1999/xhtml\"><table class=\"hl7__ips\"><tr><td>Iva Kratochvílová</td><td>female</td><td>17-Sep-1964</td></tr></table></div>"
        },
        "gender": "female",
        "birthDate": "1964-09-17"
      }
    },
    {
      "fullUrl": "urn:uuid:47529b3a-9b0a-4bee-8ed1-958b5352e140",
      "resource": {
        "resourceType": "ServiceRequest",
        "id": "47529b3a-9b0a-4bee-8ed1-958b5352e140",
        "meta": {
          "profile": [
            "http://hl7.eu/fhir/laboratory/StructureDefinition/ServiceRequest-eu-lab"
          ]
        },
        "identifier": [
          {
            "system": "http://example.org",
            "value": "fa9d7982-a5ee-4d51-8023-1d90499ab847"
          }
        ],
        "specimen": [
          {
            "reference": "urn:uuid:bd111581-3c23-46c5-ada7-c47b3891b559"
          },
          {
            "reference": "urn:uuid:0522649c-b18a-47d5-84c4-a98bf766392b"
          },
          {
            "reference": "urn:uuid:ac197571-7a84-4b21-83ee-516e0d14b4f6"
          },
          {
            "reference": "urn:uuid:fd6121ee-ee66-4d77-8445-b443cbbf741f"
          }
        ],
        "reasonCode": [
          {
            "coding": [
              {
                "code": "431856006",
                "system": "http://snomed.info/sct",
                "display": "Chronic kidney disease stage 2"
              }
            ]
          },
          {
            "coding": [
              {
                "code": "431855005",
                "system": "http://snomed.info/sct",
                "display": "Chronic kidney disease stage 1"
              }
            ]
          },
          {
            "coding": [
              {
                "code": "237602007",
                "system": "http://snomed.info/sct",
                "display": "Metabolic syndrome X"
              }
            ]
          },
          {
            "coding": [
              {
                "code": "91302008",
                "system": "http://snomed.info/sct",
                "display": "Sepsis"
              }
            ]
          },
          {
            "coding": [
              {
                "code": "271737000",
                "system": "http://snomed.info/sct",
                "display": "Anemia"
              }
            ]
          },
          {
            "coding": [
              {
                "code": "15777000",
                "system": "http://snomed.info/sct",
                "display": "Prediabetes"
              }
            ]
          },
          {
            "coding": [
              {
                "code": "157141000119108",
                "system": "http://snomed.info/sct",
                "display": "Proteinuria due to type 2 diabetes mellitus"
              }
            ]
          },
          {
            "coding": [
              {
                "code": "90781000119102",
                "system": "http://snomed.info/sct",
                "display": "Microalbuminuria due to type 2 diabetes mellitus"
              }
            ]
          },
          {
            "coding": [
              {
                "code": "239872002",
                "system": "http://snomed.info/sct",
                "display": "Osteoarthritis of hip"
              }
            ]
          },
          {
            "coding": [
              {
                "code": "40055000",
                "system": "http://snomed.info/sct",
                "display": "Chronic sinusitis"
              }
            ]
          },
          {
            "coding": [
              {
                "code": "127013003",
                "system": "http://snomed.info/sct",
                "display": "Disorder of kidney due to diabetes mellitus"
              }
            ]
          },
          {
            "coding": [
              {
                "code": "59621000",
                "system": "http://snomed.info/sct",
                "display": "Essential hypertension"
              }
            ]
          }
        ],
        "status": "active",
        "intent": "order",
        "code": {
          "coding": [
            {
              "code": "108252007",
              "system": "http://snomed.info/sct",
              "display": "Laboratory procedure"
            }
          ]
        },
        "subject": {
          "reference": "urn:uuid:86339c47-e8dc-4af9-8868-b705e0ece3a6",
          "display": "Iva Kratochvílová"
        },
        "requester": {
          "reference": "urn:uuid:cd464c94-7c84-47e2-a676-048aa68edff5"
        }
      }
    },
    {
      "fullUrl": "urn:uuid:cd464c94-7c84-47e2-a676-048aa68edff5",
      "resource": {
        "resourceType": "PractitionerRole",
        "id": "cd464c94-7c84-47e2-a676-048aa68edff5",
        "meta": {
          "profile": [
            "http://hl7.eu/fhir/base/StructureDefinition/practitionerRole-eu"
          ]
        },
        "text": {
          "status": "generated",
          "div": "<div xmlns=\"http://www.w3.org/1999/xhtml\">Provider Role Id: cd464c94-7c84-47e2-a676-048aa68edff5</div>"
        },
        "organization": {
          "reference": "urn:uuid:858579ae-350d-4d4a-b2d9-9535c609bdb9"
        }
      }
    },
    {
      "fullUrl": "urn:uuid:858579ae-350d-4d4a-b2d9-9535c609bdb9",
      "resource": {
        "resourceType": "Organization",
        "id": "858579ae-350d-4d4a-b2d9-9535c609bdb9",
        "meta": {
          "profile": [
            "http://hl7.eu/fhir/base/StructureDefinition/organization-eu"
          ]
        },
        "identifier": [
          {
            "assigner": {
              "display": "HL7 Europe"
            },
            "system": "urn:oid:2.16.840.1.113883.2.51.999",
            "value": "99c94734-140d-41d1-86f8-7eb44471fa95"
          }
        ],
        "address": [
          {
            "city": "Kadaň",
            "postalCode": "432 01",
            "country": "Czechia"
          }
        ],
        "text": {
          "status": "generated",
          "div": "<div xmlns=\"http://www.w3.org/1999/xhtml\">Provider Organization: Nemocnice s poliklinikou Kadaň</div>"
        },
        "name": "Nemocnice s poliklinikou Kadaň"
      }
    },
    {
      "fullUrl": "urn:uuid:bd111581-3c23-46c5-ada7-c47b3891b559",
      "resource": {
        "resourceType": "Specimen",
        "id": "bd111581-3c23-46c5-ada7-c47b3891b559",
        "meta": {
          "profile": [
            "http://hl7.eu/fhir/laboratory/StructureDefinition/Specimen-eu-lab"
          ]
        },
        "collection": {
          "collectedDateTime": "2015-12-14"
        },
        "text": {
          "status": "generated",
          "div": "<div xmlns=\"http://www.w3.org/1999/xhtml\"><table class=\"hl7__eu__lab__report\"><tr><th>Specimen</th><th>Collection Date</th></tr><tr><td>Whole blood specimen (specimen)</td><td><span class=\"nb\">14-Dec-2015</span></td></tr></table></div>"
        },
        "type": {
          "coding": [
            {
              "code": "258580003",
              "system": "http://snomed.info/sct",
              "display": "Whole blood specimen (specimen)"
            }
          ]
        }
      }
    },
    {
      "fullUrl": "urn:uuid:0522649c-b18a-47d5-84c4-a98bf766392b",
      "resource": {
        "resourceType": "Specimen",
        "id": "0522649c-b18a-47d5-84c4-a98bf766392b",
        "meta": {
          "profile": [
            "http://hl7.eu/fhir/laboratory/StructureDefinition/Specimen-eu-lab"
          ]
        },
        "collection": {
          "collectedDateTime": "2015-12-14"
        },
        "text": {
          "status": "generated",
          "div": "<div xmlns=\"http://www.w3.org/1999/xhtml\"><table class=\"hl7__eu__lab__report\"><tr><th>Specimen</th><th>Collection Date</th></tr><tr><td>Acellular blood (serum or plasma) specimen</td><td><span class=\"nb\">14-Dec-2015</span></td></tr></table></div>"
        },
        "type": {
          "coding": [
            {
              "code": "122592007",
              "system": "http://snomed.info/sct",
              "display": "Acellular blood (serum or plasma) specimen"
            }
          ]
        }
      }
    },
    {
      "fullUrl": "urn:uuid:ac197571-7a84-4b21-83ee-516e0d14b4f6",
      "resource": {
        "resourceType": "Specimen",
        "id": "ac197571-7a84-4b21-83ee-516e0d14b4f6",
        "meta": {
          "profile": [
            "http://hl7.eu/fhir/laboratory/StructureDefinition/Specimen-eu-lab"
          ]
        },
        "collection": {
          "collectedDateTime": "2015-12-14"
        },
        "text": {
          "status": "generated",
          "div": "<div xmlns=\"http://www.w3.org/1999/xhtml\"><table class=\"hl7__eu__lab__report\"><tr><th>Specimen</th><th>Collection Date</th></tr><tr><td>Serum specimen</td><td><span class=\"nb\">14-Dec-2015</span></td></tr></table></div>"
        },
        "type": {
          "coding": [
            {
              "code": "119364003",
              "system": "http://snomed.info/sct",
              "display": "Serum specimen"
            }
          ]
        }
      }
    },
    {
      "fullUrl": "urn:uuid:fd6121ee-ee66-4d77-8445-b443cbbf741f",
      "resource": {
        "resourceType": "Specimen",
        "id": "fd6121ee-ee66-4d77-8445-b443cbbf741f",
        "meta": {
          "profile": [
            "http://hl7.eu/fhir/laboratory/StructureDefinition/Specimen-eu-lab"
          ]
        },
        "collection": {
          "collectedDateTime": "2015-12-14"
        },
        "text": {
          "status": "generated",
          "div": "<div xmlns=\"http://www.w3.org/1999/xhtml\"><table class=\"hl7__eu__lab__report\"><tr><th>Specimen</th><th>Collection Date</th></tr><tr><td>Urine specimen</td><td><span class=\"nb\">14-Dec-2015</span></td></tr></table></div>"
        },
        "type": {
          "coding": [
            {
              "code": "122575003",
              "system": "http://snomed.info/sct",
              "display": "Urine specimen"
            }
          ]
        }
      }
    },
    {
      "fullUrl": "urn:uuid:96a4ce7b-1b99-40e5-ae44-d264fbc537ad",
      "resource": {
        "resourceType": "Observation",
        "id": "96a4ce7b-1b99-40e5-ae44-d264fbc537ad",
        "meta": {
          "profile": [
            "http://hl7.eu/fhir/laboratory/StructureDefinition/Observation-resultslab-eu-lab"
          ]
        },
        "performer": [
          {
            "display": "The Central European Lab"
          }
        ],
        "category": [
          {
            "coding": [
              {
                "system": "http://terminology.hl7.org/CodeSystem/observation-category",
                "code": "laboratory"
              }
            ]
          }
        ],
        "code": {
          "coding": [
            {
              "code": "2339-0",
              "system": "http://loinc.org",
              "display": "Glucose [Mass/volume] in Blood"
            }
          ],
          "text": "Glucose [Mass/volume] in Blood"
        },
        "valueQuantity": {
          "system": "http://unitsofmeasure.org",
          "value": 72.8,
          "unit": "mg/dL",
          "code": "mg/dL"
        },
        "referenceRange": [
          {
            "low": {
              "value": 70,
              "code": "mg/dL",
              "system": "http://unitsofmeasure.org"
            }
          },
          {
            "high": {
              "value": 140,
              "code": "mg/dL",
              "system": "http://unitsofmeasure.org"
            }
          }
        ],
        "text": {
          "status": "generated",
          "div": "<div xmlns=\"http://www.w3.org/1999/xhtml\"><table class=\"hl7__eu__lab__report\"><tr><th>Test</th><th>14-Dec-2015</th><th>Reference&#xA0;Range</th><th>Unit</th></tr><tr><td>Glucose [Mass/volume] in Blood</td><td>72.8</td><td>70 - 140</td><td></td><td>mg/dL</td></tr></table></div>"
        },
        "status": "final",
        "subject": {
          "reference": "urn:uuid:86339c47-e8dc-4af9-8868-b705e0ece3a6",
          "display": "Iva Kratochvílová"
        },
        "effectiveDateTime": "2015-12-14T13:37:29Z",
        "specimen": {
          "reference": "urn:uuid:bd111581-3c23-46c5-ada7-c47b3891b559"
        }
      }
    },
    {
      "fullUrl": "urn:uuid:fda7ddb2-f992-4fdb-ac86-269a25478549",
      "resource": {
        "resourceType": "Observation",
        "id": "fda7ddb2-f992-4fdb-ac86-269a25478549",
        "meta": {
          "profile": [
            "http://hl7.eu/fhir/laboratory/StructureDefinition/Observation-resultslab-eu-lab"
          ]
        },
        "performer": [
          {
            "display": "The Central European Lab"
          }
        ],
        "category": [
          {
            "coding": [
              {
                "system": "http://terminology.hl7.org/CodeSystem/observation-category",
                "code": "laboratory"
              }
            ]
          }
        ],
        "code": {
          "coding": [
            {
              "code": "6299-2",
              "system": "http://loinc.org",
              "display": "Urea nitrogen [Mass/volume] in Blood"
            }
          ],
          "text": "Urea nitrogen [Mass/volume] in Blood"
        },
        "valueQuantity": {
          "system": "http://unitsofmeasure.org",
          "value": 14.8,
          "unit": "mg/dL",
          "code": "mg/dL"
        },
        "referenceRange": [
          {
            "low": {
              "value": 7,
              "code": "mg/dL",
              "system": "http://unitsofmeasure.org"
            }
          },
          {
            "high": {
              "value": 25,
              "code": "mg/dL",
              "system": "http://unitsofmeasure.org"
            }
          }
        ],
        "text": {
          "status": "generated",
          "div": "<div xmlns=\"http://www.w3.org/1999/xhtml\"><table class=\"hl7__eu__lab__report\"><tr><th>Test</th><th>14-Dec-2015</th><th>Reference&#xA0;Range</th><th>Unit</th></tr><tr><td>Urea nitrogen [Mass/volume] in Blood</td><td>14.8</td><td>7 - 25</td><td></td><td>mg/dL</td></tr></table></div>"
        },
        "status": "final",
        "subject": {
          "reference": "urn:uuid:86339c47-e8dc-4af9-8868-b705e0ece3a6",
          "display": "Iva Kratochvílová"
        },
        "effectiveDateTime": "2015-12-14T13:37:29Z",
        "specimen": {
          "reference": "urn:uuid:bd111581-3c23-46c5-ada7-c47b3891b559"
        }
      }
    },
    {
      "fullUrl": "urn:uuid:a04b7387-8212-4559-b5fb-9f924a91ff2e",
      "resource": {
        "resourceType": "Observation",
        "id": "a04b7387-8212-4559-b5fb-9f924a91ff2e",
        "meta": {
          "profile": [
            "http://hl7.eu/fhir/laboratory/StructureDefinition/Observation-resultslab-eu-lab"
          ]
        },
        "performer": [
          {
            "display": "The Central European Lab"
          }
        ],
        "category": [
          {
            "coding": [
              {
                "system": "http://terminology.hl7.org/CodeSystem/observation-category",
                "code": "laboratory"
              }
            ]
          }
        ],
        "code": {
          "coding": [
            {
              "code": "38483-4",
              "system": "http://loinc.org",
              "display": "Creatinine [Mass/volume] in Blood"
            }
          ],
          "text": "Creatinine [Mass/volume] in Blood"
        },
        "valueQuantity": {
          "system": "http://unitsofmeasure.org",
          "value": 3.3,
          "unit": "mg/dL",
          "code": "mg/dL"
        },
        "referenceRange": [
          {
            "low": {
              "value": 0.6,
              "code": "mg/dL",
              "system": "http://unitsofmeasure.org"
            }
          },
          {
            "high": {
              "value": 1.1,
              "code": "mg/dL",
              "system": "http://unitsofmeasure.org"
            }
          }
        ],
        "interpretation": [
          {
            "coding": [
              {
                "code": "H",
                "system": "http://terminology.hl7.org/CodeSystem/v3-ObservationInterpretation",
                "display": "High"
              }
            ]
          }
        ],
        "text": {
          "status": "generated",
          "div": "<div xmlns=\"http://www.w3.org/1999/xhtml\"><table class=\"hl7__eu__lab__report\"><tr><th>Test</th><th>14-Dec-2015</th><th>Reference&#xA0;Range</th><th>Unit</th></tr><tr><td>Creatinine [Mass/volume] in Blood</td><td>3.3</td><td>0.6 - 1.1</td><td>H</td><td>mg/dL</td></tr></table></div>"
        },
        "status": "final",
        "subject": {
          "reference": "urn:uuid:86339c47-e8dc-4af9-8868-b705e0ece3a6",
          "display": "Iva Kratochvílová"
        },
        "effectiveDateTime": "2015-12-14T13:37:29Z",
        "specimen": {
          "reference": "urn:uuid:bd111581-3c23-46c5-ada7-c47b3891b559"
        }
      }
    },
    {
      "fullUrl": "urn:uuid:93400a9c-aa47-4b00-99d3-60fd3da13ff9",
      "resource": {
        "resourceType": "Observation",
        "id": "93400a9c-aa47-4b00-99d3-60fd3da13ff9",
        "meta": {
          "profile": [
            "http://hl7.eu/fhir/laboratory/StructureDefinition/Observation-resultslab-eu-lab"
          ]
        },
        "performer": [
          {
            "display": "The Central European Lab"
          }
        ],
        "category": [
          {
            "coding": [
              {
                "system": "http://terminology.hl7.org/CodeSystem/observation-category",
                "code": "laboratory"
              }
            ]
          }
        ],
        "code": {
          "coding": [
            {
              "code": "49765-1",
              "system": "http://loinc.org",
              "display": "Calcium [Mass/volume] in Blood"
            }
          ],
          "text": "Calcium [Mass/volume] in Blood"
        },
        "valueQuantity": {
          "system": "http://unitsofmeasure.org",
          "value": 9.6,
          "unit": "mg/dL",
          "code": "mg/dL"
        },
        "referenceRange": [
          {
            "low": {
              "value": 8.6,
              "code": "mg/dL",
              "system": "http://unitsofmeasure.org"
            }
          },
          {
            "high": {
              "value": 10.4,
              "code": "mg/dL",
              "system": "http://unitsofmeasure.org"
            }
          }
        ],
        "text": {
          "status": "generated",
          "div": "<div xmlns=\"http://www.w3.org/1999/xhtml\"><table class=\"hl7__eu__lab__report\"><tr><th>Test</th><th>14-Dec-2015</th><th>Reference&#xA0;Range</th><th>Unit</th></tr><tr><td>Calcium [Mass/volume] in Blood</td><td>9.6</td><td>8.6 - 10.4</td><td></td><td>mg/dL</td></tr></table></div>"
        },
        "status": "final",
        "subject": {
          "reference": "urn:uuid:86339c47-e8dc-4af9-8868-b705e0ece3a6",
          "display": "Iva Kratochvílová"
        },
        "effectiveDateTime": "2015-12-14T13:37:29Z",
        "specimen": {
          "reference": "urn:uuid:bd111581-3c23-46c5-ada7-c47b3891b559"
        }
      }
    },
    {
      "fullUrl": "urn:uuid:94ae4f6b-166b-44f2-83aa-4cc3c01b543f",
      "resource": {
        "resourceType": "Observation",
        "id": "94ae4f6b-166b-44f2-83aa-4cc3c01b543f",
        "meta": {
          "profile": [
            "http://hl7.eu/fhir/laboratory/StructureDefinition/Observation-resultslab-eu-lab"
          ]
        },
        "performer": [
          {
            "display": "The Central European Lab"
          }
        ],
        "category": [
          {
            "coding": [
              {
                "system": "http://terminology.hl7.org/CodeSystem/observation-category",
                "code": "laboratory"
              }
            ]
          }
        ],
        "code": {
          "coding": [
            {
              "code": "2947-0",
              "system": "http://loinc.org",
              "display": "Sodium [Moles/volume] in Blood"
            }
          ],
          "text": "Sodium [Moles/volume] in Blood"
        },
        "valueQuantity": {
          "system": "http://unitsofmeasure.org",
          "value": 142.2,
          "unit": "mmol/L",
          "code": "mmol/L"
        },
        "referenceRange": [
          {
            "low": {
              "value": 135,
              "code": "mmol/L",
              "system": "http://unitsofmeasure.org"
            }
          },
          {
            "high": {
              "value": 145,
              "code": "mmol/L",
              "system": "http://unitsofmeasure.org"
            }
          }
        ],
        "text": {
          "status": "generated",
          "div": "<div xmlns=\"http://www.w3.org/1999/xhtml\"><table class=\"hl7__eu__lab__report\"><tr><th>Test</th><th>14-Dec-2015</th><th>Reference&#xA0;Range</th><th>Unit</th></tr><tr><td>Sodium [Moles/volume] in Blood</td><td>142.2</td><td>135 - 145</td><td></td><td>mmol/L</td></tr></table></div>"
        },
        "status": "final",
        "subject": {
          "reference": "urn:uuid:86339c47-e8dc-4af9-8868-b705e0ece3a6",
          "display": "Iva Kratochvílová"
        },
        "effectiveDateTime": "2015-12-14T13:37:29Z",
        "specimen": {
          "reference": "urn:uuid:bd111581-3c23-46c5-ada7-c47b3891b559"
        }
      }
    },
    {
      "fullUrl": "urn:uuid:195392a4-87bf-4584-97b2-ab73494d2507",
      "resource": {
        "resourceType": "Observation",
        "id": "195392a4-87bf-4584-97b2-ab73494d2507",
        "meta": {
          "profile": [
            "http://hl7.eu/fhir/laboratory/StructureDefinition/Observation-resultslab-eu-lab"
          ]
        },
        "performer": [
          {
            "display": "The Central European Lab"
          }
        ],
        "category": [
          {
            "coding": [
              {
                "system": "http://terminology.hl7.org/CodeSystem/observation-category",
                "code": "laboratory"
              }
            ]
          }
        ],
        "code": {
          "coding": [
            {
              "code": "6298-4",
              "system": "http://loinc.org",
              "display": "Potassium [Moles/volume] in Blood"
            }
          ],
          "text": "Potassium [Moles/volume] in Blood"
        },
        "valueQuantity": {
          "system": "http://unitsofmeasure.org",
          "value": 5,
          "unit": "mmol/L",
          "code": "mmol/L"
        },
        "referenceRange": [
          {
            "low": {
              "value": 3.5,
              "code": "mmol/L",
              "system": "http://unitsofmeasure.org"
            }
          },
          {
            "high": {
              "value": 5.1,
              "code": "mmol/L",
              "system": "http://unitsofmeasure.org"
            }
          }
        ],
        "text": {
          "status": "generated",
          "div": "<div xmlns=\"http://www.w3.org/1999/xhtml\"><table class=\"hl7__eu__lab__report\"><tr><th>Test</th><th>14-Dec-2015</th><th>Reference&#xA0;Range</th><th>Unit</th></tr><tr><td>Potassium [Moles/volume] in Blood</td><td>5.0</td><td>3.5 - 5.1</td><td></td><td>mmol/L</td></tr></table></div>"
        },
        "status": "final",
        "subject": {
          "reference": "urn:uuid:86339c47-e8dc-4af9-8868-b705e0ece3a6",
          "display": "Iva Kratochvílová"
        },
        "effectiveDateTime": "2015-12-14T13:37:29Z",
        "specimen": {
          "reference": "urn:uuid:bd111581-3c23-46c5-ada7-c47b3891b559"
        }
      }
    },
    {
      "fullUrl": "urn:uuid:37d44fc4-dc96-495f-992b-3553e7a38fe7",
      "resource": {
        "resourceType": "Observation",
        "id": "37d44fc4-dc96-495f-992b-3553e7a38fe7",
        "meta": {
          "profile": [
            "http://hl7.eu/fhir/laboratory/StructureDefinition/Observation-resultslab-eu-lab"
          ]
        },
        "performer": [
          {
            "display": "The Central European Lab"
          }
        ],
        "category": [
          {
            "coding": [
              {
                "system": "http://terminology.hl7.org/CodeSystem/observation-category",
                "code": "laboratory"
              }
            ]
          }
        ],
        "code": {
          "coding": [
            {
              "code": "2069-3",
              "system": "http://loinc.org",
              "display": "Chloride [Moles/volume] in Blood"
            }
          ],
          "text": "Chloride [Moles/volume] in Blood"
        },
        "valueQuantity": {
          "system": "http://unitsofmeasure.org",
          "value": 104.4,
          "unit": "mmol/L",
          "code": "mmol/L"
        },
        "referenceRange": [
          {
            "low": {
              "value": 98,
              "code": "mmol/L",
              "system": "http://unitsofmeasure.org"
            }
          },
          {
            "high": {
              "value": 110,
              "code": "mmol/L",
              "system": "http://unitsofmeasure.org"
            }
          }
        ],
        "text": {
          "status": "generated",
          "div": "<div xmlns=\"http://www.w3.org/1999/xhtml\"><table class=\"hl7__eu__lab__report\"><tr><th>Test</th><th>14-Dec-2015</th><th>Reference&#xA0;Range</th><th>Unit</th></tr><tr><td>Chloride [Moles/volume] in Blood</td><td>104.4</td><td>98 - 110</td><td></td><td>mmol/L</td></tr></table></div>"
        },
        "status": "final",
        "subject": {
          "reference": "urn:uuid:86339c47-e8dc-4af9-8868-b705e0ece3a6",
          "display": "Iva Kratochvílová"
        },
        "effectiveDateTime": "2015-12-14T13:37:29Z",
        "specimen": {
          "reference": "urn:uuid:bd111581-3c23-46c5-ada7-c47b3891b559"
        }
      }
    },
    {
      "fullUrl": "urn:uuid:735c2ecd-49cb-439e-b39a-803b36c9a865",
      "resource": {
        "resourceType": "Observation",
        "id": "735c2ecd-49cb-439e-b39a-803b36c9a865",
        "meta": {
          "profile": [
            "http://hl7.eu/fhir/laboratory/StructureDefinition/Observation-resultslab-eu-lab"
          ]
        },
        "performer": [
          {
            "display": "The Central European Lab"
          }
        ],
        "category": [
          {
            "coding": [
              {
                "system": "http://terminology.hl7.org/CodeSystem/observation-category",
                "code": "laboratory"
              }
            ]
          }
        ],
        "code": {
          "coding": [
            {
              "code": "20565-8",
              "system": "http://loinc.org",
              "display": "Carbon dioxide, total [Moles/volume] in Blood"
            }
          ],
          "text": "Carbon dioxide, total [Moles/volume] in Blood"
        },
        "valueQuantity": {
          "system": "http://unitsofmeasure.org",
          "value": 20.2,
          "unit": "mmol/L",
          "code": "mmol/L"
        },
        "referenceRange": [
          {
            "low": {
              "value": 22,
              "code": "mmol/L",
              "system": "http://unitsofmeasure.org"
            }
          },
          {
            "high": {
              "value": 29,
              "code": "mmol/L",
              "system": "http://unitsofmeasure.org"
            }
          }
        ],
        "interpretation": [
          {
            "coding": [
              {
                "code": "L",
                "system": "http://terminology.hl7.org/CodeSystem/v3-ObservationInterpretation",
                "display": "Low"
              }
            ]
          }
        ],
        "text": {
          "status": "generated",
          "div": "<div xmlns=\"http://www.w3.org/1999/xhtml\"><table class=\"hl7__eu__lab__report\"><tr><th>Test</th><th>14-Dec-2015</th><th>Reference&#xA0;Range</th><th>Unit</th></tr><tr><td>Carbon dioxide, total [Moles/volume] in Blood</td><td>20.2</td><td>22 - 29</td><td>L</td><td>mmol/L</td></tr></table></div>"
        },
        "status": "final",
        "subject": {
          "reference": "urn:uuid:86339c47-e8dc-4af9-8868-b705e0ece3a6",
          "display": "Iva Kratochvílová"
        },
        "effectiveDateTime": "2015-12-14T13:37:29Z",
        "specimen": {
          "reference": "urn:uuid:bd111581-3c23-46c5-ada7-c47b3891b559"
        }
      }
    },
    {
      "fullUrl": "urn:uuid:538ec845-1d14-4b62-ace8-ec775d7ade95",
      "resource": {
        "resourceType": "Observation",
        "id": "538ec845-1d14-4b62-ace8-ec775d7ade95",
        "meta": {
          "profile": [
            "http://hl7.eu/fhir/laboratory/StructureDefinition/Observation-resultslab-eu-lab"
          ]
        },
        "performer": [
          {
            "display": "The Central European Lab"
          }
        ],
        "category": [
          {
            "coding": [
              {
                "system": "http://terminology.hl7.org/CodeSystem/observation-category",
                "code": "laboratory"
              }
            ]
          }
        ],
        "code": {
          "coding": [
            {
              "code": "2885-2",
              "system": "http://loinc.org",
              "display": "Protein [Mass/volume] in Serum or Plasma"
            }
          ],
          "text": "Protein [Mass/volume] in Serum or Plasma"
        },
        "valueQuantity": {
          "system": "http://unitsofmeasure.org",
          "value": 6.1,
          "unit": "g/dL",
          "code": "g/dL"
        },
        "referenceRange": [
          {
            "low": {
              "value": 6.6,
              "code": "g/dL",
              "system": "http://unitsofmeasure.org"
            }
          },
          {
            "high": {
              "value": 8.3,
              "code": "g/dL",
              "system": "http://unitsofmeasure.org"
            }
          }
        ],
        "interpretation": [
          {
            "coding": [
              {
                "code": "L",
                "system": "http://terminology.hl7.org/CodeSystem/v3-ObservationInterpretation",
                "display": "Low"
              }
            ]
          }
        ],
        "text": {
          "status": "generated",
          "div": "<div xmlns=\"http://www.w3.org/1999/xhtml\"><table class=\"hl7__eu__lab__report\"><tr><th>Test</th><th>14-Dec-2015</th><th>Reference&#xA0;Range</th><th>Unit</th></tr><tr><td>Protein [Mass/volume] in Serum or Plasma</td><td>6.1</td><td>6.6 - 8.3</td><td>L</td><td>g/dL</td></tr></table></div>"
        },
        "status": "final",
        "subject": {
          "reference": "urn:uuid:86339c47-e8dc-4af9-8868-b705e0ece3a6",
          "display": "Iva Kratochvílová"
        },
        "effectiveDateTime": "2015-12-14T13:37:29Z",
        "specimen": {
          "reference": "urn:uuid:0522649c-b18a-47d5-84c4-a98bf766392b"
        }
      }
    },
    {
      "fullUrl": "urn:uuid:0103095c-7774-4428-893c-780f28004f24",
      "resource": {
        "resourceType": "Observation",
        "id": "0103095c-7774-4428-893c-780f28004f24",
        "meta": {
          "profile": [
            "http://hl7.eu/fhir/laboratory/StructureDefinition/Observation-resultslab-eu-lab"
          ]
        },
        "performer": [
          {
            "display": "The Central European Lab"
          }
        ],
        "category": [
          {
            "coding": [
              {
                "system": "http://terminology.hl7.org/CodeSystem/observation-category",
                "code": "laboratory"
              }
            ]
          }
        ],
        "code": {
          "coding": [
            {
              "code": "1751-7",
              "system": "http://loinc.org",
              "display": "Albumin [Mass/volume] in Serum or Plasma"
            }
          ],
          "text": "Albumin [Mass/volume] in Serum or Plasma"
        },
        "valueQuantity": {
          "system": "http://unitsofmeasure.org",
          "value": 4.1,
          "unit": "g/dL",
          "code": "g/dL"
        },
        "referenceRange": [
          {
            "low": {
              "value": 3.5,
              "code": "g/dL",
              "system": "http://unitsofmeasure.org"
            }
          },
          {
            "high": {
              "value": 5,
              "code": "g/dL",
              "system": "http://unitsofmeasure.org"
            }
          }
        ],
        "text": {
          "status": "generated",
          "div": "<div xmlns=\"http://www.w3.org/1999/xhtml\"><table class=\"hl7__eu__lab__report\"><tr><th>Test</th><th>14-Dec-2015</th><th>Reference&#xA0;Range</th><th>Unit</th></tr><tr><td>Albumin [Mass/volume] in Serum or Plasma</td><td>4.1</td><td>3.5 - 5</td><td></td><td>g/dL</td></tr></table></div>"
        },
        "status": "final",
        "subject": {
          "reference": "urn:uuid:86339c47-e8dc-4af9-8868-b705e0ece3a6",
          "display": "Iva Kratochvílová"
        },
        "effectiveDateTime": "2015-12-14T13:37:29Z",
        "specimen": {
          "reference": "urn:uuid:0522649c-b18a-47d5-84c4-a98bf766392b"
        }
      }
    },
    {
      "fullUrl": "urn:uuid:629eba39-1583-49f2-b23c-cffc2a471ace",
      "resource": {
        "resourceType": "Observation",
        "id": "629eba39-1583-49f2-b23c-cffc2a471ace",
        "meta": {
          "profile": [
            "http://hl7.eu/fhir/laboratory/StructureDefinition/Observation-resultslab-eu-lab"
          ]
        },
        "performer": [
          {
            "display": "The Central European Lab"
          }
        ],
        "category": [
          {
            "coding": [
              {
                "system": "http://terminology.hl7.org/CodeSystem/observation-category",
                "code": "laboratory"
              }
            ]
          }
        ],
        "code": {
          "coding": [
            {
              "code": "10834-0",
              "system": "http://loinc.org",
              "display": "Globulin [Mass/volume] in Serum by calculation"
            }
          ],
          "text": "Globulin [Mass/volume] in Serum by calculation"
        },
        "valueQuantity": {
          "system": "http://unitsofmeasure.org",
          "value": 3,
          "unit": "g/L",
          "code": "g/L"
        },
        "referenceRange": [
          {
            "low": {
              "value": 2,
              "code": "g/L",
              "system": "http://unitsofmeasure.org"
            }
          },
          {
            "high": {
              "value": 3.5,
              "code": "g/L",
              "system": "http://unitsofmeasure.org"
            }
          }
        ],
        "text": {
          "status": "generated",
          "div": "<div xmlns=\"http://www.w3.org/1999/xhtml\"><table class=\"hl7__eu__lab__report\"><tr><th>Test</th><th>14-Dec-2015</th><th>Reference&#xA0;Range</th><th>Unit</th></tr><tr><td>Globulin [Mass/volume] in Serum by calculation</td><td>3.0</td><td>2 - 3.5</td><td></td><td>g/L</td></tr></table></div>"
        },
        "status": "final",
        "subject": {
          "reference": "urn:uuid:86339c47-e8dc-4af9-8868-b705e0ece3a6",
          "display": "Iva Kratochvílová"
        },
        "effectiveDateTime": "2015-12-14T13:37:29Z",
        "specimen": {
          "reference": "urn:uuid:ac197571-7a84-4b21-83ee-516e0d14b4f6"
        }
      }
    },
    {
      "fullUrl": "urn:uuid:1c460762-8f9e-4050-9ed9-754b47785a66",
      "resource": {
        "resourceType": "Observation",
        "id": "1c460762-8f9e-4050-9ed9-754b47785a66",
        "meta": {
          "profile": [
            "http://hl7.eu/fhir/laboratory/StructureDefinition/Observation-resultslab-eu-lab"
          ]
        },
        "performer": [
          {
            "display": "The Central European Lab"
          }
        ],
        "category": [
          {
            "coding": [
              {
                "system": "http://terminology.hl7.org/CodeSystem/observation-category",
                "code": "laboratory"
              }
            ]
          }
        ],
        "code": {
          "coding": [
            {
              "code": "1975-2",
              "system": "http://loinc.org",
              "display": "Bilirubin.total [Mass/volume] in Serum or Plasma"
            }
          ],
          "text": "Bilirubin.total [Mass/volume] in Serum or Plasma"
        },
        "valueQuantity": {
          "system": "http://unitsofmeasure.org",
          "value": 1,
          "unit": "mg/dL",
          "code": "mg/dL"
        },
        "referenceRange": [
          {
            "low": {
              "value": 0.3,
              "code": "mg/dL",
              "system": "http://unitsofmeasure.org"
            }
          },
          {
            "high": {
              "value": 1.2,
              "code": "mg/dL",
              "system": "http://unitsofmeasure.org"
            }
          }
        ],
        "text": {
          "status": "generated",
          "div": "<div xmlns=\"http://www.w3.org/1999/xhtml\"><table class=\"hl7__eu__lab__report\"><tr><th>Test</th><th>14-Dec-2015</th><th>Reference&#xA0;Range</th><th>Unit</th></tr><tr><td>Bilirubin.total [Mass/volume] in Serum or Plasma</td><td>1.0</td><td>0.3 - 1.2</td><td></td><td>mg/dL</td></tr></table></div>"
        },
        "status": "final",
        "subject": {
          "reference": "urn:uuid:86339c47-e8dc-4af9-8868-b705e0ece3a6",
          "display": "Iva Kratochvílová"
        },
        "effectiveDateTime": "2015-12-14T13:37:29Z",
        "specimen": {
          "reference": "urn:uuid:0522649c-b18a-47d5-84c4-a98bf766392b"
        }
      }
    },
    {
      "fullUrl": "urn:uuid:6c0331aa-711e-405b-8d4a-90a7bc8d45a7",
      "resource": {
        "resourceType": "Observation",
        "id": "6c0331aa-711e-405b-8d4a-90a7bc8d45a7",
        "meta": {
          "profile": [
            "http://hl7.eu/fhir/laboratory/StructureDefinition/Observation-resultslab-eu-lab"
          ]
        },
        "performer": [
          {
            "display": "The Central European Lab"
          }
        ],
        "category": [
          {
            "coding": [
              {
                "system": "http://terminology.hl7.org/CodeSystem/observation-category",
                "code": "laboratory"
              }
            ]
          }
        ],
        "code": {
          "coding": [
            {
              "code": "6768-6",
              "system": "http://loinc.org",
              "display": "Alkaline phosphatase [Enzymatic activity/volume] in Serum or Plasma"
            }
          ],
          "text": "Alkaline phosphatase [Enzymatic activity/volume] in Serum or Plasma"
        },
        "valueQuantity": {
          "system": "http://unitsofmeasure.org",
          "value": 49,
          "unit": "U/L",
          "code": "U/L"
        },
        "referenceRange": [
          {
            "low": {
              "value": 39,
              "code": "U/L",
              "system": "http://unitsofmeasure.org"
            }
          },
          {
            "high": {
              "value": 141,
              "code": "U/L",
              "system": "http://unitsofmeasure.org"
            }
          }
        ],
        "text": {
          "status": "generated",
          "div": "<div xmlns=\"http://www.w3.org/1999/xhtml\"><table class=\"hl7__eu__lab__report\"><tr><th>Test</th><th>14-Dec-2015</th><th>Reference&#xA0;Range</th><th>Unit</th></tr><tr><td>Alkaline phosphatase [Enzymatic activity/volume] in Serum or Plasma</td><td>49.0</td><td>39 - 141</td><td></td><td>U/L</td></tr></table></div>"
        },
        "status": "final",
        "subject": {
          "reference": "urn:uuid:86339c47-e8dc-4af9-8868-b705e0ece3a6",
          "display": "Iva Kratochvílová"
        },
        "effectiveDateTime": "2015-12-14T13:37:29Z",
        "specimen": {
          "reference": "urn:uuid:0522649c-b18a-47d5-84c4-a98bf766392b"
        }
      }
    },
    {
      "fullUrl": "urn:uuid:e0e2bc51-11ba-4fc2-a609-89ad3925f55e",
      "resource": {
        "resourceType": "Observation",
        "id": "e0e2bc51-11ba-4fc2-a609-89ad3925f55e",
        "meta": {
          "profile": [
            "http://hl7.eu/fhir/laboratory/StructureDefinition/Observation-resultslab-eu-lab"
          ]
        },
        "performer": [
          {
            "display": "The Central European Lab"
          }
        ],
        "category": [
          {
            "coding": [
              {
                "system": "http://terminology.hl7.org/CodeSystem/observation-category",
                "code": "laboratory"
              }
            ]
          }
        ],
        "code": {
          "coding": [
            {
              "code": "1742-6",
              "system": "http://loinc.org",
              "display": "Alanine aminotransferase [Enzymatic activity/volume] in Serum or Plasma"
            }
          ],
          "text": "Alanine aminotransferase [Enzymatic activity/volume] in Serum or Plasma"
        },
        "valueQuantity": {
          "system": "http://unitsofmeasure.org",
          "value": 42.4,
          "unit": "U/L",
          "code": "U/L"
        },
        "referenceRange": [
          {
            "low": {
              "value": 7,
              "code": "U/L",
              "system": "http://unitsofmeasure.org"
            }
          },
          {
            "high": {
              "value": 40,
              "code": "U/L",
              "system": "http://unitsofmeasure.org"
            }
          }
        ],
        "interpretation": [
          {
            "coding": [
              {
                "code": "H",
                "system": "http://terminology.hl7.org/CodeSystem/v3-ObservationInterpretation",
                "display": "High"
              }
            ]
          }
        ],
        "text": {
          "status": "generated",
          "div": "<div xmlns=\"http://www.w3.org/1999/xhtml\"><table class=\"hl7__eu__lab__report\"><tr><th>Test</th><th>14-Dec-2015</th><th>Reference&#xA0;Range</th><th>Unit</th></tr><tr><td>Alanine aminotransferase [Enzymatic activity/volume] in Serum or Plasma</td><td>42.4</td><td>7 - 40</td><td>H</td><td>U/L</td></tr></table></div>"
        },
        "status": "final",
        "subject": {
          "reference": "urn:uuid:86339c47-e8dc-4af9-8868-b705e0ece3a6",
          "display": "Iva Kratochvílová"
        },
        "effectiveDateTime": "2015-12-14T13:37:29Z",
        "specimen": {
          "reference": "urn:uuid:0522649c-b18a-47d5-84c4-a98bf766392b"
        }
      }
    },
    {
      "fullUrl": "urn:uuid:aee21dc3-3127-4271-b0d9-f91e741efa57",
      "resource": {
        "resourceType": "Observation",
        "id": "aee21dc3-3127-4271-b0d9-f91e741efa57",
        "meta": {
          "profile": [
            "http://hl7.eu/fhir/laboratory/StructureDefinition/Observation-resultslab-eu-lab"
          ]
        },
        "performer": [
          {
            "display": "The Central European Lab"
          }
        ],
        "category": [
          {
            "coding": [
              {
                "system": "http://terminology.hl7.org/CodeSystem/observation-category",
                "code": "laboratory"
              }
            ]
          }
        ],
        "code": {
          "coding": [
            {
              "code": "1920-8",
              "system": "http://loinc.org",
              "display": "Aspartate aminotransferase [Enzymatic activity/volume] in Serum or Plasma"
            }
          ],
          "text": "Aspartate aminotransferase [Enzymatic activity/volume] in Serum or Plasma"
        },
        "valueQuantity": {
          "system": "http://unitsofmeasure.org",
          "value": 13.2,
          "unit": "U/L",
          "code": "U/L"
        },
        "referenceRange": [
          {
            "low": {
              "value": 10,
              "code": "U/L",
              "system": "http://unitsofmeasure.org"
            }
          },
          {
            "high": {
              "value": 32,
              "code": "U/L",
              "system": "http://unitsofmeasure.org"
            }
          }
        ],
        "text": {
          "status": "generated",
          "div": "<div xmlns=\"http://www.w3.org/1999/xhtml\"><table class=\"hl7__eu__lab__report\"><tr><th>Test</th><th>14-Dec-2015</th><th>Reference&#xA0;Range</th><th>Unit</th></tr><tr><td>Aspartate aminotransferase [Enzymatic activity/volume] in Serum or Plasma</td><td>13.2</td><td>10 - 32</td><td></td><td>U/L</td></tr></table></div>"
        },
        "status": "final",
        "subject": {
          "reference": "urn:uuid:86339c47-e8dc-4af9-8868-b705e0ece3a6",
          "display": "Iva Kratochvílová"
        },
        "effectiveDateTime": "2015-12-14T13:37:29Z",
        "specimen": {
          "reference": "urn:uuid:0522649c-b18a-47d5-84c4-a98bf766392b"
        }
      }
    },
    {
      "fullUrl": "urn:uuid:1112c11f-ff79-4670-9800-5f663ee2f85b",
      "resource": {
        "resourceType": "Observation",
        "id": "1112c11f-ff79-4670-9800-5f663ee2f85b",
        "meta": {
          "profile": [
            "http://hl7.eu/fhir/laboratory/StructureDefinition/Observation-resultslab-eu-lab"
          ]
        },
        "performer": [
          {
            "display": "The Central European Lab"
          }
        ],
        "category": [
          {
            "coding": [
              {
                "system": "http://terminology.hl7.org/CodeSystem/observation-category",
                "code": "laboratory"
              }
            ]
          }
        ],
        "code": {
          "coding": [
            {
              "code": "5767-9",
              "system": "http://loinc.org",
              "display": "Appearance of Urine"
            }
          ],
          "text": "Appearance of Urine"
        },
        "text": {
          "status": "generated",
          "div": "<div xmlns=\"http://www.w3.org/1999/xhtml\"><table class=\"hl7__eu__lab__report\"><tr><th>Test</th><th>14-Dec-2015</th><th>Reference&#xA0;Range</th><th>Unit</th></tr><tr><td>Appearance of Urine</td></tr></table></div>"
        },
        "status": "final",
        "subject": {
          "reference": "urn:uuid:86339c47-e8dc-4af9-8868-b705e0ece3a6",
          "display": "Iva Kratochvílová"
        },
        "effectiveDateTime": "2015-12-14T13:37:29Z",
        "specimen": {
          "reference": "urn:uuid:fd6121ee-ee66-4d77-8445-b443cbbf741f"
        }
      }
    },
    {
      "fullUrl": "urn:uuid:d5e108f5-b67a-4057-9dd9-05b0dbc5edfb",
      "resource": {
        "resourceType": "Observation",
        "id": "d5e108f5-b67a-4057-9dd9-05b0dbc5edfb",
        "meta": {
          "profile": [
            "http://hl7.eu/fhir/laboratory/StructureDefinition/Observation-resultslab-eu-lab"
          ]
        },
        "performer": [
          {
            "display": "The Central European Lab"
          }
        ],
        "category": [
          {
            "coding": [
              {
                "system": "http://terminology.hl7.org/CodeSystem/observation-category",
                "code": "laboratory"
              }
            ]
          }
        ],
        "code": {
          "coding": [
            {
              "code": "34533-0",
              "system": "http://loinc.org",
              "display": "Odor of Urine"
            }
          ],
          "text": "Odor of Urine"
        },
        "text": {
          "status": "generated",
          "div": "<div xmlns=\"http://www.w3.org/1999/xhtml\"><table class=\"hl7__eu__lab__report\"><tr><th>Test</th><th>14-Dec-2015</th><th>Reference&#xA0;Range</th><th>Unit</th></tr><tr><td>Odor of Urine</td></tr></table></div>"
        },
        "status": "final",
        "subject": {
          "reference": "urn:uuid:86339c47-e8dc-4af9-8868-b705e0ece3a6",
          "display": "Iva Kratochvílová"
        },
        "effectiveDateTime": "2015-12-14T13:37:29Z",
        "specimen": {
          "reference": "urn:uuid:fd6121ee-ee66-4d77-8445-b443cbbf741f"
        }
      }
    },
    {
      "fullUrl": "urn:uuid:36f19904-a119-4de6-9758-41c3108c9280",
      "resource": {
        "resourceType": "Observation",
        "id": "36f19904-a119-4de6-9758-41c3108c9280",
        "meta": {
          "profile": [
            "http://hl7.eu/fhir/laboratory/StructureDefinition/Observation-resultslab-eu-lab"
          ]
        },
        "performer": [
          {
            "display": "The Central European Lab"
          }
        ],
        "category": [
          {
            "coding": [
              {
                "system": "http://terminology.hl7.org/CodeSystem/observation-category",
                "code": "laboratory"
              }
            ]
          }
        ],
        "code": {
          "coding": [
            {
              "code": "32167-9",
              "system": "http://loinc.org",
              "display": "Clarity of Urine"
            }
          ],
          "text": "Clarity of Urine"
        },
        "text": {
          "status": "generated",
          "div": "<div xmlns=\"http://www.w3.org/1999/xhtml\"><table class=\"hl7__eu__lab__report\"><tr><th>Test</th><th>14-Dec-2015</th><th>Reference&#xA0;Range</th><th>Unit</th></tr><tr><td>Clarity of Urine</td></tr></table></div>"
        },
        "status": "final",
        "subject": {
          "reference": "urn:uuid:86339c47-e8dc-4af9-8868-b705e0ece3a6",
          "display": "Iva Kratochvílová"
        },
        "effectiveDateTime": "2015-12-14T13:37:29Z",
        "specimen": {
          "reference": "urn:uuid:fd6121ee-ee66-4d77-8445-b443cbbf741f"
        }
      }
    },
    {
      "fullUrl": "urn:uuid:9e52c08a-8e2f-4087-a1da-e8010b99fa25",
      "resource": {
        "resourceType": "Observation",
        "id": "9e52c08a-8e2f-4087-a1da-e8010b99fa25",
        "meta": {
          "profile": [
            "http://hl7.eu/fhir/laboratory/StructureDefinition/Observation-resultslab-eu-lab"
          ]
        },
        "performer": [
          {
            "display": "The Central European Lab"
          }
        ],
        "category": [
          {
            "coding": [
              {
                "system": "http://terminology.hl7.org/CodeSystem/observation-category",
                "code": "laboratory"
              }
            ]
          }
        ],
        "code": {
          "coding": [
            {
              "code": "5778-6",
              "system": "http://loinc.org",
              "display": "Color of Urine"
            }
          ],
          "text": "Color of Urine"
        },
        "text": {
          "status": "generated",
          "div": "<div xmlns=\"http://www.w3.org/1999/xhtml\"><table class=\"hl7__eu__lab__report\"><tr><th>Test</th><th>14-Dec-2015</th><th>Reference&#xA0;Range</th><th>Unit</th></tr><tr><td>Color of Urine</td></tr></table></div>"
        },
        "status": "final",
        "subject": {
          "reference": "urn:uuid:86339c47-e8dc-4af9-8868-b705e0ece3a6",
          "display": "Iva Kratochvílová"
        },
        "effectiveDateTime": "2015-12-14T13:37:29Z",
        "specimen": {
          "reference": "urn:uuid:fd6121ee-ee66-4d77-8445-b443cbbf741f"
        }
      }
    },
    {
      "fullUrl": "urn:uuid:82363465-d4b6-4eaf-8e30-9d382f6c5742",
      "resource": {
        "resourceType": "Observation",
        "id": "82363465-d4b6-4eaf-8e30-9d382f6c5742",
        "meta": {
          "profile": [
            "http://hl7.eu/fhir/laboratory/StructureDefinition/Observation-resultslab-eu-lab"
          ]
        },
        "performer": [
          {
            "display": "The Central European Lab"
          }
        ],
        "category": [
          {
            "coding": [
              {
                "system": "http://terminology.hl7.org/CodeSystem/observation-category",
                "code": "laboratory"
              }
            ]
          }
        ],
        "code": {
          "coding": [
            {
              "code": "5792-7",
              "system": "http://loinc.org",
              "display": "Glucose [Mass/volume] in Urine by Test strip"
            }
          ],
          "text": "Glucose [Mass/volume] in Urine by Test strip"
        },
        "valueQuantity": {
          "system": "http://unitsofmeasure.org",
          "value": 2.4,
          "unit": "mg/dL",
          "code": "mg/dL"
        },
        "referenceRange": [
          {
            "low": {
              "value": 0,
              "code": "mg/dL",
              "system": "http://unitsofmeasure.org"
            }
          },
          {
            "high": {
              "value": 0.8,
              "code": "mg/dL",
              "system": "http://unitsofmeasure.org"
            }
          }
        ],
        "interpretation": [
          {
            "coding": [
              {
                "code": "H",
                "system": "http://terminology.hl7.org/CodeSystem/v3-ObservationInterpretation",
                "display": "High"
              }
            ]
          }
        ],
        "text": {
          "status": "generated",
          "div": "<div xmlns=\"http://www.w3.org/1999/xhtml\"><table class=\"hl7__eu__lab__report\"><tr><th>Test</th><th>14-Dec-2015</th><th>Reference&#xA0;Range</th><th>Unit</th></tr><tr><td>Glucose [Mass/volume] in Urine by Test strip</td><td>2.4</td><td>0 - 0.8</td><td>H</td><td>mg/dL</td></tr></table></div>"
        },
        "status": "final",
        "subject": {
          "reference": "urn:uuid:86339c47-e8dc-4af9-8868-b705e0ece3a6",
          "display": "Iva Kratochvílová"
        },
        "effectiveDateTime": "2015-12-14T13:37:29Z",
        "specimen": {
          "reference": "urn:uuid:fd6121ee-ee66-4d77-8445-b443cbbf741f"
        }
      }
    },
    {
      "fullUrl": "urn:uuid:a18f2422-9e06-4f38-af04-d33046b78a96",
      "resource": {
        "resourceType": "Observation",
        "id": "a18f2422-9e06-4f38-af04-d33046b78a96",
        "meta": {
          "profile": [
            "http://hl7.eu/fhir/laboratory/StructureDefinition/Observation-resultslab-eu-lab"
          ]
        },
        "performer": [
          {
            "display": "The Central European Lab"
          }
        ],
        "category": [
          {
            "coding": [
              {
                "system": "http://terminology.hl7.org/CodeSystem/observation-category",
                "code": "laboratory"
              }
            ]
          }
        ],
        "code": {
          "coding": [
            {
              "code": "25428-4",
              "system": "http://loinc.org",
              "display": "Glucose [Presence] in Urine by Test strip"
            }
          ],
          "text": "Glucose [Presence] in Urine by Test strip"
        },
        "text": {
          "status": "generated",
          "div": "<div xmlns=\"http://www.w3.org/1999/xhtml\"><table class=\"hl7__eu__lab__report\"><tr><th>Test</th><th>14-Dec-2015</th><th>Reference&#xA0;Range</th><th>Unit</th></tr><tr><td>Glucose [Presence] in Urine by Test strip</td></tr></table></div>"
        },
        "status": "final",
        "subject": {
          "reference": "urn:uuid:86339c47-e8dc-4af9-8868-b705e0ece3a6",
          "display": "Iva Kratochvílová"
        },
        "effectiveDateTime": "2015-12-14T13:37:29Z",
        "specimen": {
          "reference": "urn:uuid:fd6121ee-ee66-4d77-8445-b443cbbf741f"
        }
      }
    },
    {
      "fullUrl": "urn:uuid:5feb7e17-9055-4297-96d8-d808a62de208",
      "resource": {
        "resourceType": "Observation",
        "id": "5feb7e17-9055-4297-96d8-d808a62de208",
        "meta": {
          "profile": [
            "http://hl7.eu/fhir/laboratory/StructureDefinition/Observation-resultslab-eu-lab"
          ]
        },
        "performer": [
          {
            "display": "The Central European Lab"
          }
        ],
        "category": [
          {
            "coding": [
              {
                "system": "http://terminology.hl7.org/CodeSystem/observation-category",
                "code": "laboratory"
              }
            ]
          }
        ],
        "code": {
          "coding": [
            {
              "code": "20505-4",
              "system": "http://loinc.org",
              "display": "Bilirubin.total [Mass/volume] in Urine by Test strip"
            }
          ],
          "text": "Bilirubin.total [Mass/volume] in Urine by Test strip"
        },
        "valueQuantity": {
          "system": "http://unitsofmeasure.org",
          "value": 1.4,
          "unit": "mg/dL",
          "code": "mg/dL"
        },
        "referenceRange": [
          {
            "low": {
              "value": 0,
              "code": "mg/dL",
              "system": "http://unitsofmeasure.org"
            }
          },
          {
            "high": {
              "value": 1,
              "code": "mg/dL",
              "system": "http://unitsofmeasure.org"
            }
          }
        ],
        "interpretation": [
          {
            "coding": [
              {
                "code": "H",
                "system": "http://terminology.hl7.org/CodeSystem/v3-ObservationInterpretation",
                "display": "High"
              }
            ]
          }
        ],
        "text": {
          "status": "generated",
          "div": "<div xmlns=\"http://www.w3.org/1999/xhtml\"><table class=\"hl7__eu__lab__report\"><tr><th>Test</th><th>14-Dec-2015</th><th>Reference&#xA0;Range</th><th>Unit</th></tr><tr><td>Bilirubin.total [Mass/volume] in Urine by Test strip</td><td>1.4</td><td>0 - 1</td><td>H</td><td>mg/dL</td></tr></table></div>"
        },
        "status": "final",
        "subject": {
          "reference": "urn:uuid:86339c47-e8dc-4af9-8868-b705e0ece3a6",
          "display": "Iva Kratochvílová"
        },
        "effectiveDateTime": "2015-12-14T13:37:29Z",
        "specimen": {
          "reference": "urn:uuid:fd6121ee-ee66-4d77-8445-b443cbbf741f"
        }
      }
    },
    {
      "fullUrl": "urn:uuid:b9a0fbc3-c411-46f5-bf2e-54c2f00518fd",
      "resource": {
        "resourceType": "Observation",
        "id": "b9a0fbc3-c411-46f5-bf2e-54c2f00518fd",
        "meta": {
          "profile": [
            "http://hl7.eu/fhir/laboratory/StructureDefinition/Observation-resultslab-eu-lab"
          ]
        },
        "performer": [
          {
            "display": "The Central European Lab"
          }
        ],
        "category": [
          {
            "coding": [
              {
                "system": "http://terminology.hl7.org/CodeSystem/observation-category",
                "code": "laboratory"
              }
            ]
          }
        ],
        "code": {
          "coding": [
            {
              "code": "5770-3",
              "system": "http://loinc.org",
              "display": "Bilirubin.total [Presence] in Urine by Test strip"
            }
          ],
          "text": "Bilirubin.total [Presence] in Urine by Test strip"
        },
        "text": {
          "status": "generated",
          "div": "<div xmlns=\"http://www.w3.org/1999/xhtml\"><table class=\"hl7__eu__lab__report\"><tr><th>Test</th><th>14-Dec-2015</th><th>Reference&#xA0;Range</th><th>Unit</th></tr><tr><td>Bilirubin.total [Presence] in Urine by Test strip</td></tr></table></div>"
        },
        "status": "final",
        "subject": {
          "reference": "urn:uuid:86339c47-e8dc-4af9-8868-b705e0ece3a6",
          "display": "Iva Kratochvílová"
        },
        "effectiveDateTime": "2015-12-14T13:37:29Z",
        "specimen": {
          "reference": "urn:uuid:fd6121ee-ee66-4d77-8445-b443cbbf741f"
        }
      }
    },
    {
      "fullUrl": "urn:uuid:157b4140-ecb1-4f4c-b807-6998cad58e42",
      "resource": {
        "resourceType": "Observation",
        "id": "157b4140-ecb1-4f4c-b807-6998cad58e42",
        "meta": {
          "profile": [
            "http://hl7.eu/fhir/laboratory/StructureDefinition/Observation-resultslab-eu-lab"
          ]
        },
        "performer": [
          {
            "display": "The Central European Lab"
          }
        ],
        "category": [
          {
            "coding": [
              {
                "system": "http://terminology.hl7.org/CodeSystem/observation-category",
                "code": "laboratory"
              }
            ]
          }
        ],
        "code": {
          "coding": [
            {
              "code": "5797-6",
              "system": "http://loinc.org",
              "display": "Ketones [Mass/volume] in Urine by Test strip"
            }
          ],
          "text": "Ketones [Mass/volume] in Urine by Test strip"
        },
        "valueQuantity": {
          "system": "http://unitsofmeasure.org",
          "value": 13.7,
          "unit": "mg/dL",
          "code": "mg/dL"
        },
        "referenceRange": [
          {
            "low": {
              "value": 0,
              "code": "mg/dL",
              "system": "http://unitsofmeasure.org"
            }
          },
          {
            "high": {
              "value": 4,
              "code": "mg/dL",
              "system": "http://unitsofmeasure.org"
            }
          }
        ],
        "interpretation": [
          {
            "coding": [
              {
                "code": "H",
                "system": "http://terminology.hl7.org/CodeSystem/v3-ObservationInterpretation",
                "display": "High"
              }
            ]
          }
        ],
        "text": {
          "status": "generated",
          "div": "<div xmlns=\"http://www.w3.org/1999/xhtml\"><table class=\"hl7__eu__lab__report\"><tr><th>Test</th><th>14-Dec-2015</th><th>Reference&#xA0;Range</th><th>Unit</th></tr><tr><td>Ketones [Mass/volume] in Urine by Test strip</td><td>13.7</td><td>0 - 4</td><td>H</td><td>mg/dL</td></tr></table></div>"
        },
        "status": "final",
        "subject": {
          "reference": "urn:uuid:86339c47-e8dc-4af9-8868-b705e0ece3a6",
          "display": "Iva Kratochvílová"
        },
        "effectiveDateTime": "2015-12-14T13:37:29Z",
        "specimen": {
          "reference": "urn:uuid:fd6121ee-ee66-4d77-8445-b443cbbf741f"
        }
      }
    },
    {
      "fullUrl": "urn:uuid:fef606da-3dd5-47cd-bb2d-9843141538e7",
      "resource": {
        "resourceType": "Observation",
        "id": "fef606da-3dd5-47cd-bb2d-9843141538e7",
        "meta": {
          "profile": [
            "http://hl7.eu/fhir/laboratory/StructureDefinition/Observation-resultslab-eu-lab"
          ]
        },
        "performer": [
          {
            "display": "The Central European Lab"
          }
        ],
        "category": [
          {
            "coding": [
              {
                "system": "http://terminology.hl7.org/CodeSystem/observation-category",
                "code": "laboratory"
              }
            ]
          }
        ],
        "code": {
          "coding": [
            {
              "code": "2514-8",
              "system": "http://loinc.org",
              "display": "Ketones [Presence] in Urine by Test strip"
            }
          ],
          "text": "Ketones [Presence] in Urine by Test strip"
        },
        "text": {
          "status": "generated",
          "div": "<div xmlns=\"http://www.w3.org/1999/xhtml\"><table class=\"hl7__eu__lab__report\"><tr><th>Test</th><th>14-Dec-2015</th><th>Reference&#xA0;Range</th><th>Unit</th></tr><tr><td>Ketones [Presence] in Urine by Test strip</td></tr></table></div>"
        },
        "status": "final",
        "subject": {
          "reference": "urn:uuid:86339c47-e8dc-4af9-8868-b705e0ece3a6",
          "display": "Iva Kratochvílová"
        },
        "effectiveDateTime": "2015-12-14T13:37:29Z",
        "specimen": {
          "reference": "urn:uuid:fd6121ee-ee66-4d77-8445-b443cbbf741f"
        }
      }
    },
    {
      "fullUrl": "urn:uuid:fd51911e-e3d2-4e21-bff3-2736f9a9e2a0",
      "resource": {
        "resourceType": "Observation",
        "id": "fd51911e-e3d2-4e21-bff3-2736f9a9e2a0",
        "meta": {
          "profile": [
            "http://hl7.eu/fhir/laboratory/StructureDefinition/Observation-resultslab-eu-lab"
          ]
        },
        "performer": [
          {
            "display": "The Central European Lab"
          }
        ],
        "category": [
          {
            "coding": [
              {
                "system": "http://terminology.hl7.org/CodeSystem/observation-category",
                "code": "laboratory"
              }
            ]
          }
        ],
        "code": {
          "coding": [
            {
              "code": "5811-5",
              "system": "http://loinc.org",
              "display": "Specific gravity of Urine by Test strip"
            }
          ],
          "text": "Specific gravity of Urine by Test strip"
        },
        "valueQuantity": {
          "system": "http://unitsofmeasure.org",
          "value": 1,
          "unit": "{nominal}",
          "code": "{nominal}"
        },
        "referenceRange": [
          {
            "low": {
              "value": 1.005,
              "code": "g/mL",
              "system": "http://unitsofmeasure.org"
            }
          },
          {
            "high": {
              "value": 1.03,
              "code": "g/mL",
              "system": "http://unitsofmeasure.org"
            }
          }
        ],
        "interpretation": [
          {
            "coding": [
              {
                "code": "L",
                "system": "http://terminology.hl7.org/CodeSystem/v3-ObservationInterpretation",
                "display": "Low"
              }
            ]
          }
        ],
        "text": {
          "status": "generated",
          "div": "<div xmlns=\"http://www.w3.org/1999/xhtml\"><table class=\"hl7__eu__lab__report\"><tr><th>Test</th><th>14-Dec-2015</th><th>Reference&#xA0;Range</th><th>Unit</th></tr><tr><td>Specific gravity of Urine by Test strip</td><td>1.0</td><td>1.005 - 1.03</td><td>L</td><td>{nominal}</td></tr></table></div>"
        },
        "status": "final",
        "subject": {
          "reference": "urn:uuid:86339c47-e8dc-4af9-8868-b705e0ece3a6",
          "display": "Iva Kratochvílová"
        },
        "effectiveDateTime": "2015-12-14T13:37:29Z",
        "specimen": {
          "reference": "urn:uuid:fd6121ee-ee66-4d77-8445-b443cbbf741f"
        }
      }
    },
    {
      "fullUrl": "urn:uuid:e55f5314-372b-4069-b8bd-6be49150001c",
      "resource": {
        "resourceType": "Observation",
        "id": "e55f5314-372b-4069-b8bd-6be49150001c",
        "meta": {
          "profile": [
            "http://hl7.eu/fhir/laboratory/StructureDefinition/Observation-resultslab-eu-lab"
          ]
        },
        "performer": [
          {
            "display": "The Central European Lab"
          }
        ],
        "category": [
          {
            "coding": [
              {
                "system": "http://terminology.hl7.org/CodeSystem/observation-category",
                "code": "laboratory"
              }
            ]
          }
        ],
        "code": {
          "coding": [
            {
              "code": "5803-2",
              "system": "http://loinc.org",
              "display": "pH of Urine by Test strip"
            }
          ],
          "text": "pH of Urine by Test strip"
        },
        "valueQuantity": {
          "system": "http://unitsofmeasure.org",
          "value": 5.6,
          "unit": "pH",
          "code": "pH"
        },
        "referenceRange": [
          {
            "low": {
              "value": 4.5,
              "code": "pH",
              "system": "http://unitsofmeasure.org"
            }
          },
          {
            "high": {
              "value": 7,
              "code": "pH",
              "system": "http://unitsofmeasure.org"
            }
          }
        ],
        "text": {
          "status": "generated",
          "div": "<div xmlns=\"http://www.w3.org/1999/xhtml\"><table class=\"hl7__eu__lab__report\"><tr><th>Test</th><th>14-Dec-2015</th><th>Reference&#xA0;Range</th><th>Unit</th></tr><tr><td>pH of Urine by Test strip</td><td>5.6</td><td>4.5 - 7</td><td></td><td>pH</td></tr></table></div>"
        },
        "status": "final",
        "subject": {
          "reference": "urn:uuid:86339c47-e8dc-4af9-8868-b705e0ece3a6",
          "display": "Iva Kratochvílová"
        },
        "effectiveDateTime": "2015-12-14T13:37:29Z",
        "specimen": {
          "reference": "urn:uuid:fd6121ee-ee66-4d77-8445-b443cbbf741f"
        }
      }
    },
    {
      "fullUrl": "urn:uuid:0f062235-f788-4e11-aab5-eeb92bf47ec2",
      "resource": {
        "resourceType": "Observation",
        "id": "0f062235-f788-4e11-aab5-eeb92bf47ec2",
        "meta": {
          "profile": [
            "http://hl7.eu/fhir/laboratory/StructureDefinition/Observation-resultslab-eu-lab"
          ]
        },
        "performer": [
          {
            "display": "The Central European Lab"
          }
        ],
        "category": [
          {
            "coding": [
              {
                "system": "http://terminology.hl7.org/CodeSystem/observation-category",
                "code": "laboratory"
              }
            ]
          }
        ],
        "code": {
          "coding": [
            {
              "code": "5804-0",
              "system": "http://loinc.org",
              "display": "Protein [Mass/volume] in Urine by Test strip"
            }
          ],
          "text": "Protein [Mass/volume] in Urine by Test strip"
        },
        "valueQuantity": {
          "system": "http://unitsofmeasure.org",
          "value": 447.2,
          "unit": "mg/dL",
          "code": "mg/dL"
        },
        "referenceRange": [
          {
            "low": {
              "value": 0,
              "code": "mg/dL",
              "system": "http://unitsofmeasure.org"
            }
          },
          {
            "high": {
              "value": 145,
              "code": "mg/dL",
              "system": "http://unitsofmeasure.org"
            }
          }
        ],
        "interpretation": [
          {
            "coding": [
              {
                "code": "H",
                "system": "http://terminology.hl7.org/CodeSystem/v3-ObservationInterpretation",
                "display": "High"
              }
            ]
          }
        ],
        "text": {
          "status": "generated",
          "div": "<div xmlns=\"http://www.w3.org/1999/xhtml\"><table class=\"hl7__eu__lab__report\"><tr><th>Test</th><th>14-Dec-2015</th><th>Reference&#xA0;Range</th><th>Unit</th></tr><tr><td>Protein [Mass/volume] in Urine by Test strip</td><td>447.2</td><td>0 - 145</td><td>H</td><td>mg/dL</td></tr></table></div>"
        },
        "status": "final",
        "subject": {
          "reference": "urn:uuid:86339c47-e8dc-4af9-8868-b705e0ece3a6",
          "display": "Iva Kratochvílová"
        },
        "effectiveDateTime": "2015-12-14T13:37:29Z",
        "specimen": {
          "reference": "urn:uuid:fd6121ee-ee66-4d77-8445-b443cbbf741f"
        }
      }
    },
    {
      "fullUrl": "urn:uuid:6cac9054-f159-4c30-9751-e8c96647e602",
      "resource": {
        "resourceType": "Observation",
        "id": "6cac9054-f159-4c30-9751-e8c96647e602",
        "meta": {
          "profile": [
            "http://hl7.eu/fhir/laboratory/StructureDefinition/Observation-resultslab-eu-lab"
          ]
        },
        "performer": [
          {
            "display": "The Central European Lab"
          }
        ],
        "category": [
          {
            "coding": [
              {
                "system": "http://terminology.hl7.org/CodeSystem/observation-category",
                "code": "laboratory"
              }
            ]
          }
        ],
        "code": {
          "coding": [
            {
              "code": "20454-5",
              "system": "http://loinc.org",
              "display": "Protein [Presence] in Urine by Test strip"
            }
          ],
          "text": "Protein [Presence] in Urine by Test strip"
        },
        "text": {
          "status": "generated",
          "div": "<div xmlns=\"http://www.w3.org/1999/xhtml\"><table class=\"hl7__eu__lab__report\"><tr><th>Test</th><th>14-Dec-2015</th><th>Reference&#xA0;Range</th><th>Unit</th></tr><tr><td>Protein [Presence] in Urine by Test strip</td></tr></table></div>"
        },
        "status": "final",
        "subject": {
          "reference": "urn:uuid:86339c47-e8dc-4af9-8868-b705e0ece3a6",
          "display": "Iva Kratochvílová"
        },
        "effectiveDateTime": "2015-12-14T13:37:29Z",
        "specimen": {
          "reference": "urn:uuid:fd6121ee-ee66-4d77-8445-b443cbbf741f"
        }
      }
    },
    {
      "fullUrl": "urn:uuid:a77aca16-099a-486a-b196-d6dd83b3440f",
      "resource": {
        "resourceType": "Observation",
        "id": "a77aca16-099a-486a-b196-d6dd83b3440f",
        "meta": {
          "profile": [
            "http://hl7.eu/fhir/laboratory/StructureDefinition/Observation-resultslab-eu-lab"
          ]
        },
        "performer": [
          {
            "display": "The Central European Lab"
          }
        ],
        "category": [
          {
            "coding": [
              {
                "system": "http://terminology.hl7.org/CodeSystem/observation-category",
                "code": "laboratory"
              }
            ]
          }
        ],
        "code": {
          "coding": [
            {
              "code": "5802-4",
              "system": "http://loinc.org",
              "display": "Nitrite [Presence] in Urine by Test strip"
            }
          ],
          "text": "Nitrite [Presence] in Urine by Test strip"
        },
        "text": {
          "status": "generated",
          "div": "<div xmlns=\"http://www.w3.org/1999/xhtml\"><table class=\"hl7__eu__lab__report\"><tr><th>Test</th><th>14-Dec-2015</th><th>Reference&#xA0;Range</th><th>Unit</th></tr><tr><td>Nitrite [Presence] in Urine by Test strip</td></tr></table></div>"
        },
        "status": "final",
        "subject": {
          "reference": "urn:uuid:86339c47-e8dc-4af9-8868-b705e0ece3a6",
          "display": "Iva Kratochvílová"
        },
        "effectiveDateTime": "2015-12-14T13:37:29Z",
        "specimen": {
          "reference": "urn:uuid:fd6121ee-ee66-4d77-8445-b443cbbf741f"
        }
      }
    },
    {
      "fullUrl": "urn:uuid:97f106be-923c-4098-8df1-32594f992775",
      "resource": {
        "resourceType": "Observation",
        "id": "97f106be-923c-4098-8df1-32594f992775",
        "meta": {
          "profile": [
            "http://hl7.eu/fhir/laboratory/StructureDefinition/Observation-resultslab-eu-lab"
          ]
        },
        "performer": [
          {
            "display": "The Central European Lab"
          }
        ],
        "category": [
          {
            "coding": [
              {
                "system": "http://terminology.hl7.org/CodeSystem/observation-category",
                "code": "laboratory"
              }
            ]
          }
        ],
        "code": {
          "coding": [
            {
              "code": "5794-3",
              "system": "http://loinc.org",
              "display": "Hemoglobin [Presence] in Urine by Test strip"
            }
          ],
          "text": "Hemoglobin [Presence] in Urine by Test strip"
        },
        "text": {
          "status": "generated",
          "div": "<div xmlns=\"http://www.w3.org/1999/xhtml\"><table class=\"hl7__eu__lab__report\"><tr><th>Test</th><th>14-Dec-2015</th><th>Reference&#xA0;Range</th><th>Unit</th></tr><tr><td>Hemoglobin [Presence] in Urine by Test strip</td></tr></table></div>"
        },
        "status": "final",
        "subject": {
          "reference": "urn:uuid:86339c47-e8dc-4af9-8868-b705e0ece3a6",
          "display": "Iva Kratochvílová"
        },
        "effectiveDateTime": "2015-12-14T13:37:29Z",
        "specimen": {
          "reference": "urn:uuid:fd6121ee-ee66-4d77-8445-b443cbbf741f"
        }
      }
    },
    {
      "fullUrl": "urn:uuid:909cb5ba-7693-4f22-b270-216041ea9a16",
      "resource": {
        "resourceType": "Observation",
        "id": "909cb5ba-7693-4f22-b270-216041ea9a16",
        "meta": {
          "profile": [
            "http://hl7.eu/fhir/laboratory/StructureDefinition/Observation-resultslab-eu-lab"
          ]
        },
        "performer": [
          {
            "display": "The Central European Lab"
          }
        ],
        "category": [
          {
            "coding": [
              {
                "system": "http://terminology.hl7.org/CodeSystem/observation-category",
                "code": "laboratory"
              }
            ]
          }
        ],
        "code": {
          "coding": [
            {
              "code": "5799-2",
              "system": "http://loinc.org",
              "display": "Leukocyte esterase [Presence] in Urine by Test strip"
            }
          ],
          "text": "Leukocyte esterase [Presence] in Urine by Test strip"
        },
        "text": {
          "status": "generated",
          "div": "<div xmlns=\"http://www.w3.org/1999/xhtml\"><table class=\"hl7__eu__lab__report\"><tr><th>Test</th><th>14-Dec-2015</th><th>Reference&#xA0;Range</th><th>Unit</th></tr><tr><td>Leukocyte esterase [Presence] in Urine by Test strip</td></tr></table></div>"
        },
        "status": "final",
        "subject": {
          "reference": "urn:uuid:86339c47-e8dc-4af9-8868-b705e0ece3a6",
          "display": "Iva Kratochvílová"
        },
        "effectiveDateTime": "2015-12-14T13:37:29Z",
        "specimen": {
          "reference": "urn:uuid:fd6121ee-ee66-4d77-8445-b443cbbf741f"
        }
      }
    },
    {
      "fullUrl": "urn:uuid:a5af4dea-603d-4de8-8750-1b1aa63fed37",
      "resource": {
        "resourceType": "Device",
        "id": "a5af4dea-603d-4de8-8750-1b1aa63fed37",
        "deviceName": [
          {
            "name": "SYNDERAI Synthetic Generator",
            "type": "manufacturer-name"
          }
        ],
        "version": [
          {
            "value": "5.0"
          }
        ],
        "text": {
          "status": "generated",
          "div": "<div xmlns=\"http://www.w3.org/1999/xhtml\">SYNDERAI Synthetic Generator v5.0</div>"
        },
        "status": "active\"",
        "distinctIdentifier": "synderai-generator-50",
        "manufacturer": "SYNDERAI Project"
      }
    },
    {
      "fullUrl": "urn:uuid:1f264a7a-3aab-4ea1-9bb5-f3452fa52f31",
      "resource": {
        "resourceType": "Provenance",
        "id": "1f264a7a-3aab-4ea1-9bb5-f3452fa52f31",
        "target": [
          {
            "reference": "Patient/86339c47-e8dc-4af9-8868-b705e0ece3a6"
          },
          {
            "reference": "Bundle/b7984923-5c67-421f-a9bb-754fa0f1443b"
          },
          {
            "reference": "Composition/155354f6-0841-48ca-b6a2-49eff0d0266d"
          },
          {
            "reference": "PractitionerRole/8e1cf9f2-ae3d-4c41-9cba-11dd6aba0558"
          },
          {
            "reference": "Practitioner/314ff491-40ef-4426-86cb-6ec8e5fbba2c"
          },
          {
            "reference": "PractitionerRole/cd464c94-7c84-47e2-a676-048aa68edff5"
          },
          {
            "reference": "Organization/858579ae-350d-4d4a-b2d9-9535c609bdb9"
          }
        ],
        "activity": {
          "text": "Synthetic Example Data Generation"
        },
        "policy": [
          "https://synderai.net/synderai-synthetic-data-policy"
        ],
        "agent": [
          {
            "type": {
              "text": "author"
            },
            "who": {
              "reference": "Device/a5af4dea-603d-4de8-8750-1b1aa63fed37"
            }
          }
        ],
        "reason": [
          {
            "text": "Interoperability Testing and Training (non-clinical use)"
          }
        ],
        "text": {
          "status": "generated",
          "div": "<div xmlns=\"http://www.w3.org/1999/xhtml\">Provenance for SYNDERAI Synthetic Example Data Resource</div>"
        },
        "recorded": "2015-12-14T14:37:29Z"
      }
    },
    {
      "fullUrl": "urn:uuid:8e1cf9f2-ae3d-4c41-9cba-11dd6aba0558",
      "resource": {
        "resourceType": "PractitionerRole",
        "id": "8e1cf9f2-ae3d-4c41-9cba-11dd6aba0558",
        "meta": {
          "profile": [
            "http://hl7.eu/fhir/base/StructureDefinition/practitionerRole-eu"
          ]
        },
        "text": {
          "status": "generated",
          "div": "<div xmlns=\"http://www.w3.org/1999/xhtml\">Laboratory Role Id: 8e1cf9f2-ae3d-4c41-9cba-11dd6aba0558</div>"
        },
        "practitioner": {
          "reference": "urn:uuid:314ff491-40ef-4426-86cb-6ec8e5fbba2c"
        }
      }
    },
    {
      "fullUrl": "urn:uuid:314ff491-40ef-4426-86cb-6ec8e5fbba2c",
      "resource": {
        "resourceType": "Practitioner",
        "id": "314ff491-40ef-4426-86cb-6ec8e5fbba2c",
        "meta": {
          "profile": [
            "http://hl7.eu/fhir/base/StructureDefinition/practitioner-eu"
          ]
        },
        "identifier": [
          {
            "assigner": {
              "display": "HL7 Europe"
            },
            "system": "urn:oid:2.16.840.1.113883.2.51.999",
            "value": "d7f14d34-b7f6-4507-abb0-c073a4380e05"
          }
        ],
        "name": [
          {
            "prefix": [
              "dr"
            ],
            "given": [
              "Ex"
            ],
            "family": "Ample"
          }
        ],
        "address": [
          {
            "line": [
              "Laboratoire Central Européenne",
              "Boulevard du Jardin Botanique 32"
            ],
            "postalCode": "1000",
            "city": "Brussels",
            "country": "Belgium"
          }
        ],
        "text": {
          "status": "generated",
          "div": "<div xmlns=\"http://www.w3.org/1999/xhtml\">Laboratory: Laboratoire Central Européenne, 1000 Brussels, Belgium</div>"
        }
      }
    }
  ],
  "type": "document",
  "timestamp": "2015-12-14T14:37:29Z"
}
