{
  "resourceType": "Bundle",
  "id": "97472b07-6074-44dd-8698-92212edac8f9",
  "meta": {
    "profile": [
      "http://hl7.eu/fhir/laboratory/StructureDefinition/Bundle-eu-lab"
    ]
  },
  "identifier": {
    "assigner": {
      "display": "HL7 Europe"
    },
    "system": "urn:oid:2.16.840.1.113883.2.51.999",
    "value": "002ea277-5a8c-43a9-ad65-2c8837f4cf2e"
  },
  "entry": [
    {
      "fullUrl": "urn:uuid:f3ef5128-c440-4956-9bba-29c34c46894d",
      "resource": {
        "resourceType": "Composition",
        "id": "f3ef5128-c440-4956-9bba-29c34c46894d",
        "meta": {
          "profile": [
            "http://hl7.eu/fhir/laboratory/StructureDefinition/Composition-eu-lab"
          ]
        },
        "identifier": {
          "assigner": {
            "display": "HL7 Europe"
          },
          "system": "urn:oid:2.16.840.1.113883.2.51.999",
          "value": "df154546-4082-4150-8eed-239c7e63bb8f"
        },
        "author": [
          {
            "reference": "urn:uuid:fa235480-b66c-4b64-b984-52510223a4f2"
          }
        ],
        "category": [
          {
            "coding": [
              {
                "code": "26436-6",
                "system": "http://loinc.org",
                "display": "Laboratory studies (set)"
              }
            ]
          }
        ],
        "type": {
          "coding": [
            {
              "code": "11502-2",
              "system": "http://loinc.org",
              "display": "Laboratory report"
            }
          ],
          "text": "Laboratory Report"
        },
        "section": [
          {
            "code": {
              "coding": [
                {
                  "code": "26436-6",
                  "system": "http://loinc.org",
                  "display": "Laboratory studies (set)"
                }
              ],
              "text": "Laboratory studies"
            },
            "section": [
              {
                "code": {
                  "coding": [
                    {
                      "code": "$18723-7",
                      "system": "http://loinc.org",
                      "display": "Hematology studies (set)"
                    }
                  ],
                  "text": "Hematology"
                },
                "entry": [
                  {
                    "reference": "urn:uuid:c0052b78-4ebd-42d9-a843-7fe25134c866"
                  },
                  {
                    "reference": "urn:uuid:b34a53eb-d7c6-4e2a-82e8-30905518451f"
                  },
                  {
                    "reference": "urn:uuid:3e529e21-a833-44b9-aee7-69840d9efb8b"
                  },
                  {
                    "reference": "urn:uuid:271a7403-b688-4776-9b0e-be8c73c292cb"
                  },
                  {
                    "reference": "urn:uuid:a01f55b7-a2c4-4d6b-8c2e-d0a96fbdec01"
                  },
                  {
                    "reference": "urn:uuid:24460e60-c677-4d5f-a8e0-5d57d9d5bc1a"
                  },
                  {
                    "reference": "urn:uuid:05a74f6a-cb6e-4818-a8fe-2db3e7fcbd96"
                  },
                  {
                    "reference": "urn:uuid:f5f49326-8e25-4f70-899d-ea227462630d"
                  },
                  {
                    "reference": "urn:uuid:7035612a-f616-44b2-9527-9f4d9336f660"
                  },
                  {
                    "reference": "urn:uuid:1741c3ce-376b-4831-b275-e17580d76b3b"
                  },
                  {
                    "reference": "urn:uuid:17a963cc-ca34-4399-8fb9-2ee1c7c4f8a1"
                  }
                ],
                "text": {
                  "status": "generated",
                  "div": "<div xmlns=\"http://www.w3.org/1999/xhtml\"><h3>Hematology</h3><table class=\"hl7__eu__lab__report\"><thead><tr><th>Test</th><th>12-MAR-2019</th><th>Reference&#xA0;Range</th><th>Unit</th></tr></thead><tbody><tr><td>Leukocytes [#/volume] in Blood by Automated count</td><td>8.8</td><td>3.6 - 10.5</td><td>10*3/uL</td></tr><tr><td>Erythrocytes [#/volume] in Blood by Automated count</td><td><strong>5.1 H</strong></td><td>4.5 - 5</td><td>10*6/uL</td></tr><tr><td>Hemoglobin [Mass/volume] in Blood</td><td><strong>16.3 H</strong></td><td>12 - 15.5</td><td>g/dL</td></tr><tr><td>Hematocrit [Volume Fraction] of Blood by Automated count</td><td>42.2</td><td>37 - 52</td><td>%</td></tr><tr><td>MCV [Entitic volume] by Automated count</td><td>85.3</td><td>82 - 98</td><td>fL</td></tr><tr><td>MCH [Entitic mass] by Automated count</td><td>28.4</td><td>27 - 34.5</td><td>pg</td></tr><tr><td>MCHC [Mass/volume] by Automated count</td><td>34.3</td><td>32 - 37</td><td>g/dL</td></tr><tr><td>Erythrocyte distribution width [Entitic volume] by Automated count</td><td>45.0</td><td>36 - 55</td><td>fL</td></tr><tr><td>Platelets [#/volume] in Blood by Automated count</td><td>376.8</td><td>150 - 400</td><td>10*3/uL</td></tr><tr><td>Platelet distribution width [Entitic volume] in Blood by Automated count</td><td><strong>438.3 H</strong></td><td>11.6 - 17.4</td><td>fL</td></tr><tr><td>Platelet mean volume [Entitic volume] in Blood by Automated count</td><td>9.8</td><td>7.2 - 13.5</td><td>fL</td></tr></tbody></table></div>"
                },
                "title": "Hematology"
              }
            ],
            "title": "Laboratory Report"
          },
          {
            "text": {
              "status": "generated",
              "div": "<div xmlns=\"http://www.w3.org/1999/xhtml\"><h3>Annotation</h3><table class=\"hl7__eu__lab__report\"><tr><th>Conclusion and Recommendations based on this report and previous findings known to us</th></tr><tr><td>The results show mild erythrocytosis (elevated erythrocytes and hemoglobin) and a markedly increased platelet distribution width, while other parameters are within normal limits. These findings may suggest possible dehydration, early myeloproliferative process, or laboratory variation. Clinical correlation and, if indicated, further hematological evaluation are recommended.</td></tr></table></div>"
            },
            "code": {
              "coding": [
                {
                  "system": "http://loinc.org",
                  "code": "48767-8",
                  "display": "Annotation comment"
                }
              ]
            },
            "title": "Annotation comment"
          }
        ],
        "status": "final",
        "subject": {
          "reference": "urn:uuid:f6a50004-7d19-48e4-beee-a5eb0fd0f5cb",
          "display": "Hortense Gallet"
        },
        "date": "2019-03-12T21:16:45Z",
        "title": "Laboratory Report",
        "confidentiality": "N"
      }
    },
    {
      "fullUrl": "urn:uuid:373ec662-782c-4718-b8a5-f591d5980377",
      "resource": {
        "resourceType": "DiagnosticReport",
        "id": "373ec662-782c-4718-b8a5-f591d5980377",
        "meta": {
          "profile": [
            "http://hl7.eu/fhir/laboratory/StructureDefinition/DiagnosticReport-eu-lab"
          ]
        },
        "identifier": [
          {
            "assigner": {
              "display": "HL7 Europe"
            },
            "system": "urn:oid:2.16.840.1.113883.2.51.999",
            "value": "af4688d8-36d2-4253-8e8f-51d33db73f44"
          }
        ],
        "extension": [
          {
            "url": "http://hl7.org/fhir/5.0/StructureDefinition/extension-DiagnosticReport.composition",
            "valueReference": {
              "reference": "urn:uuid:df154546-4082-4150-8eed-239c7e63bb8f"
            }
          }
        ],
        "category": [
          {
            "coding": [
              {
                "code": "26436-6",
                "system": "http://loinc.org",
                "display": "Laboratory studies (set)"
              }
            ]
          }
        ],
        "specimen": [
          {
            "reference": "urn:uuid:6879855f-a809-42d5-8b03-b7d7017e705c"
          },
          {
            "reference": "urn:uuid:6879855f-a809-42d5-8b03-b7d7017e705c"
          }
        ],
        "result": [
          {
            "reference": "urn:uuid:c0052b78-4ebd-42d9-a843-7fe25134c866"
          },
          {
            "reference": "urn:uuid:b34a53eb-d7c6-4e2a-82e8-30905518451f"
          },
          {
            "reference": "urn:uuid:3e529e21-a833-44b9-aee7-69840d9efb8b"
          },
          {
            "reference": "urn:uuid:271a7403-b688-4776-9b0e-be8c73c292cb"
          },
          {
            "reference": "urn:uuid:a01f55b7-a2c4-4d6b-8c2e-d0a96fbdec01"
          },
          {
            "reference": "urn:uuid:24460e60-c677-4d5f-a8e0-5d57d9d5bc1a"
          },
          {
            "reference": "urn:uuid:05a74f6a-cb6e-4818-a8fe-2db3e7fcbd96"
          },
          {
            "reference": "urn:uuid:f5f49326-8e25-4f70-899d-ea227462630d"
          },
          {
            "reference": "urn:uuid:7035612a-f616-44b2-9527-9f4d9336f660"
          },
          {
            "reference": "urn:uuid:1741c3ce-376b-4831-b275-e17580d76b3b"
          },
          {
            "reference": "urn:uuid:17a963cc-ca34-4399-8fb9-2ee1c7c4f8a1"
          }
        ],
        "status": "registered",
        "code": {
          "coding": [
            {
              "code": "11502-2",
              "system": "http://loinc.org",
              "display": "Laboratory report"
            }
          ]
        },
        "subject": {
          "reference": "urn:uuid:f6a50004-7d19-48e4-beee-a5eb0fd0f5cb",
          "display": "Hortense Gallet"
        }
      }
    },
    {
      "fullUrl": "urn:uuid:f6a50004-7d19-48e4-beee-a5eb0fd0f5cb",
      "resource": {
        "resourceType": "Patient",
        "id": "f6a50004-7d19-48e4-beee-a5eb0fd0f5cb",
        "meta": {
          "security": [
            {
              "system": "http://terminology.hl7.org/CodeSystem/v3-ActReason",
              "code": "HTEST"
            },
            {
              "system": "http://terminology.hl7.org/CodeSystem/v3-ActReason",
              "code": "TRAIN"
            }
          ],
          "tag": [
            {
              "system": "https://synderai.net/fhir/CodeSystem/tags",
              "code": "synthetic",
              "display": "SYNDERAI Synthetic data"
            }
          ],
          "profile": [
            "http://hl7.eu/fhir/base/StructureDefinition/patient-eu-core"
          ]
        },
        "identifier": [
          {
            "type": {
              "coding": [
                {
                  "code": "PT",
                  "system": "http://terminology.hl7.org/CodeSystem/v2-0203"
                }
              ]
            },
            "system": "http://ec.europa.eu/identifier/eci",
            "value": "7727-126450-7"
          },
          {
            "type": {
              "coding": [
                {
                  "code": "MR",
                  "system": "http://terminology.hl7.org/CodeSystem/v2-0203"
                }
              ]
            },
            "system": "http://local.setting.eu/identifier",
            "value": "7f40b956-404d-dd5b-92ca-442ee97c8277"
          }
        ],
        "name": [
          {
            "family": "Gallet"
          },
          {
            "given": [
              "Hortense"
            ]
          },
          {
            "text": "Hortense Gallet"
          }
        ],
        "address": [
          {
            "line": [
              "98, boulevard de Faure"
            ],
            "use": "home",
            "type": "physical",
            "postalCode": "03210",
            "city": "Besson",
            "country": "France"
          }
        ],
        "telecom": [
          {
            "system": "phone",
            "value": "03 26 87 89 04"
          }
        ],
        "extension": [
          {
            "url": "http://hl7.org/fhir/StructureDefinition/patient-nationality",
            "valueCodeableConcept": {
              "coding": [
                {
                  "code": "FR",
                  "system": "http://hl7.org/fhir/ValueSet/country"
                }
              ]
            }
          }
        ],
        "text": {
          "status": "generated",
          "div": "<div xmlns=\"http://www.w3.org/1999/xhtml\"><table class=\"hl7__ips\"><tr><td>Hortense Gallet</td><td>female</td><td>14-Feb-1967</td></tr></table></div>"
        },
        "gender": "female",
        "birthDate": "1967-02-14"
      }
    },
    {
      "fullUrl": "urn:uuid:d488de58-3aec-4c73-b479-c49639e71137",
      "resource": {
        "resourceType": "ServiceRequest",
        "id": "d488de58-3aec-4c73-b479-c49639e71137",
        "meta": {
          "profile": [
            "http://hl7.eu/fhir/laboratory/StructureDefinition/ServiceRequest-eu-lab"
          ]
        },
        "identifier": [
          {
            "system": "http://example.org",
            "value": "609d9bd1-9f01-4b79-89da-008fe99a0cb7"
          }
        ],
        "specimen": [
          {
            "reference": "urn:uuid:6879855f-a809-42d5-8b03-b7d7017e705c"
          }
        ],
        "reasonCode": [
          {
            "coding": [
              {
                "code": "431856006",
                "system": "http://snomed.info/sct",
                "display": "Chronic kidney disease stage 2"
              }
            ]
          },
          {
            "coding": [
              {
                "code": "90781000119102",
                "system": "http://snomed.info/sct",
                "display": "Microalbuminuria due to type 2 diabetes mellitus"
              }
            ]
          },
          {
            "coding": [
              {
                "code": "127013003",
                "system": "http://snomed.info/sct",
                "display": "Disorder of kidney due to diabetes mellitus"
              }
            ]
          },
          {
            "coding": [
              {
                "code": "431855005",
                "system": "http://snomed.info/sct",
                "display": "Chronic kidney disease stage 1"
              }
            ]
          },
          {
            "coding": [
              {
                "code": "59621000",
                "system": "http://snomed.info/sct",
                "display": "Essential hypertension"
              }
            ]
          }
        ],
        "status": "active",
        "intent": "order",
        "code": {
          "coding": [
            {
              "code": "108252007",
              "system": "http://snomed.info/sct",
              "display": "Laboratory procedure"
            }
          ]
        },
        "subject": {
          "reference": "urn:uuid:f6a50004-7d19-48e4-beee-a5eb0fd0f5cb",
          "display": "Hortense Gallet"
        },
        "requester": {
          "reference": "urn:uuid:16909977-959d-46a9-bf71-8506dd2b88ea"
        }
      }
    },
    {
      "fullUrl": "urn:uuid:16909977-959d-46a9-bf71-8506dd2b88ea",
      "resource": {
        "resourceType": "PractitionerRole",
        "id": "16909977-959d-46a9-bf71-8506dd2b88ea",
        "meta": {
          "profile": [
            "http://hl7.eu/fhir/base/StructureDefinition/practitionerRole-eu"
          ]
        },
        "text": {
          "status": "generated",
          "div": "<div xmlns=\"http://www.w3.org/1999/xhtml\">Provider Role Id: 16909977-959d-46a9-bf71-8506dd2b88ea</div>"
        },
        "organization": {
          "reference": "urn:uuid:411e7051-216a-44dc-a8ba-9a746da19c9e"
        }
      }
    },
    {
      "fullUrl": "urn:uuid:411e7051-216a-44dc-a8ba-9a746da19c9e",
      "resource": {
        "resourceType": "Organization",
        "id": "411e7051-216a-44dc-a8ba-9a746da19c9e",
        "meta": {
          "profile": [
            "http://hl7.eu/fhir/base/StructureDefinition/organization-eu"
          ]
        },
        "identifier": [
          {
            "assigner": {
              "display": "HL7 Europe"
            },
            "system": "urn:oid:2.16.840.1.113883.2.51.999",
            "value": "c6f8f703-e36d-4b10-a7e0-6f13be052ba0"
          }
        ],
        "address": [
          {
            "line": [
              "Rue Jean Jaurès 140"
            ],
            "city": "Vichy",
            "postalCode": "03200",
            "country": "France"
          }
        ],
        "text": {
          "status": "generated",
          "div": "<div xmlns=\"http://www.w3.org/1999/xhtml\">Provider Organization: Centre La Chrysalide</div>"
        },
        "name": "Centre La Chrysalide"
      }
    },
    {
      "fullUrl": "urn:uuid:6879855f-a809-42d5-8b03-b7d7017e705c",
      "resource": {
        "resourceType": "Specimen",
        "id": "6879855f-a809-42d5-8b03-b7d7017e705c",
        "meta": {
          "profile": [
            "http://hl7.eu/fhir/laboratory/StructureDefinition/Specimen-eu-lab"
          ]
        },
        "collection": {
          "collectedDateTime": "2019-03-12"
        },
        "text": {
          "status": "generated",
          "div": "<div xmlns=\"http://www.w3.org/1999/xhtml\"><table class=\"hl7__eu__lab__report\"><tr><th>Specimen</th><th>Collection Date</th></tr><tr><td>Whole blood specimen (specimen)</td><td><span class=\"nb\">12-Mar-2019</span></td></tr></table></div>"
        },
        "type": {
          "coding": [
            {
              "code": "258580003",
              "system": "http://snomed.info/sct",
              "display": "Whole blood specimen (specimen)"
            }
          ]
        }
      }
    },
    {
      "fullUrl": "urn:uuid:6879855f-a809-42d5-8b03-b7d7017e705c",
      "resource": {
        "resourceType": "Specimen",
        "id": "6879855f-a809-42d5-8b03-b7d7017e705c",
        "meta": {
          "profile": [
            "http://hl7.eu/fhir/laboratory/StructureDefinition/Specimen-eu-lab"
          ]
        },
        "collection": {
          "collectedDateTime": "2019-03-12"
        },
        "text": {
          "status": "generated",
          "div": "<div xmlns=\"http://www.w3.org/1999/xhtml\"><table class=\"hl7__eu__lab__report\"><tr><th>Specimen</th><th>Collection Date</th></tr><tr><td>Whole blood specimen (specimen)</td><td><span class=\"nb\">12-Mar-2019</span></td></tr></table></div>"
        },
        "type": {
          "coding": [
            {
              "code": "258580003",
              "system": "http://snomed.info/sct",
              "display": "Whole blood specimen (specimen)"
            }
          ]
        }
      }
    },
    {
      "fullUrl": "urn:uuid:c0052b78-4ebd-42d9-a843-7fe25134c866",
      "resource": {
        "resourceType": "Observation",
        "id": "c0052b78-4ebd-42d9-a843-7fe25134c866",
        "meta": {
          "profile": [
            "http://hl7.eu/fhir/laboratory/StructureDefinition/Observation-resultslab-eu-lab"
          ]
        },
        "performer": [
          {
            "display": "The Central European Lab"
          }
        ],
        "category": [
          {
            "coding": [
              {
                "system": "http://terminology.hl7.org/CodeSystem/observation-category",
                "code": "laboratory"
              }
            ]
          }
        ],
        "code": {
          "coding": [
            {
              "code": "6690-2",
              "system": "http://loinc.org",
              "display": "Leukocytes [#/volume] in Blood by Automated count"
            }
          ],
          "text": "Leukocytes [#/volume] in Blood by Automated count"
        },
        "valueQuantity": {
          "system": "http://unitsofmeasure.org",
          "value": 8.8,
          "unit": "10*3/uL",
          "code": "10*3/uL"
        },
        "referenceRange": [
          {
            "low": {
              "value": 3.6,
              "code": "10*3/uL",
              "system": "http://unitsofmeasure.org"
            }
          },
          {
            "high": {
              "value": 10.5,
              "code": "10*3/uL",
              "system": "http://unitsofmeasure.org"
            }
          }
        ],
        "text": {
          "status": "generated",
          "div": "<div xmlns=\"http://www.w3.org/1999/xhtml\"><table class=\"hl7__eu__lab__report\"><tr><th>Test</th><th>12-Mar-2019</th><th>Reference&#xA0;Range</th><th>Unit</th></tr><tr><td>Leukocytes [#/volume] in Blood by Automated count</td><td>8.8</td><td>3.6 - 10.5</td><td></td><td>10*3/uL</td></tr></table></div>"
        },
        "status": "final",
        "subject": {
          "reference": "urn:uuid:f6a50004-7d19-48e4-beee-a5eb0fd0f5cb",
          "display": "Hortense Gallet"
        },
        "effectiveDateTime": "2019-03-12T20:16:45Z",
        "specimen": {
          "reference": "urn:uuid:6879855f-a809-42d5-8b03-b7d7017e705c"
        }
      }
    },
    {
      "fullUrl": "urn:uuid:b34a53eb-d7c6-4e2a-82e8-30905518451f",
      "resource": {
        "resourceType": "Observation",
        "id": "b34a53eb-d7c6-4e2a-82e8-30905518451f",
        "meta": {
          "profile": [
            "http://hl7.eu/fhir/laboratory/StructureDefinition/Observation-resultslab-eu-lab"
          ]
        },
        "performer": [
          {
            "display": "The Central European Lab"
          }
        ],
        "category": [
          {
            "coding": [
              {
                "system": "http://terminology.hl7.org/CodeSystem/observation-category",
                "code": "laboratory"
              }
            ]
          }
        ],
        "code": {
          "coding": [
            {
              "code": "789-8",
              "system": "http://loinc.org",
              "display": "Erythrocytes [#/volume] in Blood by Automated count"
            }
          ],
          "text": "Erythrocytes [#/volume] in Blood by Automated count"
        },
        "valueQuantity": {
          "system": "http://unitsofmeasure.org",
          "value": 5.1,
          "unit": "10*6/uL",
          "code": "10*6/uL"
        },
        "referenceRange": [
          {
            "low": {
              "value": 4.5,
              "code": "10*6/uL",
              "system": "http://unitsofmeasure.org"
            }
          },
          {
            "high": {
              "value": 5,
              "code": "10*6/uL",
              "system": "http://unitsofmeasure.org"
            }
          }
        ],
        "interpretation": [
          {
            "coding": [
              {
                "code": "H",
                "system": "http://terminology.hl7.org/CodeSystem/v3-ObservationInterpretation",
                "display": "High"
              }
            ]
          }
        ],
        "text": {
          "status": "generated",
          "div": "<div xmlns=\"http://www.w3.org/1999/xhtml\"><table class=\"hl7__eu__lab__report\"><tr><th>Test</th><th>12-Mar-2019</th><th>Reference&#xA0;Range</th><th>Unit</th></tr><tr><td>Erythrocytes [#/volume] in Blood by Automated count</td><td>5.1</td><td>4.5 - 5</td><td>H</td><td>10*6/uL</td></tr></table></div>"
        },
        "status": "final",
        "subject": {
          "reference": "urn:uuid:f6a50004-7d19-48e4-beee-a5eb0fd0f5cb",
          "display": "Hortense Gallet"
        },
        "effectiveDateTime": "2019-03-12T20:16:45Z",
        "specimen": {
          "reference": "urn:uuid:6879855f-a809-42d5-8b03-b7d7017e705c"
        }
      }
    },
    {
      "fullUrl": "urn:uuid:3e529e21-a833-44b9-aee7-69840d9efb8b",
      "resource": {
        "resourceType": "Observation",
        "id": "3e529e21-a833-44b9-aee7-69840d9efb8b",
        "meta": {
          "profile": [
            "http://hl7.eu/fhir/laboratory/StructureDefinition/Observation-resultslab-eu-lab"
          ]
        },
        "performer": [
          {
            "display": "The Central European Lab"
          }
        ],
        "category": [
          {
            "coding": [
              {
                "system": "http://terminology.hl7.org/CodeSystem/observation-category",
                "code": "laboratory"
              }
            ]
          }
        ],
        "code": {
          "coding": [
            {
              "code": "718-7",
              "system": "http://loinc.org",
              "display": "Hemoglobin [Mass/volume] in Blood"
            }
          ],
          "text": "Hemoglobin [Mass/volume] in Blood"
        },
        "valueQuantity": {
          "system": "http://unitsofmeasure.org",
          "value": 16.3,
          "unit": "g/dL",
          "code": "g/dL"
        },
        "referenceRange": [
          {
            "low": {
              "value": 12,
              "code": "g/dL",
              "system": "http://unitsofmeasure.org"
            }
          },
          {
            "high": {
              "value": 15.5,
              "code": "g/dL",
              "system": "http://unitsofmeasure.org"
            }
          }
        ],
        "interpretation": [
          {
            "coding": [
              {
                "code": "H",
                "system": "http://terminology.hl7.org/CodeSystem/v3-ObservationInterpretation",
                "display": "High"
              }
            ]
          }
        ],
        "text": {
          "status": "generated",
          "div": "<div xmlns=\"http://www.w3.org/1999/xhtml\"><table class=\"hl7__eu__lab__report\"><tr><th>Test</th><th>12-Mar-2019</th><th>Reference&#xA0;Range</th><th>Unit</th></tr><tr><td>Hemoglobin [Mass/volume] in Blood</td><td>16.3</td><td>12 - 15.5</td><td>H</td><td>g/dL</td></tr></table></div>"
        },
        "status": "final",
        "subject": {
          "reference": "urn:uuid:f6a50004-7d19-48e4-beee-a5eb0fd0f5cb",
          "display": "Hortense Gallet"
        },
        "effectiveDateTime": "2019-03-12T20:16:45Z",
        "specimen": {
          "reference": "urn:uuid:6879855f-a809-42d5-8b03-b7d7017e705c"
        }
      }
    },
    {
      "fullUrl": "urn:uuid:271a7403-b688-4776-9b0e-be8c73c292cb",
      "resource": {
        "resourceType": "Observation",
        "id": "271a7403-b688-4776-9b0e-be8c73c292cb",
        "meta": {
          "profile": [
            "http://hl7.eu/fhir/laboratory/StructureDefinition/Observation-resultslab-eu-lab"
          ]
        },
        "performer": [
          {
            "display": "The Central European Lab"
          }
        ],
        "category": [
          {
            "coding": [
              {
                "system": "http://terminology.hl7.org/CodeSystem/observation-category",
                "code": "laboratory"
              }
            ]
          }
        ],
        "code": {
          "coding": [
            {
              "code": "4544-3",
              "system": "http://loinc.org",
              "display": "Hematocrit [Volume Fraction] of Blood by Automated count"
            }
          ],
          "text": "Hematocrit [Volume Fraction] of Blood by Automated count"
        },
        "valueQuantity": {
          "system": "http://unitsofmeasure.org",
          "value": 42.2,
          "unit": "%",
          "code": "%"
        },
        "referenceRange": [
          {
            "low": {
              "value": 37,
              "code": "%",
              "system": "http://unitsofmeasure.org"
            }
          },
          {
            "high": {
              "value": 52,
              "code": "%",
              "system": "http://unitsofmeasure.org"
            }
          }
        ],
        "text": {
          "status": "generated",
          "div": "<div xmlns=\"http://www.w3.org/1999/xhtml\"><table class=\"hl7__eu__lab__report\"><tr><th>Test</th><th>12-Mar-2019</th><th>Reference&#xA0;Range</th><th>Unit</th></tr><tr><td>Hematocrit [Volume Fraction] of Blood by Automated count</td><td>42.2</td><td>37 - 52</td><td></td><td>%</td></tr></table></div>"
        },
        "status": "final",
        "subject": {
          "reference": "urn:uuid:f6a50004-7d19-48e4-beee-a5eb0fd0f5cb",
          "display": "Hortense Gallet"
        },
        "effectiveDateTime": "2019-03-12T20:16:45Z",
        "specimen": {
          "reference": "urn:uuid:6879855f-a809-42d5-8b03-b7d7017e705c"
        }
      }
    },
    {
      "fullUrl": "urn:uuid:a01f55b7-a2c4-4d6b-8c2e-d0a96fbdec01",
      "resource": {
        "resourceType": "Observation",
        "id": "a01f55b7-a2c4-4d6b-8c2e-d0a96fbdec01",
        "meta": {
          "profile": [
            "http://hl7.eu/fhir/laboratory/StructureDefinition/Observation-resultslab-eu-lab"
          ]
        },
        "performer": [
          {
            "display": "The Central European Lab"
          }
        ],
        "category": [
          {
            "coding": [
              {
                "system": "http://terminology.hl7.org/CodeSystem/observation-category",
                "code": "laboratory"
              }
            ]
          }
        ],
        "code": {
          "coding": [
            {
              "code": "787-2",
              "system": "http://loinc.org",
              "display": "MCV [Entitic volume] by Automated count"
            }
          ],
          "text": "MCV [Entitic volume] by Automated count"
        },
        "valueQuantity": {
          "system": "http://unitsofmeasure.org",
          "value": 85.3,
          "unit": "fL",
          "code": "fL"
        },
        "referenceRange": [
          {
            "low": {
              "value": 82,
              "code": "fL",
              "system": "http://unitsofmeasure.org"
            }
          },
          {
            "high": {
              "value": 98,
              "code": "fL",
              "system": "http://unitsofmeasure.org"
            }
          }
        ],
        "text": {
          "status": "generated",
          "div": "<div xmlns=\"http://www.w3.org/1999/xhtml\"><table class=\"hl7__eu__lab__report\"><tr><th>Test</th><th>12-Mar-2019</th><th>Reference&#xA0;Range</th><th>Unit</th></tr><tr><td>MCV [Entitic volume] by Automated count</td><td>85.3</td><td>82 - 98</td><td></td><td>fL</td></tr></table></div>"
        },
        "status": "final",
        "subject": {
          "reference": "urn:uuid:f6a50004-7d19-48e4-beee-a5eb0fd0f5cb",
          "display": "Hortense Gallet"
        },
        "effectiveDateTime": "2019-03-12T20:16:45Z",
        "specimen": {
          "reference": "urn:uuid:6879855f-a809-42d5-8b03-b7d7017e705c"
        }
      }
    },
    {
      "fullUrl": "urn:uuid:24460e60-c677-4d5f-a8e0-5d57d9d5bc1a",
      "resource": {
        "resourceType": "Observation",
        "id": "24460e60-c677-4d5f-a8e0-5d57d9d5bc1a",
        "meta": {
          "profile": [
            "http://hl7.eu/fhir/laboratory/StructureDefinition/Observation-resultslab-eu-lab"
          ]
        },
        "performer": [
          {
            "display": "The Central European Lab"
          }
        ],
        "category": [
          {
            "coding": [
              {
                "system": "http://terminology.hl7.org/CodeSystem/observation-category",
                "code": "laboratory"
              }
            ]
          }
        ],
        "code": {
          "coding": [
            {
              "code": "785-6",
              "system": "http://loinc.org",
              "display": "MCH [Entitic mass] by Automated count"
            }
          ],
          "text": "MCH [Entitic mass] by Automated count"
        },
        "valueQuantity": {
          "system": "http://unitsofmeasure.org",
          "value": 28.4,
          "unit": "pg",
          "code": "pg"
        },
        "referenceRange": [
          {
            "low": {
              "value": 27,
              "code": "pg",
              "system": "http://unitsofmeasure.org"
            }
          },
          {
            "high": {
              "value": 34.5,
              "code": "pg",
              "system": "http://unitsofmeasure.org"
            }
          }
        ],
        "text": {
          "status": "generated",
          "div": "<div xmlns=\"http://www.w3.org/1999/xhtml\"><table class=\"hl7__eu__lab__report\"><tr><th>Test</th><th>12-Mar-2019</th><th>Reference&#xA0;Range</th><th>Unit</th></tr><tr><td>MCH [Entitic mass] by Automated count</td><td>28.4</td><td>27 - 34.5</td><td></td><td>pg</td></tr></table></div>"
        },
        "status": "final",
        "subject": {
          "reference": "urn:uuid:f6a50004-7d19-48e4-beee-a5eb0fd0f5cb",
          "display": "Hortense Gallet"
        },
        "effectiveDateTime": "2019-03-12T20:16:45Z",
        "specimen": {
          "reference": "urn:uuid:6879855f-a809-42d5-8b03-b7d7017e705c"
        }
      }
    },
    {
      "fullUrl": "urn:uuid:05a74f6a-cb6e-4818-a8fe-2db3e7fcbd96",
      "resource": {
        "resourceType": "Observation",
        "id": "05a74f6a-cb6e-4818-a8fe-2db3e7fcbd96",
        "meta": {
          "profile": [
            "http://hl7.eu/fhir/laboratory/StructureDefinition/Observation-resultslab-eu-lab"
          ]
        },
        "performer": [
          {
            "display": "The Central European Lab"
          }
        ],
        "category": [
          {
            "coding": [
              {
                "system": "http://terminology.hl7.org/CodeSystem/observation-category",
                "code": "laboratory"
              }
            ]
          }
        ],
        "code": {
          "coding": [
            {
              "code": "786-4",
              "system": "http://loinc.org",
              "display": "MCHC [Mass/volume] by Automated count"
            }
          ],
          "text": "MCHC [Mass/volume] by Automated count"
        },
        "valueQuantity": {
          "system": "http://unitsofmeasure.org",
          "value": 34.3,
          "unit": "g/dL",
          "code": "g/dL"
        },
        "referenceRange": [
          {
            "low": {
              "value": 32,
              "code": "g/dL",
              "system": "http://unitsofmeasure.org"
            }
          },
          {
            "high": {
              "value": 37,
              "code": "g/dL",
              "system": "http://unitsofmeasure.org"
            }
          }
        ],
        "text": {
          "status": "generated",
          "div": "<div xmlns=\"http://www.w3.org/1999/xhtml\"><table class=\"hl7__eu__lab__report\"><tr><th>Test</th><th>12-Mar-2019</th><th>Reference&#xA0;Range</th><th>Unit</th></tr><tr><td>MCHC [Mass/volume] by Automated count</td><td>34.3</td><td>32 - 37</td><td></td><td>g/dL</td></tr></table></div>"
        },
        "status": "final",
        "subject": {
          "reference": "urn:uuid:f6a50004-7d19-48e4-beee-a5eb0fd0f5cb",
          "display": "Hortense Gallet"
        },
        "effectiveDateTime": "2019-03-12T20:16:45Z",
        "specimen": {
          "reference": "urn:uuid:6879855f-a809-42d5-8b03-b7d7017e705c"
        }
      }
    },
    {
      "fullUrl": "urn:uuid:f5f49326-8e25-4f70-899d-ea227462630d",
      "resource": {
        "resourceType": "Observation",
        "id": "f5f49326-8e25-4f70-899d-ea227462630d",
        "meta": {
          "profile": [
            "http://hl7.eu/fhir/laboratory/StructureDefinition/Observation-resultslab-eu-lab"
          ]
        },
        "performer": [
          {
            "display": "The Central European Lab"
          }
        ],
        "category": [
          {
            "coding": [
              {
                "system": "http://terminology.hl7.org/CodeSystem/observation-category",
                "code": "laboratory"
              }
            ]
          }
        ],
        "code": {
          "coding": [
            {
              "code": "21000-5",
              "system": "http://loinc.org",
              "display": "Erythrocyte distribution width [Entitic volume] by Automated count"
            }
          ],
          "text": "Erythrocyte distribution width [Entitic volume] by Automated count"
        },
        "valueQuantity": {
          "system": "http://unitsofmeasure.org",
          "value": 45,
          "unit": "fL",
          "code": "fL"
        },
        "referenceRange": [
          {
            "low": {
              "value": 36,
              "code": "fL",
              "system": "http://unitsofmeasure.org"
            }
          },
          {
            "high": {
              "value": 55,
              "code": "fL",
              "system": "http://unitsofmeasure.org"
            }
          }
        ],
        "text": {
          "status": "generated",
          "div": "<div xmlns=\"http://www.w3.org/1999/xhtml\"><table class=\"hl7__eu__lab__report\"><tr><th>Test</th><th>12-Mar-2019</th><th>Reference&#xA0;Range</th><th>Unit</th></tr><tr><td>Erythrocyte distribution width [Entitic volume] by Automated count</td><td>45.0</td><td>36 - 55</td><td></td><td>fL</td></tr></table></div>"
        },
        "status": "final",
        "subject": {
          "reference": "urn:uuid:f6a50004-7d19-48e4-beee-a5eb0fd0f5cb",
          "display": "Hortense Gallet"
        },
        "effectiveDateTime": "2019-03-12T20:16:45Z",
        "specimen": {
          "reference": "urn:uuid:6879855f-a809-42d5-8b03-b7d7017e705c"
        }
      }
    },
    {
      "fullUrl": "urn:uuid:7035612a-f616-44b2-9527-9f4d9336f660",
      "resource": {
        "resourceType": "Observation",
        "id": "7035612a-f616-44b2-9527-9f4d9336f660",
        "meta": {
          "profile": [
            "http://hl7.eu/fhir/laboratory/StructureDefinition/Observation-resultslab-eu-lab"
          ]
        },
        "performer": [
          {
            "display": "The Central European Lab"
          }
        ],
        "category": [
          {
            "coding": [
              {
                "system": "http://terminology.hl7.org/CodeSystem/observation-category",
                "code": "laboratory"
              }
            ]
          }
        ],
        "code": {
          "coding": [
            {
              "code": "777-3",
              "system": "http://loinc.org",
              "display": "Platelets [#/volume] in Blood by Automated count"
            }
          ],
          "text": "Platelets [#/volume] in Blood by Automated count"
        },
        "valueQuantity": {
          "system": "http://unitsofmeasure.org",
          "value": 376.8,
          "unit": "10*3/uL",
          "code": "10*3/uL"
        },
        "referenceRange": [
          {
            "low": {
              "value": 150,
              "code": "10*3/uL",
              "system": "http://unitsofmeasure.org"
            }
          },
          {
            "high": {
              "value": 400,
              "code": "10*3/uL",
              "system": "http://unitsofmeasure.org"
            }
          }
        ],
        "text": {
          "status": "generated",
          "div": "<div xmlns=\"http://www.w3.org/1999/xhtml\"><table class=\"hl7__eu__lab__report\"><tr><th>Test</th><th>12-Mar-2019</th><th>Reference&#xA0;Range</th><th>Unit</th></tr><tr><td>Platelets [#/volume] in Blood by Automated count</td><td>376.8</td><td>150 - 400</td><td></td><td>10*3/uL</td></tr></table></div>"
        },
        "status": "final",
        "subject": {
          "reference": "urn:uuid:f6a50004-7d19-48e4-beee-a5eb0fd0f5cb",
          "display": "Hortense Gallet"
        },
        "effectiveDateTime": "2019-03-12T20:16:45Z",
        "specimen": {
          "reference": "urn:uuid:6879855f-a809-42d5-8b03-b7d7017e705c"
        }
      }
    },
    {
      "fullUrl": "urn:uuid:1741c3ce-376b-4831-b275-e17580d76b3b",
      "resource": {
        "resourceType": "Observation",
        "id": "1741c3ce-376b-4831-b275-e17580d76b3b",
        "meta": {
          "profile": [
            "http://hl7.eu/fhir/laboratory/StructureDefinition/Observation-resultslab-eu-lab"
          ]
        },
        "performer": [
          {
            "display": "The Central European Lab"
          }
        ],
        "category": [
          {
            "coding": [
              {
                "system": "http://terminology.hl7.org/CodeSystem/observation-category",
                "code": "laboratory"
              }
            ]
          }
        ],
        "code": {
          "coding": [
            {
              "code": "32207-3",
              "system": "http://loinc.org",
              "display": "Platelet distribution width [Entitic volume] in Blood by Automated count"
            }
          ],
          "text": "Platelet distribution width [Entitic volume] in Blood by Automated count"
        },
        "valueQuantity": {
          "system": "http://unitsofmeasure.org",
          "value": 438.3,
          "unit": "fL",
          "code": "fL"
        },
        "referenceRange": [
          {
            "low": {
              "value": 11.6,
              "code": "fL",
              "system": "http://unitsofmeasure.org"
            }
          },
          {
            "high": {
              "value": 17.4,
              "code": "fL",
              "system": "http://unitsofmeasure.org"
            }
          }
        ],
        "interpretation": [
          {
            "coding": [
              {
                "code": "H",
                "system": "http://terminology.hl7.org/CodeSystem/v3-ObservationInterpretation",
                "display": "High"
              }
            ]
          }
        ],
        "text": {
          "status": "generated",
          "div": "<div xmlns=\"http://www.w3.org/1999/xhtml\"><table class=\"hl7__eu__lab__report\"><tr><th>Test</th><th>12-Mar-2019</th><th>Reference&#xA0;Range</th><th>Unit</th></tr><tr><td>Platelet distribution width [Entitic volume] in Blood by Automated count</td><td>438.3</td><td>11.6 - 17.4</td><td>H</td><td>fL</td></tr></table></div>"
        },
        "status": "final",
        "subject": {
          "reference": "urn:uuid:f6a50004-7d19-48e4-beee-a5eb0fd0f5cb",
          "display": "Hortense Gallet"
        },
        "effectiveDateTime": "2019-03-12T20:16:45Z",
        "specimen": {
          "reference": "urn:uuid:6879855f-a809-42d5-8b03-b7d7017e705c"
        }
      }
    },
    {
      "fullUrl": "urn:uuid:17a963cc-ca34-4399-8fb9-2ee1c7c4f8a1",
      "resource": {
        "resourceType": "Observation",
        "id": "17a963cc-ca34-4399-8fb9-2ee1c7c4f8a1",
        "meta": {
          "profile": [
            "http://hl7.eu/fhir/laboratory/StructureDefinition/Observation-resultslab-eu-lab"
          ]
        },
        "performer": [
          {
            "display": "The Central European Lab"
          }
        ],
        "category": [
          {
            "coding": [
              {
                "system": "http://terminology.hl7.org/CodeSystem/observation-category",
                "code": "laboratory"
              }
            ]
          }
        ],
        "code": {
          "coding": [
            {
              "code": "32623-1",
              "system": "http://loinc.org",
              "display": "Platelet mean volume [Entitic volume] in Blood by Automated count"
            }
          ],
          "text": "Platelet mean volume [Entitic volume] in Blood by Automated count"
        },
        "valueQuantity": {
          "system": "http://unitsofmeasure.org",
          "value": 9.8,
          "unit": "fL",
          "code": "fL"
        },
        "referenceRange": [
          {
            "low": {
              "value": 7.2,
              "code": "fL",
              "system": "http://unitsofmeasure.org"
            }
          },
          {
            "high": {
              "value": 13.5,
              "code": "fL",
              "system": "http://unitsofmeasure.org"
            }
          }
        ],
        "text": {
          "status": "generated",
          "div": "<div xmlns=\"http://www.w3.org/1999/xhtml\"><table class=\"hl7__eu__lab__report\"><tr><th>Test</th><th>12-Mar-2019</th><th>Reference&#xA0;Range</th><th>Unit</th></tr><tr><td>Platelet mean volume [Entitic volume] in Blood by Automated count</td><td>9.8</td><td>7.2 - 13.5</td><td></td><td>fL</td></tr></table></div>"
        },
        "status": "final",
        "subject": {
          "reference": "urn:uuid:f6a50004-7d19-48e4-beee-a5eb0fd0f5cb",
          "display": "Hortense Gallet"
        },
        "effectiveDateTime": "2019-03-12T20:16:45Z",
        "specimen": {
          "reference": "urn:uuid:6879855f-a809-42d5-8b03-b7d7017e705c"
        }
      }
    },
    {
      "fullUrl": "urn:uuid:2c28501b-0766-419b-bd47-7462691b2f40",
      "resource": {
        "resourceType": "Device",
        "id": "2c28501b-0766-419b-bd47-7462691b2f40",
        "deviceName": [
          {
            "name": "SYNDERAI Synthetic Generator",
            "type": "manufacturer-name"
          }
        ],
        "version": [
          {
            "value": "5.0"
          }
        ],
        "text": {
          "status": "generated",
          "div": "<div xmlns=\"http://www.w3.org/1999/xhtml\">SYNDERAI Synthetic Generator v5.0</div>"
        },
        "status": "active\"",
        "distinctIdentifier": "synderai-generator-50",
        "manufacturer": "SYNDERAI Project"
      }
    },
    {
      "fullUrl": "urn:uuid:f56df84d-acdd-4884-939b-8e6015f101d5",
      "resource": {
        "resourceType": "Provenance",
        "id": "f56df84d-acdd-4884-939b-8e6015f101d5",
        "target": [
          {
            "reference": "Patient/f6a50004-7d19-48e4-beee-a5eb0fd0f5cb"
          },
          {
            "reference": "Bundle/97472b07-6074-44dd-8698-92212edac8f9"
          },
          {
            "reference": "Composition/f3ef5128-c440-4956-9bba-29c34c46894d"
          },
          {
            "reference": "PractitionerRole/fa235480-b66c-4b64-b984-52510223a4f2"
          },
          {
            "reference": "Practitioner/b47ea0b1-2706-4f71-9fce-9262d9d491b7"
          },
          {
            "reference": "PractitionerRole/16909977-959d-46a9-bf71-8506dd2b88ea"
          },
          {
            "reference": "Organization/411e7051-216a-44dc-a8ba-9a746da19c9e"
          }
        ],
        "activity": {
          "text": "Synthetic Example Data Generation"
        },
        "policy": [
          "https://synderai.net/synderai-synthetic-data-policy"
        ],
        "agent": [
          {
            "type": {
              "text": "author"
            },
            "who": {
              "reference": "Device/2c28501b-0766-419b-bd47-7462691b2f40"
            }
          }
        ],
        "reason": [
          {
            "text": "Interoperability Testing and Training (non-clinical use)"
          }
        ],
        "text": {
          "status": "generated",
          "div": "<div xmlns=\"http://www.w3.org/1999/xhtml\">Provenance for SYNDERAI Synthetic Example Data Resource</div>"
        },
        "recorded": "2019-03-12T21:16:45Z"
      }
    },
    {
      "fullUrl": "urn:uuid:fa235480-b66c-4b64-b984-52510223a4f2",
      "resource": {
        "resourceType": "PractitionerRole",
        "id": "fa235480-b66c-4b64-b984-52510223a4f2",
        "meta": {
          "profile": [
            "http://hl7.eu/fhir/base/StructureDefinition/practitionerRole-eu"
          ]
        },
        "text": {
          "status": "generated",
          "div": "<div xmlns=\"http://www.w3.org/1999/xhtml\">Laboratory Role Id: fa235480-b66c-4b64-b984-52510223a4f2</div>"
        },
        "practitioner": {
          "reference": "urn:uuid:b47ea0b1-2706-4f71-9fce-9262d9d491b7"
        }
      }
    },
    {
      "fullUrl": "urn:uuid:b47ea0b1-2706-4f71-9fce-9262d9d491b7",
      "resource": {
        "resourceType": "Practitioner",
        "id": "b47ea0b1-2706-4f71-9fce-9262d9d491b7",
        "meta": {
          "profile": [
            "http://hl7.eu/fhir/base/StructureDefinition/practitioner-eu"
          ]
        },
        "identifier": [
          {
            "assigner": {
              "display": "HL7 Europe"
            },
            "system": "urn:oid:2.16.840.1.113883.2.51.999",
            "value": "c866f049-a455-4071-b599-72799b9bec46"
          }
        ],
        "name": [
          {
            "prefix": [
              "dr"
            ],
            "given": [
              "Ex"
            ],
            "family": "Ample"
          }
        ],
        "address": [
          {
            "line": [
              "Laboratoire Central Européenne",
              "Boulevard du Jardin Botanique 32"
            ],
            "postalCode": "1000",
            "city": "Brussels",
            "country": "Belgium"
          }
        ],
        "text": {
          "status": "generated",
          "div": "<div xmlns=\"http://www.w3.org/1999/xhtml\">Laboratory: Laboratoire Central Européenne, 1000 Brussels, Belgium</div>"
        }
      }
    }
  ],
  "type": "document",
  "timestamp": "2019-03-12T21:16:45Z"
}
