{
  "resourceType": "Bundle",
  "id": "68ea6c59-6684-4d32-ad83-29c4431b54e7",
  "meta": {
    "profile": [
      "http://hl7.eu/fhir/laboratory/StructureDefinition/Bundle-eu-lab"
    ]
  },
  "identifier": {
    "assigner": {
      "display": "HL7 Europe"
    },
    "system": "urn:oid:2.16.840.1.113883.2.51.999",
    "value": "549b185c-fd9c-454f-a454-c0664e357ebd"
  },
  "entry": [
    {
      "fullUrl": "urn:uuid:444e5960-c9b3-4273-8269-5f20a5f852cb",
      "resource": {
        "resourceType": "Composition",
        "id": "444e5960-c9b3-4273-8269-5f20a5f852cb",
        "meta": {
          "profile": [
            "http://hl7.eu/fhir/laboratory/StructureDefinition/Composition-eu-lab"
          ]
        },
        "identifier": {
          "assigner": {
            "display": "HL7 Europe"
          },
          "system": "urn:oid:2.16.840.1.113883.2.51.999",
          "value": "ad0542f3-f027-4d16-8253-b15fbde57965"
        },
        "author": [
          {
            "reference": "urn:uuid:f526ecfc-0584-413e-9d89-3f038110b483"
          }
        ],
        "category": [
          {
            "coding": [
              {
                "code": "26436-6",
                "system": "http://loinc.org",
                "display": "Laboratory studies (set)"
              }
            ]
          }
        ],
        "type": {
          "coding": [
            {
              "code": "11502-2",
              "system": "http://loinc.org",
              "display": "Laboratory report"
            }
          ],
          "text": "Laboratory Report"
        },
        "section": [
          {
            "code": {
              "coding": [
                {
                  "code": "26436-6",
                  "system": "http://loinc.org",
                  "display": "Laboratory studies (set)"
                }
              ],
              "text": "Laboratory studies"
            },
            "section": [
              {
                "code": {
                  "coding": [
                    {
                      "code": "$18719-5",
                      "system": "http://loinc.org",
                      "display": "Chemistry studies (set)"
                    }
                  ],
                  "text": "Chemistry"
                },
                "entry": [
                  {
                    "reference": "urn:uuid:0973c52e-2d35-4c90-b00d-c9d168ff9f73"
                  },
                  {
                    "reference": "urn:uuid:1d2d2f0d-7688-46d4-832f-90f8d3dd91b4"
                  },
                  {
                    "reference": "urn:uuid:c1064b6c-810a-4b17-97b1-630397cea35f"
                  },
                  {
                    "reference": "urn:uuid:b2de4e3e-71c4-4506-a798-e35f240bc8ca"
                  },
                  {
                    "reference": "urn:uuid:39e84ab2-50f1-4f27-b273-6617405195f3"
                  },
                  {
                    "reference": "urn:uuid:09bf23cd-ffa2-406c-bfa3-5eb75b82884e"
                  },
                  {
                    "reference": "urn:uuid:405231aa-2cd3-4b58-b01e-dd43a914fe42"
                  },
                  {
                    "reference": "urn:uuid:8d9b574b-cc23-47ac-bf2d-f80eeb577480"
                  },
                  {
                    "reference": "urn:uuid:6f099190-b257-4c6b-a3c4-d77bf6f916ba"
                  },
                  {
                    "reference": "urn:uuid:dd952536-a633-4688-aa0a-37507d448b8f"
                  },
                  {
                    "reference": "urn:uuid:a0731301-e4dc-452d-9947-2af0a174173f"
                  },
                  {
                    "reference": "urn:uuid:db585833-7388-47ab-812f-96511ae0cb3a"
                  },
                  {
                    "reference": "urn:uuid:bf4b36c9-b255-4cde-ac72-d2c47260b35c"
                  },
                  {
                    "reference": "urn:uuid:f693aa81-a34e-42b0-87c9-bfb2ea841b1b"
                  },
                  {
                    "reference": "urn:uuid:add92480-a5db-4bda-b862-838f9f532b36"
                  },
                  {
                    "reference": "urn:uuid:46734320-3d60-4023-9a71-8486da486905"
                  },
                  {
                    "reference": "urn:uuid:7d8df9fa-fece-4fdd-bc8c-ca34f6440d43"
                  },
                  {
                    "reference": "urn:uuid:baa671a0-619e-4c0a-bb06-73a3d8adc93d"
                  }
                ],
                "text": {
                  "status": "generated",
                  "div": "<div xmlns=\"http://www.w3.org/1999/xhtml\"><h3>Chemistry</h3><table class=\"hl7__eu__lab__report\"><thead><tr><th>Test</th><th>06-JAN-2022</th><th>Reference&#xA0;Range</th><th>Unit</th></tr></thead><tbody><tr><td>Glucose [Mass/volume] in Serum or Plasma</td><td>84.2</td><td>70 - 140</td><td>mg/dL</td></tr><tr><td>Urea nitrogen [Mass/volume] in Serum or Plasma</td><td>14.1</td><td>7 - 25</td><td>mg/dL</td></tr><tr><td>Creatinine [Mass/volume] in Serum or Plasma</td><td><strong>2.0 H</strong></td><td>0.9 - 1.3</td><td>mg/dL</td></tr><tr><td>Calcium [Mass/volume] in Serum or Plasma</td><td>8.6</td><td>8.5 - 10.5</td><td>mg/dL</td></tr><tr><td>Sodium [Moles/volume] in Serum or Plasma</td><td>138.6</td><td>135 - 145</td><td>mmol/L</td></tr><tr><td>Potassium [Moles/volume] in Serum or Plasma</td><td>4.1</td><td>3.5 - 5.3</td><td>mmol/L</td></tr><tr><td>Chloride [Moles/volume] in Serum or Plasma</td><td>102.8</td><td>98 - 107</td><td>mmol/L</td></tr><tr><td>Carbon dioxide, total [Moles/volume] in Serum or Plasma</td><td>27.9</td><td>22 - 29</td><td>mmol/L</td></tr><tr><td>Ketones [Presence] in Urine by Test strip</td><td>Urine ketone test = +</td><td></td><td></td></tr><tr><td>Hemoglobin A1c/Hemoglobin.total in Blood</td><td><strong>3.1 L</strong></td><td>4.5 - 6.4</td><td>%</td></tr><tr><td>Glucose [Mass/volume] in Blood</td><td>84.2</td><td>70 - 140</td><td>mg/dL</td></tr><tr><td>Urea nitrogen [Mass/volume] in Blood</td><td>14.1</td><td>7 - 25</td><td>mg/dL</td></tr><tr><td>Creatinine [Mass/volume] in Blood</td><td><strong>1.5 H</strong></td><td>0.9 - 1.3</td><td>mg/dL</td></tr><tr><td>Calcium [Mass/volume] in Blood</td><td>8.6</td><td>8.6 - 10.2</td><td>mg/dL</td></tr><tr><td>Sodium [Moles/volume] in Blood</td><td>138.6</td><td>135 - 145</td><td>mmol/L</td></tr><tr><td>Potassium [Moles/volume] in Blood</td><td>4.1</td><td>3.5 - 5.1</td><td>mmol/L</td></tr><tr><td>Chloride [Moles/volume] in Blood</td><td>102.8</td><td>98 - 108</td><td>mmol/L</td></tr><tr><td>Carbon dioxide, total [Moles/volume] in Blood</td><td>27.9</td><td>22 - 32</td><td>mmol/L</td></tr></tbody></table></div>"
                },
                "title": "Chemistry"
              },
              {
                "code": {
                  "coding": [
                    {
                      "code": "$18729-4",
                      "system": "http://loinc.org",
                      "display": "Urinalysis studies (set)"
                    }
                  ],
                  "text": "Urinalysis"
                },
                "entry": [
                  {
                    "reference": "urn:uuid:3df49024-7ddc-4c9f-b87e-8b2669a921b2"
                  },
                  {
                    "reference": "urn:uuid:a02a25e8-0933-48e4-927f-a8b452d5f346"
                  },
                  {
                    "reference": "urn:uuid:bae7cd26-6499-4556-a9a3-8827707f1869"
                  },
                  {
                    "reference": "urn:uuid:264da503-931c-40e5-be0b-32a8489e038e"
                  },
                  {
                    "reference": "urn:uuid:48122375-5242-4e95-913a-168fd89c2bf1"
                  },
                  {
                    "reference": "urn:uuid:77ed7ec5-9404-4ae2-9001-22ca748831d5"
                  },
                  {
                    "reference": "urn:uuid:f721142e-ea1e-4b4f-a6a2-525011710997"
                  },
                  {
                    "reference": "urn:uuid:819ef536-83c5-430b-8f28-22ba56995f9a"
                  },
                  {
                    "reference": "urn:uuid:a9051c8c-91bc-4238-b363-98fe5b1d8734"
                  },
                  {
                    "reference": "urn:uuid:e7dd1137-2261-4014-8b45-cc386f76e0c5"
                  },
                  {
                    "reference": "urn:uuid:02aee24c-178d-4a42-8e38-4c21c9a8122e"
                  },
                  {
                    "reference": "urn:uuid:118a5a5a-9071-470a-8bcc-38ffce48f3a1"
                  }
                ],
                "text": {
                  "status": "generated",
                  "div": "<div xmlns=\"http://www.w3.org/1999/xhtml\"><h3>Urinalysis</h3><table class=\"hl7__eu__lab__report\"><thead><tr><th>Test</th><th>06-JAN-2022</th><th>Reference&#xA0;Range</th><th>Unit</th></tr></thead><tbody><tr><td>Glucose [Mass/volume] in Urine by Test strip</td><td><strong>1.9 H</strong></td><td>0.8 - 0</td><td>mg/dL</td></tr><tr><td>Glucose [Presence] in Urine by Test strip</td><td>++</td><td></td><td></td></tr><tr><td>Bilirubin.total [Mass/volume] in Urine by Test strip</td><td>0.5</td><td>0.2 - 1.5</td><td>mg/dL</td></tr><tr><td>Bilirubin.total [Presence] in Urine by Test strip</td><td>Finding of bilirubin in urine</td><td></td><td></td></tr><tr><td>Ketones [Mass/volume] in Urine by Test strip</td><td><strong>10.4 H</strong></td><td>0 - 4</td><td>mg/dL</td></tr><tr><td>Specific gravity of Urine by Test strip</td><td><strong>1.0 L</strong></td><td>1.01 - 1.03</td><td>{nominal}</td></tr><tr><td>pH of Urine by Test strip</td><td>5.5</td><td>4.5 - 7.5</td><td>pH</td></tr><tr><td>Protein [Mass/volume] in Urine by Test strip</td><td><strong>293.6 H</strong></td><td>0 - 150</td><td>mg/dL</td></tr><tr><td>Protein [Presence] in Urine by Test strip</td><td>Urine protein test = ++</td><td></td><td></td></tr><tr><td>Nitrite [Presence] in Urine by Test strip</td><td>Urine nitrite negative</td><td></td><td></td></tr><tr><td>Hemoglobin [Presence] in Urine by Test strip</td><td>Urine blood test = negative</td><td></td><td></td></tr><tr><td>Leukocyte esterase [Presence] in Urine by Test strip</td><td>Urine leukocyte test negative</td><td></td><td></td></tr></tbody></table></div>"
                },
                "title": "Urinalysis"
              },
              {
                "code": {
                  "coding": [
                    {
                      "code": "$LP7846-1",
                      "system": "http://loinc.org",
                      "display": "Specimen information"
                    }
                  ],
                  "text": "Specimen information"
                },
                "entry": [
                  {
                    "reference": "urn:uuid:2aaa6e88-287b-4a14-92f9-e2e38455eb0e"
                  },
                  {
                    "reference": "urn:uuid:a4af8f27-0a57-4b93-80bd-35c1b7f44fc7"
                  },
                  {
                    "reference": "urn:uuid:7a7c2867-b12f-4905-aefd-4ae7b75c5254"
                  },
                  {
                    "reference": "urn:uuid:8afde1d5-0624-4e25-ae76-3b97f0ff4ad6"
                  }
                ],
                "text": {
                  "status": "generated",
                  "div": "<div xmlns=\"http://www.w3.org/1999/xhtml\"><h3>Specimen information</h3><table class=\"hl7__eu__lab__report\"><thead><tr><th>Test</th><th>06-JAN-2022</th><th>Specimen</th><th></th></tr></thead><tbody><tr><td>Appearance of Urine</td><td>Cloudy urine</td><td>Urine</td><td></td></tr><tr><td>Odor of Urine</td><td>Urine smell ammoniacal</td><td>Urine</td><td></td></tr><tr><td>Clarity of Urine</td><td>Translucent</td><td>Urine</td><td></td></tr><tr><td>Color of Urine</td><td>Brown color</td><td>Urine</td><td></td></tr></tbody></table></div>"
                },
                "title": "Specimen information"
              }
            ],
            "title": "Laboratory Report"
          },
          {
            "text": {
              "status": "generated",
              "div": "<div xmlns=\"http://www.w3.org/1999/xhtml\"><h3>Annotation</h3><table class=\"hl7__eu__lab__report\"><tr><th>Conclusion and Recommendations based on this report and previous findings known to us</th></tr><tr><td>The patient shows elevated creatinine, proteinuria, and low urine specific gravity, suggesting impaired renal function. Urine findings (cloudy, brown, ammoniacal) may indicate urinary tract pathology, but no evidence of infection (negative nitrite/leukocytes). Glycosuria and ketonuria are present despite normal blood glucose and low HbA1c, possibly reflecting renal glycosuria or transient metabolic disturbance. Recommend further renal evaluation and clinical correlation for possible chronic kidney disease and to rule out other causes of abnormal urine findings.</td></tr></table></div>"
            },
            "code": {
              "coding": [
                {
                  "system": "http://loinc.org",
                  "code": "48767-8",
                  "display": "Annotation comment"
                }
              ]
            },
            "title": "Annotation comment"
          }
        ],
        "status": "final",
        "subject": {
          "reference": "urn:uuid:a72733ab-9a43-4cd7-ba52-938c0a158065",
          "display": "Pelayo Casal"
        },
        "date": "2022-01-06T06:38:59Z",
        "title": "Laboratory Report",
        "confidentiality": "N"
      }
    },
    {
      "fullUrl": "urn:uuid:6bc19ea9-b744-48a8-a58f-3c736c063965",
      "resource": {
        "resourceType": "DiagnosticReport",
        "id": "6bc19ea9-b744-48a8-a58f-3c736c063965",
        "meta": {
          "profile": [
            "http://hl7.eu/fhir/laboratory/StructureDefinition/DiagnosticReport-eu-lab"
          ]
        },
        "identifier": [
          {
            "assigner": {
              "display": "HL7 Europe"
            },
            "system": "urn:oid:2.16.840.1.113883.2.51.999",
            "value": "089fe4d7-f456-4e84-8a34-9ea538773405"
          }
        ],
        "extension": [
          {
            "url": "http://hl7.org/fhir/5.0/StructureDefinition/extension-DiagnosticReport.composition",
            "valueReference": {
              "reference": "urn:uuid:ad0542f3-f027-4d16-8253-b15fbde57965"
            }
          }
        ],
        "category": [
          {
            "coding": [
              {
                "code": "26436-6",
                "system": "http://loinc.org",
                "display": "Laboratory studies (set)"
              }
            ]
          }
        ],
        "specimen": [
          {
            "reference": "urn:uuid:50e68665-76be-4f75-916f-c5d10f3e56d2"
          },
          {
            "reference": "urn:uuid:7308b9f6-b59b-40d2-9504-dab89879569a"
          },
          {
            "reference": "urn:uuid:448c38ee-0eda-4d8f-a537-ca0c33e88f92"
          }
        ],
        "result": [
          {
            "reference": "urn:uuid:0973c52e-2d35-4c90-b00d-c9d168ff9f73"
          },
          {
            "reference": "urn:uuid:1d2d2f0d-7688-46d4-832f-90f8d3dd91b4"
          },
          {
            "reference": "urn:uuid:c1064b6c-810a-4b17-97b1-630397cea35f"
          },
          {
            "reference": "urn:uuid:b2de4e3e-71c4-4506-a798-e35f240bc8ca"
          },
          {
            "reference": "urn:uuid:39e84ab2-50f1-4f27-b273-6617405195f3"
          },
          {
            "reference": "urn:uuid:09bf23cd-ffa2-406c-bfa3-5eb75b82884e"
          },
          {
            "reference": "urn:uuid:405231aa-2cd3-4b58-b01e-dd43a914fe42"
          },
          {
            "reference": "urn:uuid:8d9b574b-cc23-47ac-bf2d-f80eeb577480"
          },
          {
            "reference": "urn:uuid:2aaa6e88-287b-4a14-92f9-e2e38455eb0e"
          },
          {
            "reference": "urn:uuid:a4af8f27-0a57-4b93-80bd-35c1b7f44fc7"
          },
          {
            "reference": "urn:uuid:7a7c2867-b12f-4905-aefd-4ae7b75c5254"
          },
          {
            "reference": "urn:uuid:8afde1d5-0624-4e25-ae76-3b97f0ff4ad6"
          },
          {
            "reference": "urn:uuid:3df49024-7ddc-4c9f-b87e-8b2669a921b2"
          },
          {
            "reference": "urn:uuid:a02a25e8-0933-48e4-927f-a8b452d5f346"
          },
          {
            "reference": "urn:uuid:bae7cd26-6499-4556-a9a3-8827707f1869"
          },
          {
            "reference": "urn:uuid:264da503-931c-40e5-be0b-32a8489e038e"
          },
          {
            "reference": "urn:uuid:48122375-5242-4e95-913a-168fd89c2bf1"
          },
          {
            "reference": "urn:uuid:6f099190-b257-4c6b-a3c4-d77bf6f916ba"
          },
          {
            "reference": "urn:uuid:77ed7ec5-9404-4ae2-9001-22ca748831d5"
          },
          {
            "reference": "urn:uuid:f721142e-ea1e-4b4f-a6a2-525011710997"
          },
          {
            "reference": "urn:uuid:819ef536-83c5-430b-8f28-22ba56995f9a"
          },
          {
            "reference": "urn:uuid:a9051c8c-91bc-4238-b363-98fe5b1d8734"
          },
          {
            "reference": "urn:uuid:e7dd1137-2261-4014-8b45-cc386f76e0c5"
          },
          {
            "reference": "urn:uuid:02aee24c-178d-4a42-8e38-4c21c9a8122e"
          },
          {
            "reference": "urn:uuid:118a5a5a-9071-470a-8bcc-38ffce48f3a1"
          },
          {
            "reference": "urn:uuid:dd952536-a633-4688-aa0a-37507d448b8f"
          },
          {
            "reference": "urn:uuid:a0731301-e4dc-452d-9947-2af0a174173f"
          },
          {
            "reference": "urn:uuid:db585833-7388-47ab-812f-96511ae0cb3a"
          },
          {
            "reference": "urn:uuid:bf4b36c9-b255-4cde-ac72-d2c47260b35c"
          },
          {
            "reference": "urn:uuid:f693aa81-a34e-42b0-87c9-bfb2ea841b1b"
          },
          {
            "reference": "urn:uuid:add92480-a5db-4bda-b862-838f9f532b36"
          },
          {
            "reference": "urn:uuid:46734320-3d60-4023-9a71-8486da486905"
          },
          {
            "reference": "urn:uuid:7d8df9fa-fece-4fdd-bc8c-ca34f6440d43"
          },
          {
            "reference": "urn:uuid:baa671a0-619e-4c0a-bb06-73a3d8adc93d"
          }
        ],
        "status": "registered",
        "code": {
          "coding": [
            {
              "code": "11502-2",
              "system": "http://loinc.org",
              "display": "Laboratory report"
            }
          ]
        },
        "subject": {
          "reference": "urn:uuid:a72733ab-9a43-4cd7-ba52-938c0a158065",
          "display": "Pelayo Casal"
        }
      }
    },
    {
      "fullUrl": "urn:uuid:a72733ab-9a43-4cd7-ba52-938c0a158065",
      "resource": {
        "resourceType": "Patient",
        "id": "a72733ab-9a43-4cd7-ba52-938c0a158065",
        "meta": {
          "security": [
            {
              "system": "http://terminology.hl7.org/CodeSystem/v3-ActReason",
              "code": "HTEST"
            },
            {
              "system": "http://terminology.hl7.org/CodeSystem/v3-ActReason",
              "code": "TRAIN"
            }
          ],
          "tag": [
            {
              "system": "https://synderai.net/fhir/CodeSystem/tags",
              "code": "synthetic",
              "display": "SYNDERAI Synthetic data"
            }
          ],
          "profile": [
            "http://hl7.eu/fhir/base/StructureDefinition/patient-eu-core"
          ]
        },
        "identifier": [
          {
            "type": {
              "coding": [
                {
                  "code": "PT",
                  "system": "http://terminology.hl7.org/CodeSystem/v2-0203"
                }
              ]
            },
            "system": "http://ec.europa.eu/identifier/eci",
            "value": "7707-510028-7"
          },
          {
            "type": {
              "coding": [
                {
                  "code": "MR",
                  "system": "http://terminology.hl7.org/CodeSystem/v2-0203"
                }
              ]
            },
            "system": "http://local.setting.eu/identifier",
            "value": "d88e82c6-df33-82d2-8538-f8b57da06491"
          }
        ],
        "name": [
          {
            "family": "Casal"
          },
          {
            "given": [
              "Pelayo"
            ]
          },
          {
            "text": "Pelayo Casal"
          }
        ],
        "address": [
          {
            "line": [
              "Callejón de Ignacio Pedrosa 67 Apt. 68 "
            ],
            "use": "home",
            "type": "physical",
            "postalCode": "35001",
            "city": "Las Palmas",
            "country": "Spain"
          }
        ],
        "telecom": [
          {
            "system": "phone",
            "value": "+34 875724898"
          }
        ],
        "extension": [
          {
            "url": "http://hl7.org/fhir/StructureDefinition/patient-nationality",
            "valueCodeableConcept": {
              "coding": [
                {
                  "code": "ES",
                  "system": "http://hl7.org/fhir/ValueSet/country"
                }
              ]
            }
          }
        ],
        "text": {
          "status": "generated",
          "div": "<div xmlns=\"http://www.w3.org/1999/xhtml\"><table class=\"hl7__ips\"><tr><td>Pelayo Casal</td><td>male</td><td>19-Apr-1940</td></tr></table></div>"
        },
        "gender": "male",
        "birthDate": "1940-04-19"
      }
    },
    {
      "fullUrl": "urn:uuid:91973d02-f9e0-4ea2-9737-ee3090e58813",
      "resource": {
        "resourceType": "ServiceRequest",
        "id": "91973d02-f9e0-4ea2-9737-ee3090e58813",
        "meta": {
          "profile": [
            "http://hl7.eu/fhir/laboratory/StructureDefinition/ServiceRequest-eu-lab"
          ]
        },
        "identifier": [
          {
            "system": "http://example.org",
            "value": "227b9d9d-8f92-4f6b-9edc-c3c367befa80"
          }
        ],
        "specimen": [
          {
            "reference": "urn:uuid:50e68665-76be-4f75-916f-c5d10f3e56d2"
          },
          {
            "reference": "urn:uuid:7308b9f6-b59b-40d2-9504-dab89879569a"
          },
          {
            "reference": "urn:uuid:448c38ee-0eda-4d8f-a537-ca0c33e88f92"
          }
        ],
        "reasonCode": [
          {
            "coding": [
              {
                "code": "431856006",
                "system": "http://snomed.info/sct",
                "display": "Chronic kidney disease stage 2"
              }
            ]
          },
          {
            "coding": [
              {
                "code": "90781000119102",
                "system": "http://snomed.info/sct",
                "display": "Microalbuminuria due to type 2 diabetes mellitus"
              }
            ]
          },
          {
            "coding": [
              {
                "code": "127013003",
                "system": "http://snomed.info/sct",
                "display": "Disorder of kidney due to diabetes mellitus"
              }
            ]
          },
          {
            "coding": [
              {
                "code": "431855005",
                "system": "http://snomed.info/sct",
                "display": "Chronic kidney disease stage 1"
              }
            ]
          },
          {
            "coding": [
              {
                "code": "64859006",
                "system": "http://snomed.info/sct",
                "display": "Osteoporosis"
              }
            ]
          },
          {
            "coding": [
              {
                "code": "414545008",
                "system": "http://snomed.info/sct",
                "display": "Ischemic heart disease"
              }
            ]
          },
          {
            "coding": [
              {
                "code": "237602007",
                "system": "http://snomed.info/sct",
                "display": "Metabolic syndrome X"
              }
            ]
          },
          {
            "coding": [
              {
                "code": "59621000",
                "system": "http://snomed.info/sct",
                "display": "Essential hypertension"
              }
            ]
          },
          {
            "coding": [
              {
                "code": "271737000",
                "system": "http://snomed.info/sct",
                "display": "Anemia"
              }
            ]
          },
          {
            "coding": [
              {
                "code": "15777000",
                "system": "http://snomed.info/sct",
                "display": "Prediabetes"
              }
            ]
          }
        ],
        "status": "active",
        "intent": "order",
        "code": {
          "coding": [
            {
              "code": "108252007",
              "system": "http://snomed.info/sct",
              "display": "Laboratory procedure"
            }
          ]
        },
        "subject": {
          "reference": "urn:uuid:a72733ab-9a43-4cd7-ba52-938c0a158065",
          "display": "Pelayo Casal"
        },
        "requester": {
          "reference": "urn:uuid:892c52b8-4ade-47bb-aa82-fb84f10aafac"
        }
      }
    },
    {
      "fullUrl": "urn:uuid:892c52b8-4ade-47bb-aa82-fb84f10aafac",
      "resource": {
        "resourceType": "PractitionerRole",
        "id": "892c52b8-4ade-47bb-aa82-fb84f10aafac",
        "meta": {
          "profile": [
            "http://hl7.eu/fhir/base/StructureDefinition/practitionerRole-eu"
          ]
        },
        "text": {
          "status": "generated",
          "div": "<div xmlns=\"http://www.w3.org/1999/xhtml\">Provider Role Id: 892c52b8-4ade-47bb-aa82-fb84f10aafac</div>"
        },
        "organization": {
          "reference": "urn:uuid:36da19bc-8c45-4ed1-b6b9-309160ff0bab"
        }
      }
    },
    {
      "fullUrl": "urn:uuid:36da19bc-8c45-4ed1-b6b9-309160ff0bab",
      "resource": {
        "resourceType": "Organization",
        "id": "36da19bc-8c45-4ed1-b6b9-309160ff0bab",
        "meta": {
          "profile": [
            "http://hl7.eu/fhir/base/StructureDefinition/organization-eu"
          ]
        },
        "identifier": [
          {
            "assigner": {
              "display": "HL7 Europe"
            },
            "system": "urn:oid:2.16.840.1.113883.2.51.999",
            "value": "8066f48a-cdb2-491c-aa86-0b3aa9a79774"
          }
        ],
        "address": [
          {
            "country": "Spain"
          }
        ],
        "text": {
          "status": "generated",
          "div": "<div xmlns=\"http://www.w3.org/1999/xhtml\">Provider Organization: Centro de Salud de Guanarteme</div>"
        },
        "name": "Centro de Salud de Guanarteme"
      }
    },
    {
      "fullUrl": "urn:uuid:50e68665-76be-4f75-916f-c5d10f3e56d2",
      "resource": {
        "resourceType": "Specimen",
        "id": "50e68665-76be-4f75-916f-c5d10f3e56d2",
        "meta": {
          "profile": [
            "http://hl7.eu/fhir/laboratory/StructureDefinition/Specimen-eu-lab"
          ]
        },
        "collection": {
          "collectedDateTime": "2022-01-06"
        },
        "text": {
          "status": "generated",
          "div": "<div xmlns=\"http://www.w3.org/1999/xhtml\"><table class=\"hl7__eu__lab__report\"><tr><th>Specimen</th><th>Collection Date</th></tr><tr><td>Acellular blood (serum or plasma) specimen</td><td><span class=\"nb\">06-Jan-2022</span></td></tr></table></div>"
        },
        "type": {
          "coding": [
            {
              "code": "122592007",
              "system": "http://snomed.info/sct",
              "display": "Acellular blood (serum or plasma) specimen"
            }
          ]
        }
      }
    },
    {
      "fullUrl": "urn:uuid:7308b9f6-b59b-40d2-9504-dab89879569a",
      "resource": {
        "resourceType": "Specimen",
        "id": "7308b9f6-b59b-40d2-9504-dab89879569a",
        "meta": {
          "profile": [
            "http://hl7.eu/fhir/laboratory/StructureDefinition/Specimen-eu-lab"
          ]
        },
        "collection": {
          "collectedDateTime": "2022-01-06"
        },
        "text": {
          "status": "generated",
          "div": "<div xmlns=\"http://www.w3.org/1999/xhtml\"><table class=\"hl7__eu__lab__report\"><tr><th>Specimen</th><th>Collection Date</th></tr><tr><td>Urine specimen</td><td><span class=\"nb\">06-Jan-2022</span></td></tr></table></div>"
        },
        "type": {
          "coding": [
            {
              "code": "122575003",
              "system": "http://snomed.info/sct",
              "display": "Urine specimen"
            }
          ]
        }
      }
    },
    {
      "fullUrl": "urn:uuid:448c38ee-0eda-4d8f-a537-ca0c33e88f92",
      "resource": {
        "resourceType": "Specimen",
        "id": "448c38ee-0eda-4d8f-a537-ca0c33e88f92",
        "meta": {
          "profile": [
            "http://hl7.eu/fhir/laboratory/StructureDefinition/Specimen-eu-lab"
          ]
        },
        "collection": {
          "collectedDateTime": "2022-01-06"
        },
        "text": {
          "status": "generated",
          "div": "<div xmlns=\"http://www.w3.org/1999/xhtml\"><table class=\"hl7__eu__lab__report\"><tr><th>Specimen</th><th>Collection Date</th></tr><tr><td>Whole blood specimen (specimen)</td><td><span class=\"nb\">06-Jan-2022</span></td></tr></table></div>"
        },
        "type": {
          "coding": [
            {
              "code": "258580003",
              "system": "http://snomed.info/sct",
              "display": "Whole blood specimen (specimen)"
            }
          ]
        }
      }
    },
    {
      "fullUrl": "urn:uuid:0973c52e-2d35-4c90-b00d-c9d168ff9f73",
      "resource": {
        "resourceType": "Observation",
        "id": "0973c52e-2d35-4c90-b00d-c9d168ff9f73",
        "meta": {
          "profile": [
            "http://hl7.eu/fhir/laboratory/StructureDefinition/Observation-resultslab-eu-lab"
          ]
        },
        "performer": [
          {
            "display": "The Central European Lab"
          }
        ],
        "category": [
          {
            "coding": [
              {
                "system": "http://terminology.hl7.org/CodeSystem/observation-category",
                "code": "laboratory"
              }
            ]
          }
        ],
        "code": {
          "coding": [
            {
              "code": "2345-7",
              "system": "http://loinc.org",
              "display": "Glucose [Mass/volume] in Serum or Plasma"
            }
          ],
          "text": "Glucose [Mass/volume] in Serum or Plasma"
        },
        "valueQuantity": {
          "system": "http://unitsofmeasure.org",
          "value": 84.2,
          "unit": "mg/dL",
          "code": "mg/dL"
        },
        "referenceRange": [
          {
            "low": {
              "value": 70,
              "code": "mg/dL",
              "system": "http://unitsofmeasure.org"
            }
          },
          {
            "high": {
              "value": 140,
              "code": "mg/dL",
              "system": "http://unitsofmeasure.org"
            }
          }
        ],
        "text": {
          "status": "generated",
          "div": "<div xmlns=\"http://www.w3.org/1999/xhtml\"><table class=\"hl7__eu__lab__report\"><tr><th>Test</th><th>06-Jan-2022</th><th>Reference&#xA0;Range</th><th>Unit</th></tr><tr><td>Glucose [Mass/volume] in Serum or Plasma</td><td>84.2</td><td>70 - 140</td><td></td><td>mg/dL</td></tr></table></div>"
        },
        "status": "final",
        "subject": {
          "reference": "urn:uuid:a72733ab-9a43-4cd7-ba52-938c0a158065",
          "display": "Pelayo Casal"
        },
        "effectiveDateTime": "2022-01-06T05:38:59Z",
        "specimen": {
          "reference": "urn:uuid:50e68665-76be-4f75-916f-c5d10f3e56d2"
        }
      }
    },
    {
      "fullUrl": "urn:uuid:1d2d2f0d-7688-46d4-832f-90f8d3dd91b4",
      "resource": {
        "resourceType": "Observation",
        "id": "1d2d2f0d-7688-46d4-832f-90f8d3dd91b4",
        "meta": {
          "profile": [
            "http://hl7.eu/fhir/laboratory/StructureDefinition/Observation-resultslab-eu-lab"
          ]
        },
        "performer": [
          {
            "display": "The Central European Lab"
          }
        ],
        "category": [
          {
            "coding": [
              {
                "system": "http://terminology.hl7.org/CodeSystem/observation-category",
                "code": "laboratory"
              }
            ]
          }
        ],
        "code": {
          "coding": [
            {
              "code": "3094-0",
              "system": "http://loinc.org",
              "display": "Urea nitrogen [Mass/volume] in Serum or Plasma"
            }
          ],
          "text": "Urea nitrogen [Mass/volume] in Serum or Plasma"
        },
        "valueQuantity": {
          "system": "http://unitsofmeasure.org",
          "value": 14.1,
          "unit": "mg/dL",
          "code": "mg/dL"
        },
        "referenceRange": [
          {
            "low": {
              "value": 7,
              "code": "mg/dL",
              "system": "http://unitsofmeasure.org"
            }
          },
          {
            "high": {
              "value": 25,
              "code": "mg/dL",
              "system": "http://unitsofmeasure.org"
            }
          }
        ],
        "text": {
          "status": "generated",
          "div": "<div xmlns=\"http://www.w3.org/1999/xhtml\"><table class=\"hl7__eu__lab__report\"><tr><th>Test</th><th>06-Jan-2022</th><th>Reference&#xA0;Range</th><th>Unit</th></tr><tr><td>Urea nitrogen [Mass/volume] in Serum or Plasma</td><td>14.1</td><td>7 - 25</td><td></td><td>mg/dL</td></tr></table></div>"
        },
        "status": "final",
        "subject": {
          "reference": "urn:uuid:a72733ab-9a43-4cd7-ba52-938c0a158065",
          "display": "Pelayo Casal"
        },
        "effectiveDateTime": "2022-01-06T05:38:59Z",
        "specimen": {
          "reference": "urn:uuid:50e68665-76be-4f75-916f-c5d10f3e56d2"
        }
      }
    },
    {
      "fullUrl": "urn:uuid:c1064b6c-810a-4b17-97b1-630397cea35f",
      "resource": {
        "resourceType": "Observation",
        "id": "c1064b6c-810a-4b17-97b1-630397cea35f",
        "meta": {
          "profile": [
            "http://hl7.eu/fhir/laboratory/StructureDefinition/Observation-resultslab-eu-lab"
          ]
        },
        "performer": [
          {
            "display": "The Central European Lab"
          }
        ],
        "category": [
          {
            "coding": [
              {
                "system": "http://terminology.hl7.org/CodeSystem/observation-category",
                "code": "laboratory"
              }
            ]
          }
        ],
        "code": {
          "coding": [
            {
              "code": "2160-0",
              "system": "http://loinc.org",
              "display": "Creatinine [Mass/volume] in Serum or Plasma"
            }
          ],
          "text": "Creatinine [Mass/volume] in Serum or Plasma"
        },
        "valueQuantity": {
          "system": "http://unitsofmeasure.org",
          "value": 2,
          "unit": "mg/dL",
          "code": "mg/dL"
        },
        "referenceRange": [
          {
            "low": {
              "value": 0.9,
              "code": "mg/dL",
              "system": "http://unitsofmeasure.org"
            }
          },
          {
            "high": {
              "value": 1.3,
              "code": "mg/dL",
              "system": "http://unitsofmeasure.org"
            }
          }
        ],
        "interpretation": [
          {
            "coding": [
              {
                "code": "H",
                "system": "http://terminology.hl7.org/CodeSystem/v3-ObservationInterpretation",
                "display": "High"
              }
            ]
          }
        ],
        "text": {
          "status": "generated",
          "div": "<div xmlns=\"http://www.w3.org/1999/xhtml\"><table class=\"hl7__eu__lab__report\"><tr><th>Test</th><th>06-Jan-2022</th><th>Reference&#xA0;Range</th><th>Unit</th></tr><tr><td>Creatinine [Mass/volume] in Serum or Plasma</td><td>2.0</td><td>0.9 - 1.3</td><td>H</td><td>mg/dL</td></tr></table></div>"
        },
        "status": "final",
        "subject": {
          "reference": "urn:uuid:a72733ab-9a43-4cd7-ba52-938c0a158065",
          "display": "Pelayo Casal"
        },
        "effectiveDateTime": "2022-01-06T05:38:59Z",
        "specimen": {
          "reference": "urn:uuid:50e68665-76be-4f75-916f-c5d10f3e56d2"
        }
      }
    },
    {
      "fullUrl": "urn:uuid:b2de4e3e-71c4-4506-a798-e35f240bc8ca",
      "resource": {
        "resourceType": "Observation",
        "id": "b2de4e3e-71c4-4506-a798-e35f240bc8ca",
        "meta": {
          "profile": [
            "http://hl7.eu/fhir/laboratory/StructureDefinition/Observation-resultslab-eu-lab"
          ]
        },
        "performer": [
          {
            "display": "The Central European Lab"
          }
        ],
        "category": [
          {
            "coding": [
              {
                "system": "http://terminology.hl7.org/CodeSystem/observation-category",
                "code": "laboratory"
              }
            ]
          }
        ],
        "code": {
          "coding": [
            {
              "code": "17861-6",
              "system": "http://loinc.org",
              "display": "Calcium [Mass/volume] in Serum or Plasma"
            }
          ],
          "text": "Calcium [Mass/volume] in Serum or Plasma"
        },
        "valueQuantity": {
          "system": "http://unitsofmeasure.org",
          "value": 8.6,
          "unit": "mg/dL",
          "code": "mg/dL"
        },
        "referenceRange": [
          {
            "low": {
              "value": 8.5,
              "code": "mg/dL",
              "system": "http://unitsofmeasure.org"
            }
          },
          {
            "high": {
              "value": 10.5,
              "code": "mg/dL",
              "system": "http://unitsofmeasure.org"
            }
          }
        ],
        "text": {
          "status": "generated",
          "div": "<div xmlns=\"http://www.w3.org/1999/xhtml\"><table class=\"hl7__eu__lab__report\"><tr><th>Test</th><th>06-Jan-2022</th><th>Reference&#xA0;Range</th><th>Unit</th></tr><tr><td>Calcium [Mass/volume] in Serum or Plasma</td><td>8.6</td><td>8.5 - 10.5</td><td></td><td>mg/dL</td></tr></table></div>"
        },
        "status": "final",
        "subject": {
          "reference": "urn:uuid:a72733ab-9a43-4cd7-ba52-938c0a158065",
          "display": "Pelayo Casal"
        },
        "effectiveDateTime": "2022-01-06T05:38:59Z",
        "specimen": {
          "reference": "urn:uuid:50e68665-76be-4f75-916f-c5d10f3e56d2"
        }
      }
    },
    {
      "fullUrl": "urn:uuid:39e84ab2-50f1-4f27-b273-6617405195f3",
      "resource": {
        "resourceType": "Observation",
        "id": "39e84ab2-50f1-4f27-b273-6617405195f3",
        "meta": {
          "profile": [
            "http://hl7.eu/fhir/laboratory/StructureDefinition/Observation-resultslab-eu-lab"
          ]
        },
        "performer": [
          {
            "display": "The Central European Lab"
          }
        ],
        "category": [
          {
            "coding": [
              {
                "system": "http://terminology.hl7.org/CodeSystem/observation-category",
                "code": "laboratory"
              }
            ]
          }
        ],
        "code": {
          "coding": [
            {
              "code": "2951-2",
              "system": "http://loinc.org",
              "display": "Sodium [Moles/volume] in Serum or Plasma"
            }
          ],
          "text": "Sodium [Moles/volume] in Serum or Plasma"
        },
        "valueQuantity": {
          "system": "http://unitsofmeasure.org",
          "value": 138.6,
          "unit": "mmol/L",
          "code": "mmol/L"
        },
        "referenceRange": [
          {
            "low": {
              "value": 135,
              "code": "mmol/L",
              "system": "http://unitsofmeasure.org"
            }
          },
          {
            "high": {
              "value": 145,
              "code": "mmol/L",
              "system": "http://unitsofmeasure.org"
            }
          }
        ],
        "text": {
          "status": "generated",
          "div": "<div xmlns=\"http://www.w3.org/1999/xhtml\"><table class=\"hl7__eu__lab__report\"><tr><th>Test</th><th>06-Jan-2022</th><th>Reference&#xA0;Range</th><th>Unit</th></tr><tr><td>Sodium [Moles/volume] in Serum or Plasma</td><td>138.6</td><td>135 - 145</td><td></td><td>mmol/L</td></tr></table></div>"
        },
        "status": "final",
        "subject": {
          "reference": "urn:uuid:a72733ab-9a43-4cd7-ba52-938c0a158065",
          "display": "Pelayo Casal"
        },
        "effectiveDateTime": "2022-01-06T05:38:59Z",
        "specimen": {
          "reference": "urn:uuid:50e68665-76be-4f75-916f-c5d10f3e56d2"
        }
      }
    },
    {
      "fullUrl": "urn:uuid:09bf23cd-ffa2-406c-bfa3-5eb75b82884e",
      "resource": {
        "resourceType": "Observation",
        "id": "09bf23cd-ffa2-406c-bfa3-5eb75b82884e",
        "meta": {
          "profile": [
            "http://hl7.eu/fhir/laboratory/StructureDefinition/Observation-resultslab-eu-lab"
          ]
        },
        "performer": [
          {
            "display": "The Central European Lab"
          }
        ],
        "category": [
          {
            "coding": [
              {
                "system": "http://terminology.hl7.org/CodeSystem/observation-category",
                "code": "laboratory"
              }
            ]
          }
        ],
        "code": {
          "coding": [
            {
              "code": "2823-3",
              "system": "http://loinc.org",
              "display": "Potassium [Moles/volume] in Serum or Plasma"
            }
          ],
          "text": "Potassium [Moles/volume] in Serum or Plasma"
        },
        "valueQuantity": {
          "system": "http://unitsofmeasure.org",
          "value": 4.1,
          "unit": "mmol/L",
          "code": "mmol/L"
        },
        "referenceRange": [
          {
            "low": {
              "value": 3.5,
              "code": "mmol/L",
              "system": "http://unitsofmeasure.org"
            }
          },
          {
            "high": {
              "value": 5.3,
              "code": "mmol/L",
              "system": "http://unitsofmeasure.org"
            }
          }
        ],
        "text": {
          "status": "generated",
          "div": "<div xmlns=\"http://www.w3.org/1999/xhtml\"><table class=\"hl7__eu__lab__report\"><tr><th>Test</th><th>06-Jan-2022</th><th>Reference&#xA0;Range</th><th>Unit</th></tr><tr><td>Potassium [Moles/volume] in Serum or Plasma</td><td>4.1</td><td>3.5 - 5.3</td><td></td><td>mmol/L</td></tr></table></div>"
        },
        "status": "final",
        "subject": {
          "reference": "urn:uuid:a72733ab-9a43-4cd7-ba52-938c0a158065",
          "display": "Pelayo Casal"
        },
        "effectiveDateTime": "2022-01-06T05:38:59Z",
        "specimen": {
          "reference": "urn:uuid:50e68665-76be-4f75-916f-c5d10f3e56d2"
        }
      }
    },
    {
      "fullUrl": "urn:uuid:405231aa-2cd3-4b58-b01e-dd43a914fe42",
      "resource": {
        "resourceType": "Observation",
        "id": "405231aa-2cd3-4b58-b01e-dd43a914fe42",
        "meta": {
          "profile": [
            "http://hl7.eu/fhir/laboratory/StructureDefinition/Observation-resultslab-eu-lab"
          ]
        },
        "performer": [
          {
            "display": "The Central European Lab"
          }
        ],
        "category": [
          {
            "coding": [
              {
                "system": "http://terminology.hl7.org/CodeSystem/observation-category",
                "code": "laboratory"
              }
            ]
          }
        ],
        "code": {
          "coding": [
            {
              "code": "2075-0",
              "system": "http://loinc.org",
              "display": "Chloride [Moles/volume] in Serum or Plasma"
            }
          ],
          "text": "Chloride [Moles/volume] in Serum or Plasma"
        },
        "valueQuantity": {
          "system": "http://unitsofmeasure.org",
          "value": 102.8,
          "unit": "mmol/L",
          "code": "mmol/L"
        },
        "referenceRange": [
          {
            "low": {
              "value": 98,
              "code": "mmol/L",
              "system": "http://unitsofmeasure.org"
            }
          },
          {
            "high": {
              "value": 107,
              "code": "mmol/L",
              "system": "http://unitsofmeasure.org"
            }
          }
        ],
        "text": {
          "status": "generated",
          "div": "<div xmlns=\"http://www.w3.org/1999/xhtml\"><table class=\"hl7__eu__lab__report\"><tr><th>Test</th><th>06-Jan-2022</th><th>Reference&#xA0;Range</th><th>Unit</th></tr><tr><td>Chloride [Moles/volume] in Serum or Plasma</td><td>102.8</td><td>98 - 107</td><td></td><td>mmol/L</td></tr></table></div>"
        },
        "status": "final",
        "subject": {
          "reference": "urn:uuid:a72733ab-9a43-4cd7-ba52-938c0a158065",
          "display": "Pelayo Casal"
        },
        "effectiveDateTime": "2022-01-06T05:38:59Z",
        "specimen": {
          "reference": "urn:uuid:50e68665-76be-4f75-916f-c5d10f3e56d2"
        }
      }
    },
    {
      "fullUrl": "urn:uuid:8d9b574b-cc23-47ac-bf2d-f80eeb577480",
      "resource": {
        "resourceType": "Observation",
        "id": "8d9b574b-cc23-47ac-bf2d-f80eeb577480",
        "meta": {
          "profile": [
            "http://hl7.eu/fhir/laboratory/StructureDefinition/Observation-resultslab-eu-lab"
          ]
        },
        "performer": [
          {
            "display": "The Central European Lab"
          }
        ],
        "category": [
          {
            "coding": [
              {
                "system": "http://terminology.hl7.org/CodeSystem/observation-category",
                "code": "laboratory"
              }
            ]
          }
        ],
        "code": {
          "coding": [
            {
              "code": "2028-9",
              "system": "http://loinc.org",
              "display": "Carbon dioxide, total [Moles/volume] in Serum or Plasma"
            }
          ],
          "text": "Carbon dioxide, total [Moles/volume] in Serum or Plasma"
        },
        "valueQuantity": {
          "system": "http://unitsofmeasure.org",
          "value": 27.9,
          "unit": "mmol/L",
          "code": "mmol/L"
        },
        "referenceRange": [
          {
            "low": {
              "value": 22,
              "code": "mmol/L",
              "system": "http://unitsofmeasure.org"
            }
          },
          {
            "high": {
              "value": 29,
              "code": "mmol/L",
              "system": "http://unitsofmeasure.org"
            }
          }
        ],
        "text": {
          "status": "generated",
          "div": "<div xmlns=\"http://www.w3.org/1999/xhtml\"><table class=\"hl7__eu__lab__report\"><tr><th>Test</th><th>06-Jan-2022</th><th>Reference&#xA0;Range</th><th>Unit</th></tr><tr><td>Carbon dioxide, total [Moles/volume] in Serum or Plasma</td><td>27.9</td><td>22 - 29</td><td></td><td>mmol/L</td></tr></table></div>"
        },
        "status": "final",
        "subject": {
          "reference": "urn:uuid:a72733ab-9a43-4cd7-ba52-938c0a158065",
          "display": "Pelayo Casal"
        },
        "effectiveDateTime": "2022-01-06T05:38:59Z",
        "specimen": {
          "reference": "urn:uuid:50e68665-76be-4f75-916f-c5d10f3e56d2"
        }
      }
    },
    {
      "fullUrl": "urn:uuid:2aaa6e88-287b-4a14-92f9-e2e38455eb0e",
      "resource": {
        "resourceType": "Observation",
        "id": "2aaa6e88-287b-4a14-92f9-e2e38455eb0e",
        "meta": {
          "profile": [
            "http://hl7.eu/fhir/laboratory/StructureDefinition/Observation-resultslab-eu-lab"
          ]
        },
        "performer": [
          {
            "display": "The Central European Lab"
          }
        ],
        "category": [
          {
            "coding": [
              {
                "system": "http://terminology.hl7.org/CodeSystem/observation-category",
                "code": "laboratory"
              }
            ]
          }
        ],
        "code": {
          "coding": [
            {
              "code": "5767-9",
              "system": "http://loinc.org",
              "display": "Appearance of Urine"
            }
          ],
          "text": "Appearance of Urine"
        },
        "text": {
          "status": "generated",
          "div": "<div xmlns=\"http://www.w3.org/1999/xhtml\"><table class=\"hl7__eu__lab__report\"><tr><th>Test</th><th>06-Jan-2022</th><th>Reference&#xA0;Range</th><th>Unit</th></tr><tr><td>Appearance of Urine</td></tr></table></div>"
        },
        "status": "final",
        "subject": {
          "reference": "urn:uuid:a72733ab-9a43-4cd7-ba52-938c0a158065",
          "display": "Pelayo Casal"
        },
        "effectiveDateTime": "2022-01-06T05:38:59Z",
        "specimen": {
          "reference": "urn:uuid:7308b9f6-b59b-40d2-9504-dab89879569a"
        }
      }
    },
    {
      "fullUrl": "urn:uuid:a4af8f27-0a57-4b93-80bd-35c1b7f44fc7",
      "resource": {
        "resourceType": "Observation",
        "id": "a4af8f27-0a57-4b93-80bd-35c1b7f44fc7",
        "meta": {
          "profile": [
            "http://hl7.eu/fhir/laboratory/StructureDefinition/Observation-resultslab-eu-lab"
          ]
        },
        "performer": [
          {
            "display": "The Central European Lab"
          }
        ],
        "category": [
          {
            "coding": [
              {
                "system": "http://terminology.hl7.org/CodeSystem/observation-category",
                "code": "laboratory"
              }
            ]
          }
        ],
        "code": {
          "coding": [
            {
              "code": "34533-0",
              "system": "http://loinc.org",
              "display": "Odor of Urine"
            }
          ],
          "text": "Odor of Urine"
        },
        "text": {
          "status": "generated",
          "div": "<div xmlns=\"http://www.w3.org/1999/xhtml\"><table class=\"hl7__eu__lab__report\"><tr><th>Test</th><th>06-Jan-2022</th><th>Reference&#xA0;Range</th><th>Unit</th></tr><tr><td>Odor of Urine</td></tr></table></div>"
        },
        "status": "final",
        "subject": {
          "reference": "urn:uuid:a72733ab-9a43-4cd7-ba52-938c0a158065",
          "display": "Pelayo Casal"
        },
        "effectiveDateTime": "2022-01-06T05:38:59Z",
        "specimen": {
          "reference": "urn:uuid:7308b9f6-b59b-40d2-9504-dab89879569a"
        }
      }
    },
    {
      "fullUrl": "urn:uuid:7a7c2867-b12f-4905-aefd-4ae7b75c5254",
      "resource": {
        "resourceType": "Observation",
        "id": "7a7c2867-b12f-4905-aefd-4ae7b75c5254",
        "meta": {
          "profile": [
            "http://hl7.eu/fhir/laboratory/StructureDefinition/Observation-resultslab-eu-lab"
          ]
        },
        "performer": [
          {
            "display": "The Central European Lab"
          }
        ],
        "category": [
          {
            "coding": [
              {
                "system": "http://terminology.hl7.org/CodeSystem/observation-category",
                "code": "laboratory"
              }
            ]
          }
        ],
        "code": {
          "coding": [
            {
              "code": "32167-9",
              "system": "http://loinc.org",
              "display": "Clarity of Urine"
            }
          ],
          "text": "Clarity of Urine"
        },
        "text": {
          "status": "generated",
          "div": "<div xmlns=\"http://www.w3.org/1999/xhtml\"><table class=\"hl7__eu__lab__report\"><tr><th>Test</th><th>06-Jan-2022</th><th>Reference&#xA0;Range</th><th>Unit</th></tr><tr><td>Clarity of Urine</td></tr></table></div>"
        },
        "status": "final",
        "subject": {
          "reference": "urn:uuid:a72733ab-9a43-4cd7-ba52-938c0a158065",
          "display": "Pelayo Casal"
        },
        "effectiveDateTime": "2022-01-06T05:38:59Z",
        "specimen": {
          "reference": "urn:uuid:7308b9f6-b59b-40d2-9504-dab89879569a"
        }
      }
    },
    {
      "fullUrl": "urn:uuid:8afde1d5-0624-4e25-ae76-3b97f0ff4ad6",
      "resource": {
        "resourceType": "Observation",
        "id": "8afde1d5-0624-4e25-ae76-3b97f0ff4ad6",
        "meta": {
          "profile": [
            "http://hl7.eu/fhir/laboratory/StructureDefinition/Observation-resultslab-eu-lab"
          ]
        },
        "performer": [
          {
            "display": "The Central European Lab"
          }
        ],
        "category": [
          {
            "coding": [
              {
                "system": "http://terminology.hl7.org/CodeSystem/observation-category",
                "code": "laboratory"
              }
            ]
          }
        ],
        "code": {
          "coding": [
            {
              "code": "5778-6",
              "system": "http://loinc.org",
              "display": "Color of Urine"
            }
          ],
          "text": "Color of Urine"
        },
        "text": {
          "status": "generated",
          "div": "<div xmlns=\"http://www.w3.org/1999/xhtml\"><table class=\"hl7__eu__lab__report\"><tr><th>Test</th><th>06-Jan-2022</th><th>Reference&#xA0;Range</th><th>Unit</th></tr><tr><td>Color of Urine</td></tr></table></div>"
        },
        "status": "final",
        "subject": {
          "reference": "urn:uuid:a72733ab-9a43-4cd7-ba52-938c0a158065",
          "display": "Pelayo Casal"
        },
        "effectiveDateTime": "2022-01-06T05:38:59Z",
        "specimen": {
          "reference": "urn:uuid:7308b9f6-b59b-40d2-9504-dab89879569a"
        }
      }
    },
    {
      "fullUrl": "urn:uuid:3df49024-7ddc-4c9f-b87e-8b2669a921b2",
      "resource": {
        "resourceType": "Observation",
        "id": "3df49024-7ddc-4c9f-b87e-8b2669a921b2",
        "meta": {
          "profile": [
            "http://hl7.eu/fhir/laboratory/StructureDefinition/Observation-resultslab-eu-lab"
          ]
        },
        "performer": [
          {
            "display": "The Central European Lab"
          }
        ],
        "category": [
          {
            "coding": [
              {
                "system": "http://terminology.hl7.org/CodeSystem/observation-category",
                "code": "laboratory"
              }
            ]
          }
        ],
        "code": {
          "coding": [
            {
              "code": "5792-7",
              "system": "http://loinc.org",
              "display": "Glucose [Mass/volume] in Urine by Test strip"
            }
          ],
          "text": "Glucose [Mass/volume] in Urine by Test strip"
        },
        "valueQuantity": {
          "system": "http://unitsofmeasure.org",
          "value": 1.9,
          "unit": "mg/dL",
          "code": "mg/dL"
        },
        "referenceRange": [
          {
            "low": {
              "value": 0.8,
              "code": "mg/dL",
              "system": "http://unitsofmeasure.org"
            }
          },
          {
            "high": {
              "value": 0,
              "code": "mg/dL",
              "system": "http://unitsofmeasure.org"
            }
          }
        ],
        "interpretation": [
          {
            "coding": [
              {
                "code": "H",
                "system": "http://terminology.hl7.org/CodeSystem/v3-ObservationInterpretation",
                "display": "High"
              }
            ]
          }
        ],
        "text": {
          "status": "generated",
          "div": "<div xmlns=\"http://www.w3.org/1999/xhtml\"><table class=\"hl7__eu__lab__report\"><tr><th>Test</th><th>06-Jan-2022</th><th>Reference&#xA0;Range</th><th>Unit</th></tr><tr><td>Glucose [Mass/volume] in Urine by Test strip</td><td>1.9</td><td>0.8 - 0</td><td>H</td><td>mg/dL</td></tr></table></div>"
        },
        "status": "final",
        "subject": {
          "reference": "urn:uuid:a72733ab-9a43-4cd7-ba52-938c0a158065",
          "display": "Pelayo Casal"
        },
        "effectiveDateTime": "2022-01-06T05:38:59Z",
        "specimen": {
          "reference": "urn:uuid:7308b9f6-b59b-40d2-9504-dab89879569a"
        }
      }
    },
    {
      "fullUrl": "urn:uuid:a02a25e8-0933-48e4-927f-a8b452d5f346",
      "resource": {
        "resourceType": "Observation",
        "id": "a02a25e8-0933-48e4-927f-a8b452d5f346",
        "meta": {
          "profile": [
            "http://hl7.eu/fhir/laboratory/StructureDefinition/Observation-resultslab-eu-lab"
          ]
        },
        "performer": [
          {
            "display": "The Central European Lab"
          }
        ],
        "category": [
          {
            "coding": [
              {
                "system": "http://terminology.hl7.org/CodeSystem/observation-category",
                "code": "laboratory"
              }
            ]
          }
        ],
        "code": {
          "coding": [
            {
              "code": "25428-4",
              "system": "http://loinc.org",
              "display": "Glucose [Presence] in Urine by Test strip"
            }
          ],
          "text": "Glucose [Presence] in Urine by Test strip"
        },
        "text": {
          "status": "generated",
          "div": "<div xmlns=\"http://www.w3.org/1999/xhtml\"><table class=\"hl7__eu__lab__report\"><tr><th>Test</th><th>06-Jan-2022</th><th>Reference&#xA0;Range</th><th>Unit</th></tr><tr><td>Glucose [Presence] in Urine by Test strip</td></tr></table></div>"
        },
        "status": "final",
        "subject": {
          "reference": "urn:uuid:a72733ab-9a43-4cd7-ba52-938c0a158065",
          "display": "Pelayo Casal"
        },
        "effectiveDateTime": "2022-01-06T05:38:59Z",
        "specimen": {
          "reference": "urn:uuid:7308b9f6-b59b-40d2-9504-dab89879569a"
        }
      }
    },
    {
      "fullUrl": "urn:uuid:bae7cd26-6499-4556-a9a3-8827707f1869",
      "resource": {
        "resourceType": "Observation",
        "id": "bae7cd26-6499-4556-a9a3-8827707f1869",
        "meta": {
          "profile": [
            "http://hl7.eu/fhir/laboratory/StructureDefinition/Observation-resultslab-eu-lab"
          ]
        },
        "performer": [
          {
            "display": "The Central European Lab"
          }
        ],
        "category": [
          {
            "coding": [
              {
                "system": "http://terminology.hl7.org/CodeSystem/observation-category",
                "code": "laboratory"
              }
            ]
          }
        ],
        "code": {
          "coding": [
            {
              "code": "20505-4",
              "system": "http://loinc.org",
              "display": "Bilirubin.total [Mass/volume] in Urine by Test strip"
            }
          ],
          "text": "Bilirubin.total [Mass/volume] in Urine by Test strip"
        },
        "valueQuantity": {
          "system": "http://unitsofmeasure.org",
          "value": 0.5,
          "unit": "mg/dL",
          "code": "mg/dL"
        },
        "referenceRange": [
          {
            "low": {
              "value": 0.2,
              "code": "mg/dL",
              "system": "http://unitsofmeasure.org"
            }
          },
          {
            "high": {
              "value": 1.5,
              "code": "mg/dL",
              "system": "http://unitsofmeasure.org"
            }
          }
        ],
        "text": {
          "status": "generated",
          "div": "<div xmlns=\"http://www.w3.org/1999/xhtml\"><table class=\"hl7__eu__lab__report\"><tr><th>Test</th><th>06-Jan-2022</th><th>Reference&#xA0;Range</th><th>Unit</th></tr><tr><td>Bilirubin.total [Mass/volume] in Urine by Test strip</td><td>0.5</td><td>0.2 - 1.5</td><td></td><td>mg/dL</td></tr></table></div>"
        },
        "status": "final",
        "subject": {
          "reference": "urn:uuid:a72733ab-9a43-4cd7-ba52-938c0a158065",
          "display": "Pelayo Casal"
        },
        "effectiveDateTime": "2022-01-06T05:38:59Z",
        "specimen": {
          "reference": "urn:uuid:7308b9f6-b59b-40d2-9504-dab89879569a"
        }
      }
    },
    {
      "fullUrl": "urn:uuid:264da503-931c-40e5-be0b-32a8489e038e",
      "resource": {
        "resourceType": "Observation",
        "id": "264da503-931c-40e5-be0b-32a8489e038e",
        "meta": {
          "profile": [
            "http://hl7.eu/fhir/laboratory/StructureDefinition/Observation-resultslab-eu-lab"
          ]
        },
        "performer": [
          {
            "display": "The Central European Lab"
          }
        ],
        "category": [
          {
            "coding": [
              {
                "system": "http://terminology.hl7.org/CodeSystem/observation-category",
                "code": "laboratory"
              }
            ]
          }
        ],
        "code": {
          "coding": [
            {
              "code": "5770-3",
              "system": "http://loinc.org",
              "display": "Bilirubin.total [Presence] in Urine by Test strip"
            }
          ],
          "text": "Bilirubin.total [Presence] in Urine by Test strip"
        },
        "text": {
          "status": "generated",
          "div": "<div xmlns=\"http://www.w3.org/1999/xhtml\"><table class=\"hl7__eu__lab__report\"><tr><th>Test</th><th>06-Jan-2022</th><th>Reference&#xA0;Range</th><th>Unit</th></tr><tr><td>Bilirubin.total [Presence] in Urine by Test strip</td></tr></table></div>"
        },
        "status": "final",
        "subject": {
          "reference": "urn:uuid:a72733ab-9a43-4cd7-ba52-938c0a158065",
          "display": "Pelayo Casal"
        },
        "effectiveDateTime": "2022-01-06T05:38:59Z",
        "specimen": {
          "reference": "urn:uuid:7308b9f6-b59b-40d2-9504-dab89879569a"
        }
      }
    },
    {
      "fullUrl": "urn:uuid:48122375-5242-4e95-913a-168fd89c2bf1",
      "resource": {
        "resourceType": "Observation",
        "id": "48122375-5242-4e95-913a-168fd89c2bf1",
        "meta": {
          "profile": [
            "http://hl7.eu/fhir/laboratory/StructureDefinition/Observation-resultslab-eu-lab"
          ]
        },
        "performer": [
          {
            "display": "The Central European Lab"
          }
        ],
        "category": [
          {
            "coding": [
              {
                "system": "http://terminology.hl7.org/CodeSystem/observation-category",
                "code": "laboratory"
              }
            ]
          }
        ],
        "code": {
          "coding": [
            {
              "code": "5797-6",
              "system": "http://loinc.org",
              "display": "Ketones [Mass/volume] in Urine by Test strip"
            }
          ],
          "text": "Ketones [Mass/volume] in Urine by Test strip"
        },
        "valueQuantity": {
          "system": "http://unitsofmeasure.org",
          "value": 10.4,
          "unit": "mg/dL",
          "code": "mg/dL"
        },
        "referenceRange": [
          {
            "low": {
              "value": 0,
              "code": "mg/dL",
              "system": "http://unitsofmeasure.org"
            }
          },
          {
            "high": {
              "value": 4,
              "code": "mg/dL",
              "system": "http://unitsofmeasure.org"
            }
          }
        ],
        "interpretation": [
          {
            "coding": [
              {
                "code": "H",
                "system": "http://terminology.hl7.org/CodeSystem/v3-ObservationInterpretation",
                "display": "High"
              }
            ]
          }
        ],
        "text": {
          "status": "generated",
          "div": "<div xmlns=\"http://www.w3.org/1999/xhtml\"><table class=\"hl7__eu__lab__report\"><tr><th>Test</th><th>06-Jan-2022</th><th>Reference&#xA0;Range</th><th>Unit</th></tr><tr><td>Ketones [Mass/volume] in Urine by Test strip</td><td>10.4</td><td>0 - 4</td><td>H</td><td>mg/dL</td></tr></table></div>"
        },
        "status": "final",
        "subject": {
          "reference": "urn:uuid:a72733ab-9a43-4cd7-ba52-938c0a158065",
          "display": "Pelayo Casal"
        },
        "effectiveDateTime": "2022-01-06T05:38:59Z",
        "specimen": {
          "reference": "urn:uuid:7308b9f6-b59b-40d2-9504-dab89879569a"
        }
      }
    },
    {
      "fullUrl": "urn:uuid:6f099190-b257-4c6b-a3c4-d77bf6f916ba",
      "resource": {
        "resourceType": "Observation",
        "id": "6f099190-b257-4c6b-a3c4-d77bf6f916ba",
        "meta": {
          "profile": [
            "http://hl7.eu/fhir/laboratory/StructureDefinition/Observation-resultslab-eu-lab"
          ]
        },
        "performer": [
          {
            "display": "The Central European Lab"
          }
        ],
        "category": [
          {
            "coding": [
              {
                "system": "http://terminology.hl7.org/CodeSystem/observation-category",
                "code": "laboratory"
              }
            ]
          }
        ],
        "code": {
          "coding": [
            {
              "code": "2514-8",
              "system": "http://loinc.org",
              "display": "Ketones [Presence] in Urine by Test strip"
            }
          ],
          "text": "Ketones [Presence] in Urine by Test strip"
        },
        "text": {
          "status": "generated",
          "div": "<div xmlns=\"http://www.w3.org/1999/xhtml\"><table class=\"hl7__eu__lab__report\"><tr><th>Test</th><th>06-Jan-2022</th><th>Reference&#xA0;Range</th><th>Unit</th></tr><tr><td>Ketones [Presence] in Urine by Test strip</td></tr></table></div>"
        },
        "status": "final",
        "subject": {
          "reference": "urn:uuid:a72733ab-9a43-4cd7-ba52-938c0a158065",
          "display": "Pelayo Casal"
        },
        "effectiveDateTime": "2022-01-06T05:38:59Z",
        "specimen": {
          "reference": "urn:uuid:7308b9f6-b59b-40d2-9504-dab89879569a"
        }
      }
    },
    {
      "fullUrl": "urn:uuid:77ed7ec5-9404-4ae2-9001-22ca748831d5",
      "resource": {
        "resourceType": "Observation",
        "id": "77ed7ec5-9404-4ae2-9001-22ca748831d5",
        "meta": {
          "profile": [
            "http://hl7.eu/fhir/laboratory/StructureDefinition/Observation-resultslab-eu-lab"
          ]
        },
        "performer": [
          {
            "display": "The Central European Lab"
          }
        ],
        "category": [
          {
            "coding": [
              {
                "system": "http://terminology.hl7.org/CodeSystem/observation-category",
                "code": "laboratory"
              }
            ]
          }
        ],
        "code": {
          "coding": [
            {
              "code": "5811-5",
              "system": "http://loinc.org",
              "display": "Specific gravity of Urine by Test strip"
            }
          ],
          "text": "Specific gravity of Urine by Test strip"
        },
        "valueQuantity": {
          "system": "http://unitsofmeasure.org",
          "value": 1,
          "unit": "{nominal}",
          "code": "{nominal}"
        },
        "referenceRange": [
          {
            "low": {
              "value": 1.01,
              "code": "g/mL",
              "system": "http://unitsofmeasure.org"
            }
          },
          {
            "high": {
              "value": 1.03,
              "code": "g/mL",
              "system": "http://unitsofmeasure.org"
            }
          }
        ],
        "interpretation": [
          {
            "coding": [
              {
                "code": "L",
                "system": "http://terminology.hl7.org/CodeSystem/v3-ObservationInterpretation",
                "display": "Low"
              }
            ]
          }
        ],
        "text": {
          "status": "generated",
          "div": "<div xmlns=\"http://www.w3.org/1999/xhtml\"><table class=\"hl7__eu__lab__report\"><tr><th>Test</th><th>06-Jan-2022</th><th>Reference&#xA0;Range</th><th>Unit</th></tr><tr><td>Specific gravity of Urine by Test strip</td><td>1.0</td><td>1.01 - 1.03</td><td>L</td><td>{nominal}</td></tr></table></div>"
        },
        "status": "final",
        "subject": {
          "reference": "urn:uuid:a72733ab-9a43-4cd7-ba52-938c0a158065",
          "display": "Pelayo Casal"
        },
        "effectiveDateTime": "2022-01-06T05:38:59Z",
        "specimen": {
          "reference": "urn:uuid:7308b9f6-b59b-40d2-9504-dab89879569a"
        }
      }
    },
    {
      "fullUrl": "urn:uuid:f721142e-ea1e-4b4f-a6a2-525011710997",
      "resource": {
        "resourceType": "Observation",
        "id": "f721142e-ea1e-4b4f-a6a2-525011710997",
        "meta": {
          "profile": [
            "http://hl7.eu/fhir/laboratory/StructureDefinition/Observation-resultslab-eu-lab"
          ]
        },
        "performer": [
          {
            "display": "The Central European Lab"
          }
        ],
        "category": [
          {
            "coding": [
              {
                "system": "http://terminology.hl7.org/CodeSystem/observation-category",
                "code": "laboratory"
              }
            ]
          }
        ],
        "code": {
          "coding": [
            {
              "code": "5803-2",
              "system": "http://loinc.org",
              "display": "pH of Urine by Test strip"
            }
          ],
          "text": "pH of Urine by Test strip"
        },
        "valueQuantity": {
          "system": "http://unitsofmeasure.org",
          "value": 5.5,
          "unit": "pH",
          "code": "pH"
        },
        "referenceRange": [
          {
            "low": {
              "value": 4.5,
              "code": "pH",
              "system": "http://unitsofmeasure.org"
            }
          },
          {
            "high": {
              "value": 7.5,
              "code": "pH",
              "system": "http://unitsofmeasure.org"
            }
          }
        ],
        "text": {
          "status": "generated",
          "div": "<div xmlns=\"http://www.w3.org/1999/xhtml\"><table class=\"hl7__eu__lab__report\"><tr><th>Test</th><th>06-Jan-2022</th><th>Reference&#xA0;Range</th><th>Unit</th></tr><tr><td>pH of Urine by Test strip</td><td>5.5</td><td>4.5 - 7.5</td><td></td><td>pH</td></tr></table></div>"
        },
        "status": "final",
        "subject": {
          "reference": "urn:uuid:a72733ab-9a43-4cd7-ba52-938c0a158065",
          "display": "Pelayo Casal"
        },
        "effectiveDateTime": "2022-01-06T05:38:59Z",
        "specimen": {
          "reference": "urn:uuid:7308b9f6-b59b-40d2-9504-dab89879569a"
        }
      }
    },
    {
      "fullUrl": "urn:uuid:819ef536-83c5-430b-8f28-22ba56995f9a",
      "resource": {
        "resourceType": "Observation",
        "id": "819ef536-83c5-430b-8f28-22ba56995f9a",
        "meta": {
          "profile": [
            "http://hl7.eu/fhir/laboratory/StructureDefinition/Observation-resultslab-eu-lab"
          ]
        },
        "performer": [
          {
            "display": "The Central European Lab"
          }
        ],
        "category": [
          {
            "coding": [
              {
                "system": "http://terminology.hl7.org/CodeSystem/observation-category",
                "code": "laboratory"
              }
            ]
          }
        ],
        "code": {
          "coding": [
            {
              "code": "5804-0",
              "system": "http://loinc.org",
              "display": "Protein [Mass/volume] in Urine by Test strip"
            }
          ],
          "text": "Protein [Mass/volume] in Urine by Test strip"
        },
        "valueQuantity": {
          "system": "http://unitsofmeasure.org",
          "value": 293.6,
          "unit": "mg/dL",
          "code": "mg/dL"
        },
        "referenceRange": [
          {
            "low": {
              "value": 0,
              "code": "mg/dL",
              "system": "http://unitsofmeasure.org"
            }
          },
          {
            "high": {
              "value": 150,
              "code": "mg/dL",
              "system": "http://unitsofmeasure.org"
            }
          }
        ],
        "interpretation": [
          {
            "coding": [
              {
                "code": "H",
                "system": "http://terminology.hl7.org/CodeSystem/v3-ObservationInterpretation",
                "display": "High"
              }
            ]
          }
        ],
        "text": {
          "status": "generated",
          "div": "<div xmlns=\"http://www.w3.org/1999/xhtml\"><table class=\"hl7__eu__lab__report\"><tr><th>Test</th><th>06-Jan-2022</th><th>Reference&#xA0;Range</th><th>Unit</th></tr><tr><td>Protein [Mass/volume] in Urine by Test strip</td><td>293.6</td><td>0 - 150</td><td>H</td><td>mg/dL</td></tr></table></div>"
        },
        "status": "final",
        "subject": {
          "reference": "urn:uuid:a72733ab-9a43-4cd7-ba52-938c0a158065",
          "display": "Pelayo Casal"
        },
        "effectiveDateTime": "2022-01-06T05:38:59Z",
        "specimen": {
          "reference": "urn:uuid:7308b9f6-b59b-40d2-9504-dab89879569a"
        }
      }
    },
    {
      "fullUrl": "urn:uuid:a9051c8c-91bc-4238-b363-98fe5b1d8734",
      "resource": {
        "resourceType": "Observation",
        "id": "a9051c8c-91bc-4238-b363-98fe5b1d8734",
        "meta": {
          "profile": [
            "http://hl7.eu/fhir/laboratory/StructureDefinition/Observation-resultslab-eu-lab"
          ]
        },
        "performer": [
          {
            "display": "The Central European Lab"
          }
        ],
        "category": [
          {
            "coding": [
              {
                "system": "http://terminology.hl7.org/CodeSystem/observation-category",
                "code": "laboratory"
              }
            ]
          }
        ],
        "code": {
          "coding": [
            {
              "code": "20454-5",
              "system": "http://loinc.org",
              "display": "Protein [Presence] in Urine by Test strip"
            }
          ],
          "text": "Protein [Presence] in Urine by Test strip"
        },
        "text": {
          "status": "generated",
          "div": "<div xmlns=\"http://www.w3.org/1999/xhtml\"><table class=\"hl7__eu__lab__report\"><tr><th>Test</th><th>06-Jan-2022</th><th>Reference&#xA0;Range</th><th>Unit</th></tr><tr><td>Protein [Presence] in Urine by Test strip</td></tr></table></div>"
        },
        "status": "final",
        "subject": {
          "reference": "urn:uuid:a72733ab-9a43-4cd7-ba52-938c0a158065",
          "display": "Pelayo Casal"
        },
        "effectiveDateTime": "2022-01-06T05:38:59Z",
        "specimen": {
          "reference": "urn:uuid:7308b9f6-b59b-40d2-9504-dab89879569a"
        }
      }
    },
    {
      "fullUrl": "urn:uuid:e7dd1137-2261-4014-8b45-cc386f76e0c5",
      "resource": {
        "resourceType": "Observation",
        "id": "e7dd1137-2261-4014-8b45-cc386f76e0c5",
        "meta": {
          "profile": [
            "http://hl7.eu/fhir/laboratory/StructureDefinition/Observation-resultslab-eu-lab"
          ]
        },
        "performer": [
          {
            "display": "The Central European Lab"
          }
        ],
        "category": [
          {
            "coding": [
              {
                "system": "http://terminology.hl7.org/CodeSystem/observation-category",
                "code": "laboratory"
              }
            ]
          }
        ],
        "code": {
          "coding": [
            {
              "code": "5802-4",
              "system": "http://loinc.org",
              "display": "Nitrite [Presence] in Urine by Test strip"
            }
          ],
          "text": "Nitrite [Presence] in Urine by Test strip"
        },
        "text": {
          "status": "generated",
          "div": "<div xmlns=\"http://www.w3.org/1999/xhtml\"><table class=\"hl7__eu__lab__report\"><tr><th>Test</th><th>06-Jan-2022</th><th>Reference&#xA0;Range</th><th>Unit</th></tr><tr><td>Nitrite [Presence] in Urine by Test strip</td></tr></table></div>"
        },
        "status": "final",
        "subject": {
          "reference": "urn:uuid:a72733ab-9a43-4cd7-ba52-938c0a158065",
          "display": "Pelayo Casal"
        },
        "effectiveDateTime": "2022-01-06T05:38:59Z",
        "specimen": {
          "reference": "urn:uuid:7308b9f6-b59b-40d2-9504-dab89879569a"
        }
      }
    },
    {
      "fullUrl": "urn:uuid:02aee24c-178d-4a42-8e38-4c21c9a8122e",
      "resource": {
        "resourceType": "Observation",
        "id": "02aee24c-178d-4a42-8e38-4c21c9a8122e",
        "meta": {
          "profile": [
            "http://hl7.eu/fhir/laboratory/StructureDefinition/Observation-resultslab-eu-lab"
          ]
        },
        "performer": [
          {
            "display": "The Central European Lab"
          }
        ],
        "category": [
          {
            "coding": [
              {
                "system": "http://terminology.hl7.org/CodeSystem/observation-category",
                "code": "laboratory"
              }
            ]
          }
        ],
        "code": {
          "coding": [
            {
              "code": "5794-3",
              "system": "http://loinc.org",
              "display": "Hemoglobin [Presence] in Urine by Test strip"
            }
          ],
          "text": "Hemoglobin [Presence] in Urine by Test strip"
        },
        "text": {
          "status": "generated",
          "div": "<div xmlns=\"http://www.w3.org/1999/xhtml\"><table class=\"hl7__eu__lab__report\"><tr><th>Test</th><th>06-Jan-2022</th><th>Reference&#xA0;Range</th><th>Unit</th></tr><tr><td>Hemoglobin [Presence] in Urine by Test strip</td></tr></table></div>"
        },
        "status": "final",
        "subject": {
          "reference": "urn:uuid:a72733ab-9a43-4cd7-ba52-938c0a158065",
          "display": "Pelayo Casal"
        },
        "effectiveDateTime": "2022-01-06T05:38:59Z",
        "specimen": {
          "reference": "urn:uuid:7308b9f6-b59b-40d2-9504-dab89879569a"
        }
      }
    },
    {
      "fullUrl": "urn:uuid:118a5a5a-9071-470a-8bcc-38ffce48f3a1",
      "resource": {
        "resourceType": "Observation",
        "id": "118a5a5a-9071-470a-8bcc-38ffce48f3a1",
        "meta": {
          "profile": [
            "http://hl7.eu/fhir/laboratory/StructureDefinition/Observation-resultslab-eu-lab"
          ]
        },
        "performer": [
          {
            "display": "The Central European Lab"
          }
        ],
        "category": [
          {
            "coding": [
              {
                "system": "http://terminology.hl7.org/CodeSystem/observation-category",
                "code": "laboratory"
              }
            ]
          }
        ],
        "code": {
          "coding": [
            {
              "code": "5799-2",
              "system": "http://loinc.org",
              "display": "Leukocyte esterase [Presence] in Urine by Test strip"
            }
          ],
          "text": "Leukocyte esterase [Presence] in Urine by Test strip"
        },
        "text": {
          "status": "generated",
          "div": "<div xmlns=\"http://www.w3.org/1999/xhtml\"><table class=\"hl7__eu__lab__report\"><tr><th>Test</th><th>06-Jan-2022</th><th>Reference&#xA0;Range</th><th>Unit</th></tr><tr><td>Leukocyte esterase [Presence] in Urine by Test strip</td></tr></table></div>"
        },
        "status": "final",
        "subject": {
          "reference": "urn:uuid:a72733ab-9a43-4cd7-ba52-938c0a158065",
          "display": "Pelayo Casal"
        },
        "effectiveDateTime": "2022-01-06T05:38:59Z",
        "specimen": {
          "reference": "urn:uuid:7308b9f6-b59b-40d2-9504-dab89879569a"
        }
      }
    },
    {
      "fullUrl": "urn:uuid:dd952536-a633-4688-aa0a-37507d448b8f",
      "resource": {
        "resourceType": "Observation",
        "id": "dd952536-a633-4688-aa0a-37507d448b8f",
        "meta": {
          "profile": [
            "http://hl7.eu/fhir/laboratory/StructureDefinition/Observation-resultslab-eu-lab"
          ]
        },
        "performer": [
          {
            "display": "The Central European Lab"
          }
        ],
        "category": [
          {
            "coding": [
              {
                "system": "http://terminology.hl7.org/CodeSystem/observation-category",
                "code": "laboratory"
              }
            ]
          }
        ],
        "code": {
          "coding": [
            {
              "code": "4548-4",
              "system": "http://loinc.org",
              "display": "Hemoglobin A1c/Hemoglobin.total in Blood"
            }
          ],
          "text": "Hemoglobin A1c/Hemoglobin.total in Blood"
        },
        "valueQuantity": {
          "system": "http://unitsofmeasure.org",
          "value": 3.1,
          "unit": "%",
          "code": "%"
        },
        "referenceRange": [
          {
            "low": {
              "value": 4.5,
              "code": "%",
              "system": "http://unitsofmeasure.org"
            }
          },
          {
            "high": {
              "value": 6.4,
              "code": "%",
              "system": "http://unitsofmeasure.org"
            }
          }
        ],
        "interpretation": [
          {
            "coding": [
              {
                "code": "L",
                "system": "http://terminology.hl7.org/CodeSystem/v3-ObservationInterpretation",
                "display": "Low"
              }
            ]
          }
        ],
        "text": {
          "status": "generated",
          "div": "<div xmlns=\"http://www.w3.org/1999/xhtml\"><table class=\"hl7__eu__lab__report\"><tr><th>Test</th><th>06-Jan-2022</th><th>Reference&#xA0;Range</th><th>Unit</th></tr><tr><td>Hemoglobin A1c/Hemoglobin.total in Blood</td><td>3.1</td><td>4.5 - 6.4</td><td>L</td><td>%</td></tr></table></div>"
        },
        "status": "final",
        "subject": {
          "reference": "urn:uuid:a72733ab-9a43-4cd7-ba52-938c0a158065",
          "display": "Pelayo Casal"
        },
        "effectiveDateTime": "2022-01-06T05:38:59Z",
        "specimen": {
          "reference": "urn:uuid:448c38ee-0eda-4d8f-a537-ca0c33e88f92"
        }
      }
    },
    {
      "fullUrl": "urn:uuid:a0731301-e4dc-452d-9947-2af0a174173f",
      "resource": {
        "resourceType": "Observation",
        "id": "a0731301-e4dc-452d-9947-2af0a174173f",
        "meta": {
          "profile": [
            "http://hl7.eu/fhir/laboratory/StructureDefinition/Observation-resultslab-eu-lab"
          ]
        },
        "performer": [
          {
            "display": "The Central European Lab"
          }
        ],
        "category": [
          {
            "coding": [
              {
                "system": "http://terminology.hl7.org/CodeSystem/observation-category",
                "code": "laboratory"
              }
            ]
          }
        ],
        "code": {
          "coding": [
            {
              "code": "2339-0",
              "system": "http://loinc.org",
              "display": "Glucose [Mass/volume] in Blood"
            }
          ],
          "text": "Glucose [Mass/volume] in Blood"
        },
        "valueQuantity": {
          "system": "http://unitsofmeasure.org",
          "value": 84.2,
          "unit": "mg/dL",
          "code": "mg/dL"
        },
        "referenceRange": [
          {
            "low": {
              "value": 70,
              "code": "mg/dL",
              "system": "http://unitsofmeasure.org"
            }
          },
          {
            "high": {
              "value": 140,
              "code": "mg/dL",
              "system": "http://unitsofmeasure.org"
            }
          }
        ],
        "text": {
          "status": "generated",
          "div": "<div xmlns=\"http://www.w3.org/1999/xhtml\"><table class=\"hl7__eu__lab__report\"><tr><th>Test</th><th>06-Jan-2022</th><th>Reference&#xA0;Range</th><th>Unit</th></tr><tr><td>Glucose [Mass/volume] in Blood</td><td>84.2</td><td>70 - 140</td><td></td><td>mg/dL</td></tr></table></div>"
        },
        "status": "final",
        "subject": {
          "reference": "urn:uuid:a72733ab-9a43-4cd7-ba52-938c0a158065",
          "display": "Pelayo Casal"
        },
        "effectiveDateTime": "2022-01-06T05:38:59Z",
        "specimen": {
          "reference": "urn:uuid:448c38ee-0eda-4d8f-a537-ca0c33e88f92"
        }
      }
    },
    {
      "fullUrl": "urn:uuid:db585833-7388-47ab-812f-96511ae0cb3a",
      "resource": {
        "resourceType": "Observation",
        "id": "db585833-7388-47ab-812f-96511ae0cb3a",
        "meta": {
          "profile": [
            "http://hl7.eu/fhir/laboratory/StructureDefinition/Observation-resultslab-eu-lab"
          ]
        },
        "performer": [
          {
            "display": "The Central European Lab"
          }
        ],
        "category": [
          {
            "coding": [
              {
                "system": "http://terminology.hl7.org/CodeSystem/observation-category",
                "code": "laboratory"
              }
            ]
          }
        ],
        "code": {
          "coding": [
            {
              "code": "6299-2",
              "system": "http://loinc.org",
              "display": "Urea nitrogen [Mass/volume] in Blood"
            }
          ],
          "text": "Urea nitrogen [Mass/volume] in Blood"
        },
        "valueQuantity": {
          "system": "http://unitsofmeasure.org",
          "value": 14.1,
          "unit": "mg/dL",
          "code": "mg/dL"
        },
        "referenceRange": [
          {
            "low": {
              "value": 7,
              "code": "mg/dL",
              "system": "http://unitsofmeasure.org"
            }
          },
          {
            "high": {
              "value": 25,
              "code": "mg/dL",
              "system": "http://unitsofmeasure.org"
            }
          }
        ],
        "text": {
          "status": "generated",
          "div": "<div xmlns=\"http://www.w3.org/1999/xhtml\"><table class=\"hl7__eu__lab__report\"><tr><th>Test</th><th>06-Jan-2022</th><th>Reference&#xA0;Range</th><th>Unit</th></tr><tr><td>Urea nitrogen [Mass/volume] in Blood</td><td>14.1</td><td>7 - 25</td><td></td><td>mg/dL</td></tr></table></div>"
        },
        "status": "final",
        "subject": {
          "reference": "urn:uuid:a72733ab-9a43-4cd7-ba52-938c0a158065",
          "display": "Pelayo Casal"
        },
        "effectiveDateTime": "2022-01-06T05:38:59Z",
        "specimen": {
          "reference": "urn:uuid:448c38ee-0eda-4d8f-a537-ca0c33e88f92"
        }
      }
    },
    {
      "fullUrl": "urn:uuid:bf4b36c9-b255-4cde-ac72-d2c47260b35c",
      "resource": {
        "resourceType": "Observation",
        "id": "bf4b36c9-b255-4cde-ac72-d2c47260b35c",
        "meta": {
          "profile": [
            "http://hl7.eu/fhir/laboratory/StructureDefinition/Observation-resultslab-eu-lab"
          ]
        },
        "performer": [
          {
            "display": "The Central European Lab"
          }
        ],
        "category": [
          {
            "coding": [
              {
                "system": "http://terminology.hl7.org/CodeSystem/observation-category",
                "code": "laboratory"
              }
            ]
          }
        ],
        "code": {
          "coding": [
            {
              "code": "38483-4",
              "system": "http://loinc.org",
              "display": "Creatinine [Mass/volume] in Blood"
            }
          ],
          "text": "Creatinine [Mass/volume] in Blood"
        },
        "valueQuantity": {
          "system": "http://unitsofmeasure.org",
          "value": 1.5,
          "unit": "mg/dL",
          "code": "mg/dL"
        },
        "referenceRange": [
          {
            "low": {
              "value": 0.9,
              "code": "mg/dL",
              "system": "http://unitsofmeasure.org"
            }
          },
          {
            "high": {
              "value": 1.3,
              "code": "mg/dL",
              "system": "http://unitsofmeasure.org"
            }
          }
        ],
        "interpretation": [
          {
            "coding": [
              {
                "code": "H",
                "system": "http://terminology.hl7.org/CodeSystem/v3-ObservationInterpretation",
                "display": "High"
              }
            ]
          }
        ],
        "text": {
          "status": "generated",
          "div": "<div xmlns=\"http://www.w3.org/1999/xhtml\"><table class=\"hl7__eu__lab__report\"><tr><th>Test</th><th>06-Jan-2022</th><th>Reference&#xA0;Range</th><th>Unit</th></tr><tr><td>Creatinine [Mass/volume] in Blood</td><td>1.5</td><td>0.9 - 1.3</td><td>H</td><td>mg/dL</td></tr></table></div>"
        },
        "status": "final",
        "subject": {
          "reference": "urn:uuid:a72733ab-9a43-4cd7-ba52-938c0a158065",
          "display": "Pelayo Casal"
        },
        "effectiveDateTime": "2022-01-06T05:38:59Z",
        "specimen": {
          "reference": "urn:uuid:448c38ee-0eda-4d8f-a537-ca0c33e88f92"
        }
      }
    },
    {
      "fullUrl": "urn:uuid:f693aa81-a34e-42b0-87c9-bfb2ea841b1b",
      "resource": {
        "resourceType": "Observation",
        "id": "f693aa81-a34e-42b0-87c9-bfb2ea841b1b",
        "meta": {
          "profile": [
            "http://hl7.eu/fhir/laboratory/StructureDefinition/Observation-resultslab-eu-lab"
          ]
        },
        "performer": [
          {
            "display": "The Central European Lab"
          }
        ],
        "category": [
          {
            "coding": [
              {
                "system": "http://terminology.hl7.org/CodeSystem/observation-category",
                "code": "laboratory"
              }
            ]
          }
        ],
        "code": {
          "coding": [
            {
              "code": "49765-1",
              "system": "http://loinc.org",
              "display": "Calcium [Mass/volume] in Blood"
            }
          ],
          "text": "Calcium [Mass/volume] in Blood"
        },
        "valueQuantity": {
          "system": "http://unitsofmeasure.org",
          "value": 8.6,
          "unit": "mg/dL",
          "code": "mg/dL"
        },
        "referenceRange": [
          {
            "low": {
              "value": 8.6,
              "code": "mg/dL",
              "system": "http://unitsofmeasure.org"
            }
          },
          {
            "high": {
              "value": 10.2,
              "code": "mg/dL",
              "system": "http://unitsofmeasure.org"
            }
          }
        ],
        "text": {
          "status": "generated",
          "div": "<div xmlns=\"http://www.w3.org/1999/xhtml\"><table class=\"hl7__eu__lab__report\"><tr><th>Test</th><th>06-Jan-2022</th><th>Reference&#xA0;Range</th><th>Unit</th></tr><tr><td>Calcium [Mass/volume] in Blood</td><td>8.6</td><td>8.6 - 10.2</td><td></td><td>mg/dL</td></tr></table></div>"
        },
        "status": "final",
        "subject": {
          "reference": "urn:uuid:a72733ab-9a43-4cd7-ba52-938c0a158065",
          "display": "Pelayo Casal"
        },
        "effectiveDateTime": "2022-01-06T05:38:59Z",
        "specimen": {
          "reference": "urn:uuid:448c38ee-0eda-4d8f-a537-ca0c33e88f92"
        }
      }
    },
    {
      "fullUrl": "urn:uuid:add92480-a5db-4bda-b862-838f9f532b36",
      "resource": {
        "resourceType": "Observation",
        "id": "add92480-a5db-4bda-b862-838f9f532b36",
        "meta": {
          "profile": [
            "http://hl7.eu/fhir/laboratory/StructureDefinition/Observation-resultslab-eu-lab"
          ]
        },
        "performer": [
          {
            "display": "The Central European Lab"
          }
        ],
        "category": [
          {
            "coding": [
              {
                "system": "http://terminology.hl7.org/CodeSystem/observation-category",
                "code": "laboratory"
              }
            ]
          }
        ],
        "code": {
          "coding": [
            {
              "code": "2947-0",
              "system": "http://loinc.org",
              "display": "Sodium [Moles/volume] in Blood"
            }
          ],
          "text": "Sodium [Moles/volume] in Blood"
        },
        "valueQuantity": {
          "system": "http://unitsofmeasure.org",
          "value": 138.6,
          "unit": "mmol/L",
          "code": "mmol/L"
        },
        "referenceRange": [
          {
            "low": {
              "value": 135,
              "code": "mmol/L",
              "system": "http://unitsofmeasure.org"
            }
          },
          {
            "high": {
              "value": 145,
              "code": "mmol/L",
              "system": "http://unitsofmeasure.org"
            }
          }
        ],
        "text": {
          "status": "generated",
          "div": "<div xmlns=\"http://www.w3.org/1999/xhtml\"><table class=\"hl7__eu__lab__report\"><tr><th>Test</th><th>06-Jan-2022</th><th>Reference&#xA0;Range</th><th>Unit</th></tr><tr><td>Sodium [Moles/volume] in Blood</td><td>138.6</td><td>135 - 145</td><td></td><td>mmol/L</td></tr></table></div>"
        },
        "status": "final",
        "subject": {
          "reference": "urn:uuid:a72733ab-9a43-4cd7-ba52-938c0a158065",
          "display": "Pelayo Casal"
        },
        "effectiveDateTime": "2022-01-06T05:38:59Z",
        "specimen": {
          "reference": "urn:uuid:448c38ee-0eda-4d8f-a537-ca0c33e88f92"
        }
      }
    },
    {
      "fullUrl": "urn:uuid:46734320-3d60-4023-9a71-8486da486905",
      "resource": {
        "resourceType": "Observation",
        "id": "46734320-3d60-4023-9a71-8486da486905",
        "meta": {
          "profile": [
            "http://hl7.eu/fhir/laboratory/StructureDefinition/Observation-resultslab-eu-lab"
          ]
        },
        "performer": [
          {
            "display": "The Central European Lab"
          }
        ],
        "category": [
          {
            "coding": [
              {
                "system": "http://terminology.hl7.org/CodeSystem/observation-category",
                "code": "laboratory"
              }
            ]
          }
        ],
        "code": {
          "coding": [
            {
              "code": "6298-4",
              "system": "http://loinc.org",
              "display": "Potassium [Moles/volume] in Blood"
            }
          ],
          "text": "Potassium [Moles/volume] in Blood"
        },
        "valueQuantity": {
          "system": "http://unitsofmeasure.org",
          "value": 4.1,
          "unit": "mmol/L",
          "code": "mmol/L"
        },
        "referenceRange": [
          {
            "low": {
              "value": 3.5,
              "code": "mmol/L",
              "system": "http://unitsofmeasure.org"
            }
          },
          {
            "high": {
              "value": 5.1,
              "code": "mmol/L",
              "system": "http://unitsofmeasure.org"
            }
          }
        ],
        "text": {
          "status": "generated",
          "div": "<div xmlns=\"http://www.w3.org/1999/xhtml\"><table class=\"hl7__eu__lab__report\"><tr><th>Test</th><th>06-Jan-2022</th><th>Reference&#xA0;Range</th><th>Unit</th></tr><tr><td>Potassium [Moles/volume] in Blood</td><td>4.1</td><td>3.5 - 5.1</td><td></td><td>mmol/L</td></tr></table></div>"
        },
        "status": "final",
        "subject": {
          "reference": "urn:uuid:a72733ab-9a43-4cd7-ba52-938c0a158065",
          "display": "Pelayo Casal"
        },
        "effectiveDateTime": "2022-01-06T05:38:59Z",
        "specimen": {
          "reference": "urn:uuid:448c38ee-0eda-4d8f-a537-ca0c33e88f92"
        }
      }
    },
    {
      "fullUrl": "urn:uuid:7d8df9fa-fece-4fdd-bc8c-ca34f6440d43",
      "resource": {
        "resourceType": "Observation",
        "id": "7d8df9fa-fece-4fdd-bc8c-ca34f6440d43",
        "meta": {
          "profile": [
            "http://hl7.eu/fhir/laboratory/StructureDefinition/Observation-resultslab-eu-lab"
          ]
        },
        "performer": [
          {
            "display": "The Central European Lab"
          }
        ],
        "category": [
          {
            "coding": [
              {
                "system": "http://terminology.hl7.org/CodeSystem/observation-category",
                "code": "laboratory"
              }
            ]
          }
        ],
        "code": {
          "coding": [
            {
              "code": "2069-3",
              "system": "http://loinc.org",
              "display": "Chloride [Moles/volume] in Blood"
            }
          ],
          "text": "Chloride [Moles/volume] in Blood"
        },
        "valueQuantity": {
          "system": "http://unitsofmeasure.org",
          "value": 102.8,
          "unit": "mmol/L",
          "code": "mmol/L"
        },
        "referenceRange": [
          {
            "low": {
              "value": 98,
              "code": "mmol/L",
              "system": "http://unitsofmeasure.org"
            }
          },
          {
            "high": {
              "value": 108,
              "code": "mmol/L",
              "system": "http://unitsofmeasure.org"
            }
          }
        ],
        "text": {
          "status": "generated",
          "div": "<div xmlns=\"http://www.w3.org/1999/xhtml\"><table class=\"hl7__eu__lab__report\"><tr><th>Test</th><th>06-Jan-2022</th><th>Reference&#xA0;Range</th><th>Unit</th></tr><tr><td>Chloride [Moles/volume] in Blood</td><td>102.8</td><td>98 - 108</td><td></td><td>mmol/L</td></tr></table></div>"
        },
        "status": "final",
        "subject": {
          "reference": "urn:uuid:a72733ab-9a43-4cd7-ba52-938c0a158065",
          "display": "Pelayo Casal"
        },
        "effectiveDateTime": "2022-01-06T05:38:59Z",
        "specimen": {
          "reference": "urn:uuid:448c38ee-0eda-4d8f-a537-ca0c33e88f92"
        }
      }
    },
    {
      "fullUrl": "urn:uuid:baa671a0-619e-4c0a-bb06-73a3d8adc93d",
      "resource": {
        "resourceType": "Observation",
        "id": "baa671a0-619e-4c0a-bb06-73a3d8adc93d",
        "meta": {
          "profile": [
            "http://hl7.eu/fhir/laboratory/StructureDefinition/Observation-resultslab-eu-lab"
          ]
        },
        "performer": [
          {
            "display": "The Central European Lab"
          }
        ],
        "category": [
          {
            "coding": [
              {
                "system": "http://terminology.hl7.org/CodeSystem/observation-category",
                "code": "laboratory"
              }
            ]
          }
        ],
        "code": {
          "coding": [
            {
              "code": "20565-8",
              "system": "http://loinc.org",
              "display": "Carbon dioxide, total [Moles/volume] in Blood"
            }
          ],
          "text": "Carbon dioxide, total [Moles/volume] in Blood"
        },
        "valueQuantity": {
          "system": "http://unitsofmeasure.org",
          "value": 27.9,
          "unit": "mmol/L",
          "code": "mmol/L"
        },
        "referenceRange": [
          {
            "low": {
              "value": 22,
              "code": "mmol/L",
              "system": "http://unitsofmeasure.org"
            }
          },
          {
            "high": {
              "value": 32,
              "code": "mmol/L",
              "system": "http://unitsofmeasure.org"
            }
          }
        ],
        "text": {
          "status": "generated",
          "div": "<div xmlns=\"http://www.w3.org/1999/xhtml\"><table class=\"hl7__eu__lab__report\"><tr><th>Test</th><th>06-Jan-2022</th><th>Reference&#xA0;Range</th><th>Unit</th></tr><tr><td>Carbon dioxide, total [Moles/volume] in Blood</td><td>27.9</td><td>22 - 32</td><td></td><td>mmol/L</td></tr></table></div>"
        },
        "status": "final",
        "subject": {
          "reference": "urn:uuid:a72733ab-9a43-4cd7-ba52-938c0a158065",
          "display": "Pelayo Casal"
        },
        "effectiveDateTime": "2022-01-06T05:38:59Z",
        "specimen": {
          "reference": "urn:uuid:448c38ee-0eda-4d8f-a537-ca0c33e88f92"
        }
      }
    },
    {
      "fullUrl": "urn:uuid:7f3ff8e4-d67e-4ba3-9a0b-826d5b494c05",
      "resource": {
        "resourceType": "Device",
        "id": "7f3ff8e4-d67e-4ba3-9a0b-826d5b494c05",
        "deviceName": [
          {
            "name": "SYNDERAI Synthetic Generator",
            "type": "manufacturer-name"
          }
        ],
        "version": [
          {
            "value": "5.0"
          }
        ],
        "text": {
          "status": "generated",
          "div": "<div xmlns=\"http://www.w3.org/1999/xhtml\">SYNDERAI Synthetic Generator v5.0</div>"
        },
        "status": "active\"",
        "distinctIdentifier": "synderai-generator-50",
        "manufacturer": "SYNDERAI Project"
      }
    },
    {
      "fullUrl": "urn:uuid:9bea2bc7-e588-41d7-8c0e-a55d4d1e74db",
      "resource": {
        "resourceType": "Provenance",
        "id": "9bea2bc7-e588-41d7-8c0e-a55d4d1e74db",
        "target": [
          {
            "reference": "Patient/a72733ab-9a43-4cd7-ba52-938c0a158065"
          },
          {
            "reference": "Bundle/68ea6c59-6684-4d32-ad83-29c4431b54e7"
          },
          {
            "reference": "Composition/444e5960-c9b3-4273-8269-5f20a5f852cb"
          },
          {
            "reference": "PractitionerRole/f526ecfc-0584-413e-9d89-3f038110b483"
          },
          {
            "reference": "Practitioner/1716cc3b-b66d-4842-b425-879abaa7d02e"
          },
          {
            "reference": "PractitionerRole/892c52b8-4ade-47bb-aa82-fb84f10aafac"
          },
          {
            "reference": "Organization/36da19bc-8c45-4ed1-b6b9-309160ff0bab"
          }
        ],
        "activity": {
          "text": "Synthetic Example Data Generation"
        },
        "policy": [
          "https://synderai.net/synderai-synthetic-data-policy"
        ],
        "agent": [
          {
            "type": {
              "text": "author"
            },
            "who": {
              "reference": "Device/7f3ff8e4-d67e-4ba3-9a0b-826d5b494c05"
            }
          }
        ],
        "reason": [
          {
            "text": "Interoperability Testing and Training (non-clinical use)"
          }
        ],
        "text": {
          "status": "generated",
          "div": "<div xmlns=\"http://www.w3.org/1999/xhtml\">Provenance for SYNDERAI Synthetic Example Data Resource</div>"
        },
        "recorded": "2022-01-06T06:38:59Z"
      }
    },
    {
      "fullUrl": "urn:uuid:f526ecfc-0584-413e-9d89-3f038110b483",
      "resource": {
        "resourceType": "PractitionerRole",
        "id": "f526ecfc-0584-413e-9d89-3f038110b483",
        "meta": {
          "profile": [
            "http://hl7.eu/fhir/base/StructureDefinition/practitionerRole-eu"
          ]
        },
        "text": {
          "status": "generated",
          "div": "<div xmlns=\"http://www.w3.org/1999/xhtml\">Laboratory Role Id: f526ecfc-0584-413e-9d89-3f038110b483</div>"
        },
        "practitioner": {
          "reference": "urn:uuid:1716cc3b-b66d-4842-b425-879abaa7d02e"
        }
      }
    },
    {
      "fullUrl": "urn:uuid:1716cc3b-b66d-4842-b425-879abaa7d02e",
      "resource": {
        "resourceType": "Practitioner",
        "id": "1716cc3b-b66d-4842-b425-879abaa7d02e",
        "meta": {
          "profile": [
            "http://hl7.eu/fhir/base/StructureDefinition/practitioner-eu"
          ]
        },
        "identifier": [
          {
            "assigner": {
              "display": "HL7 Europe"
            },
            "system": "urn:oid:2.16.840.1.113883.2.51.999",
            "value": "76486332-f14f-47e0-adfd-a90ec1dbb61c"
          }
        ],
        "name": [
          {
            "prefix": [
              "dr"
            ],
            "given": [
              "Ex"
            ],
            "family": "Ample"
          }
        ],
        "address": [
          {
            "line": [
              "Laboratoire Central Européenne",
              "Boulevard du Jardin Botanique 32"
            ],
            "postalCode": "1000",
            "city": "Brussels",
            "country": "Belgium"
          }
        ],
        "text": {
          "status": "generated",
          "div": "<div xmlns=\"http://www.w3.org/1999/xhtml\">Laboratory: Laboratoire Central Européenne, 1000 Brussels, Belgium</div>"
        }
      }
    }
  ],
  "type": "document",
  "timestamp": "2022-01-06T06:38:59Z"
}
