{
  "resourceType": "Bundle",
  "id": "a1cb9056-79e1-4ca1-8dbd-71e1b30169a9",
  "meta": {
    "profile": [
      "http://hl7.eu/fhir/laboratory/StructureDefinition/Bundle-eu-lab"
    ]
  },
  "identifier": {
    "assigner": {
      "display": "HL7 Europe"
    },
    "system": "urn:oid:2.16.840.1.113883.2.51.999",
    "value": "1e0617b8-b5cf-4bf0-8b88-38abab9b17b4"
  },
  "entry": [
    {
      "fullUrl": "urn:uuid:950e9712-ff68-4a6b-8fe5-3e74e4bbc7df",
      "resource": {
        "resourceType": "Composition",
        "id": "950e9712-ff68-4a6b-8fe5-3e74e4bbc7df",
        "meta": {
          "profile": [
            "http://hl7.eu/fhir/laboratory/StructureDefinition/Composition-eu-lab"
          ]
        },
        "identifier": {
          "assigner": {
            "display": "HL7 Europe"
          },
          "system": "urn:oid:2.16.840.1.113883.2.51.999",
          "value": "6b2034f1-1fd2-41da-a80d-7aee94b9ec35"
        },
        "author": [
          {
            "reference": "urn:uuid:fdc61e9c-e061-49e0-949d-2e83f0f77d1a"
          }
        ],
        "category": [
          {
            "coding": [
              {
                "code": "26436-6",
                "system": "http://loinc.org",
                "display": "Laboratory studies (set)"
              }
            ]
          }
        ],
        "type": {
          "coding": [
            {
              "code": "11502-2",
              "system": "http://loinc.org",
              "display": "Laboratory report"
            }
          ],
          "text": "Laboratory Report"
        },
        "section": [
          {
            "code": {
              "coding": [
                {
                  "code": "26436-6",
                  "system": "http://loinc.org",
                  "display": "Laboratory studies (set)"
                }
              ],
              "text": "Laboratory studies"
            },
            "section": [
              {
                "code": {
                  "coding": [
                    {
                      "code": "$18719-5",
                      "system": "http://loinc.org",
                      "display": "Chemistry studies (set)"
                    }
                  ],
                  "text": "Chemistry"
                },
                "entry": [
                  {
                    "reference": "urn:uuid:844dffd5-8151-4c8d-827f-e5c53f4d5a07"
                  },
                  {
                    "reference": "urn:uuid:26926d88-8be9-4b40-a9d4-abcecea5ec0a"
                  },
                  {
                    "reference": "urn:uuid:9b26a603-1c68-4e2e-9c71-c5aaee4b315c"
                  },
                  {
                    "reference": "urn:uuid:ce24b065-ef96-4d7c-ac68-91187cbab2a9"
                  },
                  {
                    "reference": "urn:uuid:e9269fd5-b507-43c2-9953-4f62131f25af"
                  },
                  {
                    "reference": "urn:uuid:1e35074b-9ec6-4828-b127-1d321204de39"
                  },
                  {
                    "reference": "urn:uuid:edd4ea04-1fae-4ac9-bad8-4b3968264663"
                  },
                  {
                    "reference": "urn:uuid:e09670d1-d2ae-4306-a55c-0012f9bed1e2"
                  },
                  {
                    "reference": "urn:uuid:9ce355ca-5e99-417b-9cdc-e261e2e8e9d6"
                  },
                  {
                    "reference": "urn:uuid:7190f1be-e9b1-4361-b32c-cdcc07b11d4a"
                  },
                  {
                    "reference": "urn:uuid:4720e465-5eb2-4f84-8c68-9ea22ac31f5c"
                  },
                  {
                    "reference": "urn:uuid:574d89ed-a060-45b1-9b7e-36f49ebc8a33"
                  },
                  {
                    "reference": "urn:uuid:8dc726c0-b336-4007-92c3-7bfb70a5c881"
                  },
                  {
                    "reference": "urn:uuid:5233f70c-1d6b-4a0f-a36a-ab6e5fcd3686"
                  },
                  {
                    "reference": "urn:uuid:17e9d59c-cfbf-49be-9d11-efa8011be30d"
                  },
                  {
                    "reference": "urn:uuid:3193f2a0-ad61-4e62-9705-64f1723297bd"
                  },
                  {
                    "reference": "urn:uuid:a7a144da-112d-4170-a97d-a95d3ef7145d"
                  },
                  {
                    "reference": "urn:uuid:5b42301e-ef7f-4aea-b09f-63315197173c"
                  }
                ],
                "text": {
                  "status": "generated",
                  "div": "<div xmlns=\"http://www.w3.org/1999/xhtml\"><h3>Chemistry</h3><table class=\"hl7__eu__lab__report\"><thead><tr><th>Test</th><th>22-AUG-2019</th><th>Reference&#xA0;Range</th><th>Unit</th></tr></thead><tbody><tr><td>Glucose [Mass/volume] in Serum or Plasma</td><td>72.1</td><td>70 - 139</td><td>mg/dL</td></tr><tr><td>Urea nitrogen [Mass/volume] in Serum or Plasma</td><td>7.3</td><td>7 - 20</td><td>mg/dL</td></tr><tr><td>Creatinine [Mass/volume] in Serum or Plasma</td><td><strong>1.9 H</strong></td><td>0.6 - 1.1</td><td>mg/dL</td></tr><tr><td>Calcium [Mass/volume] in Serum or Plasma</td><td>9.1</td><td>8.5 - 10.4</td><td>mg/dL</td></tr><tr><td>Sodium [Moles/volume] in Serum or Plasma</td><td>140.8</td><td>135 - 145</td><td>mmol/L</td></tr><tr><td>Potassium [Moles/volume] in Serum or Plasma</td><td>4.1</td><td>3.5 - 5.1</td><td>mmol/L</td></tr><tr><td>Chloride [Moles/volume] in Serum or Plasma</td><td>107.7</td><td>98 - 110</td><td>mmol/L</td></tr><tr><td>Carbon dioxide, total [Moles/volume] in Serum or Plasma</td><td>23.7</td><td>22 - 32</td><td>mmol/L</td></tr><tr><td>Ketones [Presence] in Urine by Test strip</td><td>Urine ketone test = +</td><td></td><td></td></tr><tr><td>Hemoglobin A1c/Hemoglobin.total in Blood</td><td><strong>2.9 L</strong></td><td>4 - 6</td><td>%</td></tr><tr><td>Glucose [Mass/volume] in Blood</td><td>72.1</td><td>70 - 100</td><td>mg/dL</td></tr><tr><td>Urea nitrogen [Mass/volume] in Blood</td><td>7.3</td><td>7 - 20</td><td>mg/dL</td></tr><tr><td>Creatinine [Mass/volume] in Blood</td><td>1.3</td><td>0.6 - 1.3</td><td>mg/dL</td></tr><tr><td>Calcium [Mass/volume] in Blood</td><td>9.1</td><td>8.6 - 10.4</td><td>mg/dL</td></tr><tr><td>Sodium [Moles/volume] in Blood</td><td>140.8</td><td>135 - 145</td><td>mmol/L</td></tr><tr><td>Potassium [Moles/volume] in Blood</td><td>4.1</td><td>3.5 - 5.1</td><td>mmol/L</td></tr><tr><td>Chloride [Moles/volume] in Blood</td><td>107.7</td><td>98 - 110</td><td>mmol/L</td></tr><tr><td>Carbon dioxide, total [Moles/volume] in Blood</td><td>23.7</td><td>22 - 29</td><td>mmol/L</td></tr></tbody></table></div>"
                },
                "title": "Chemistry"
              },
              {
                "code": {
                  "coding": [
                    {
                      "code": "$18729-4",
                      "system": "http://loinc.org",
                      "display": "Urinalysis studies (set)"
                    }
                  ],
                  "text": "Urinalysis"
                },
                "entry": [
                  {
                    "reference": "urn:uuid:1c8a209c-52bb-4d11-b8ae-0127bc0423e8"
                  },
                  {
                    "reference": "urn:uuid:c704f62f-edf1-45b3-85b5-4f4ccedadeda"
                  },
                  {
                    "reference": "urn:uuid:d35d3444-9aa1-4ead-81ce-edb0f99d493a"
                  },
                  {
                    "reference": "urn:uuid:b4a88626-a53e-433d-842e-7fb8cb2f41d8"
                  },
                  {
                    "reference": "urn:uuid:0279da78-7c56-445c-a65c-86ca9898d6fe"
                  },
                  {
                    "reference": "urn:uuid:b33dc263-a9ed-46aa-8337-25980e27c00f"
                  },
                  {
                    "reference": "urn:uuid:4aeb1b8f-2dc4-45e8-acd2-85cb9d854521"
                  },
                  {
                    "reference": "urn:uuid:b947b290-8212-4486-ac89-9484c8b53f75"
                  },
                  {
                    "reference": "urn:uuid:265abfb9-78ba-456d-bf7e-fb317fd051ca"
                  },
                  {
                    "reference": "urn:uuid:bedd81fd-d199-40ce-9102-708017210d41"
                  },
                  {
                    "reference": "urn:uuid:748bfd18-0c77-48b4-b459-f56d3f84d289"
                  },
                  {
                    "reference": "urn:uuid:1dd9048a-0de2-4256-b498-c4ad01017d0f"
                  }
                ],
                "text": {
                  "status": "generated",
                  "div": "<div xmlns=\"http://www.w3.org/1999/xhtml\"><h3>Urinalysis</h3><table class=\"hl7__eu__lab__report\"><thead><tr><th>Test</th><th>22-AUG-2019</th><th>Reference&#xA0;Range</th><th>Unit</th></tr></thead><tbody><tr><td>Glucose [Mass/volume] in Urine by Test strip</td><td><strong>1.0 H</strong></td><td>0 - 0</td><td>mg/dL</td></tr><tr><td>Glucose [Presence] in Urine by Test strip</td><td>++</td><td></td><td></td></tr><tr><td>Bilirubin.total [Mass/volume] in Urine by Test strip</td><td>0.8</td><td>0 - 1.6</td><td>mg/dL</td></tr><tr><td>Bilirubin.total [Presence] in Urine by Test strip</td><td>Finding of bilirubin in urine</td><td></td><td></td></tr><tr><td>Ketones [Mass/volume] in Urine by Test strip</td><td><strong>11.5 H</strong></td><td>0 - 0.5</td><td>mg/dL</td></tr><tr><td>Specific gravity of Urine by Test strip</td><td><strong>1.0 L</strong></td><td>1.005 - 1.03</td><td>{nominal}</td></tr><tr><td>pH of Urine by Test strip</td><td>6.8</td><td>4.5 - 7.5</td><td>pH</td></tr><tr><td>Protein [Mass/volume] in Urine by Test strip</td><td><strong>188.7 H</strong></td><td>0 - 15</td><td>mg/dL</td></tr><tr><td>Protein [Presence] in Urine by Test strip</td><td>Urine protein test = ++</td><td></td><td></td></tr><tr><td>Nitrite [Presence] in Urine by Test strip</td><td>Urine nitrite negative</td><td></td><td></td></tr><tr><td>Hemoglobin [Presence] in Urine by Test strip</td><td>Urine blood test = negative</td><td></td><td></td></tr><tr><td>Leukocyte esterase [Presence] in Urine by Test strip</td><td>Urine leukocyte test negative</td><td></td><td></td></tr></tbody></table></div>"
                },
                "title": "Urinalysis"
              },
              {
                "code": {
                  "coding": [
                    {
                      "code": "$LP7846-1",
                      "system": "http://loinc.org",
                      "display": "Specimen information"
                    }
                  ],
                  "text": "Specimen information"
                },
                "entry": [
                  {
                    "reference": "urn:uuid:bbbcb137-7de8-4d84-90e8-5ae1f41bc650"
                  },
                  {
                    "reference": "urn:uuid:94552d61-4b19-4105-95f3-f1a7c2756c3f"
                  },
                  {
                    "reference": "urn:uuid:e7e91881-d377-488b-8f20-da13f18b4e9b"
                  },
                  {
                    "reference": "urn:uuid:90532d10-16c7-4ed5-aa21-816491a06d33"
                  }
                ],
                "text": {
                  "status": "generated",
                  "div": "<div xmlns=\"http://www.w3.org/1999/xhtml\"><h3>Specimen information</h3><table class=\"hl7__eu__lab__report\"><thead><tr><th>Test</th><th>22-AUG-2019</th><th>Specimen</th><th></th></tr></thead><tbody><tr><td>Appearance of Urine</td><td>Cloudy urine</td><td>Urine</td><td></td></tr><tr><td>Odor of Urine</td><td>Urine smell ammoniacal</td><td>Urine</td><td></td></tr><tr><td>Clarity of Urine</td><td>Translucent</td><td>Urine</td><td></td></tr><tr><td>Color of Urine</td><td>Brown color</td><td>Urine</td><td></td></tr></tbody></table></div>"
                },
                "title": "Specimen information"
              }
            ],
            "title": "Laboratory Report"
          },
          {
            "text": {
              "status": "generated",
              "div": "<div xmlns=\"http://www.w3.org/1999/xhtml\"><h3>Annotation</h3><table class=\"hl7__eu__lab__report\"><tr><th>Conclusion and Recommendations based on this report and previous findings known to us</th></tr><tr><td>The patient shows elevated serum creatinine, significant proteinuria, glucosuria, and ketonuria, with low urine specific gravity and abnormal urine appearance (cloudy, brown, ammoniacal). HbA1c is low, and blood glucose is at the lower end of normal. These findings suggest possible renal impairment with protein loss, and abnormal glucose/ketone handling, possibly due to acute or chronic kidney disease and/or metabolic disturbance. Further nephrological and metabolic evaluation is recommended.</td></tr></table></div>"
            },
            "code": {
              "coding": [
                {
                  "system": "http://loinc.org",
                  "code": "48767-8",
                  "display": "Annotation comment"
                }
              ]
            },
            "title": "Annotation comment"
          }
        ],
        "status": "final",
        "subject": {
          "reference": "urn:uuid:33caa729-6820-4140-b771-82b9ef5e9f58",
          "display": "Molly Jenkins"
        },
        "date": "2019-08-22T16:42:11Z",
        "title": "Laboratory Report",
        "confidentiality": "N"
      }
    },
    {
      "fullUrl": "urn:uuid:d8b9071d-2daf-4bc6-b6e9-0e83d5257629",
      "resource": {
        "resourceType": "DiagnosticReport",
        "id": "d8b9071d-2daf-4bc6-b6e9-0e83d5257629",
        "meta": {
          "profile": [
            "http://hl7.eu/fhir/laboratory/StructureDefinition/DiagnosticReport-eu-lab"
          ]
        },
        "identifier": [
          {
            "assigner": {
              "display": "HL7 Europe"
            },
            "system": "urn:oid:2.16.840.1.113883.2.51.999",
            "value": "75538ae5-b507-4e81-b0ba-fc90dbaff8c6"
          }
        ],
        "extension": [
          {
            "url": "http://hl7.org/fhir/5.0/StructureDefinition/extension-DiagnosticReport.composition",
            "valueReference": {
              "reference": "urn:uuid:6b2034f1-1fd2-41da-a80d-7aee94b9ec35"
            }
          }
        ],
        "category": [
          {
            "coding": [
              {
                "code": "26436-6",
                "system": "http://loinc.org",
                "display": "Laboratory studies (set)"
              }
            ]
          }
        ],
        "specimen": [
          {
            "reference": "urn:uuid:5b88ccaa-3e99-41e8-880d-0e75ce9399b5"
          },
          {
            "reference": "urn:uuid:cf4e294d-4a53-4a35-afc7-1f9066dcab54"
          },
          {
            "reference": "urn:uuid:5369f896-d657-47b3-93da-323c37e4d93b"
          }
        ],
        "result": [
          {
            "reference": "urn:uuid:844dffd5-8151-4c8d-827f-e5c53f4d5a07"
          },
          {
            "reference": "urn:uuid:26926d88-8be9-4b40-a9d4-abcecea5ec0a"
          },
          {
            "reference": "urn:uuid:9b26a603-1c68-4e2e-9c71-c5aaee4b315c"
          },
          {
            "reference": "urn:uuid:ce24b065-ef96-4d7c-ac68-91187cbab2a9"
          },
          {
            "reference": "urn:uuid:e9269fd5-b507-43c2-9953-4f62131f25af"
          },
          {
            "reference": "urn:uuid:1e35074b-9ec6-4828-b127-1d321204de39"
          },
          {
            "reference": "urn:uuid:edd4ea04-1fae-4ac9-bad8-4b3968264663"
          },
          {
            "reference": "urn:uuid:e09670d1-d2ae-4306-a55c-0012f9bed1e2"
          },
          {
            "reference": "urn:uuid:bbbcb137-7de8-4d84-90e8-5ae1f41bc650"
          },
          {
            "reference": "urn:uuid:94552d61-4b19-4105-95f3-f1a7c2756c3f"
          },
          {
            "reference": "urn:uuid:e7e91881-d377-488b-8f20-da13f18b4e9b"
          },
          {
            "reference": "urn:uuid:90532d10-16c7-4ed5-aa21-816491a06d33"
          },
          {
            "reference": "urn:uuid:1c8a209c-52bb-4d11-b8ae-0127bc0423e8"
          },
          {
            "reference": "urn:uuid:c704f62f-edf1-45b3-85b5-4f4ccedadeda"
          },
          {
            "reference": "urn:uuid:d35d3444-9aa1-4ead-81ce-edb0f99d493a"
          },
          {
            "reference": "urn:uuid:b4a88626-a53e-433d-842e-7fb8cb2f41d8"
          },
          {
            "reference": "urn:uuid:0279da78-7c56-445c-a65c-86ca9898d6fe"
          },
          {
            "reference": "urn:uuid:9ce355ca-5e99-417b-9cdc-e261e2e8e9d6"
          },
          {
            "reference": "urn:uuid:b33dc263-a9ed-46aa-8337-25980e27c00f"
          },
          {
            "reference": "urn:uuid:4aeb1b8f-2dc4-45e8-acd2-85cb9d854521"
          },
          {
            "reference": "urn:uuid:b947b290-8212-4486-ac89-9484c8b53f75"
          },
          {
            "reference": "urn:uuid:265abfb9-78ba-456d-bf7e-fb317fd051ca"
          },
          {
            "reference": "urn:uuid:bedd81fd-d199-40ce-9102-708017210d41"
          },
          {
            "reference": "urn:uuid:748bfd18-0c77-48b4-b459-f56d3f84d289"
          },
          {
            "reference": "urn:uuid:1dd9048a-0de2-4256-b498-c4ad01017d0f"
          },
          {
            "reference": "urn:uuid:7190f1be-e9b1-4361-b32c-cdcc07b11d4a"
          },
          {
            "reference": "urn:uuid:4720e465-5eb2-4f84-8c68-9ea22ac31f5c"
          },
          {
            "reference": "urn:uuid:574d89ed-a060-45b1-9b7e-36f49ebc8a33"
          },
          {
            "reference": "urn:uuid:8dc726c0-b336-4007-92c3-7bfb70a5c881"
          },
          {
            "reference": "urn:uuid:5233f70c-1d6b-4a0f-a36a-ab6e5fcd3686"
          },
          {
            "reference": "urn:uuid:17e9d59c-cfbf-49be-9d11-efa8011be30d"
          },
          {
            "reference": "urn:uuid:3193f2a0-ad61-4e62-9705-64f1723297bd"
          },
          {
            "reference": "urn:uuid:a7a144da-112d-4170-a97d-a95d3ef7145d"
          },
          {
            "reference": "urn:uuid:5b42301e-ef7f-4aea-b09f-63315197173c"
          }
        ],
        "status": "registered",
        "code": {
          "coding": [
            {
              "code": "11502-2",
              "system": "http://loinc.org",
              "display": "Laboratory report"
            }
          ]
        },
        "subject": {
          "reference": "urn:uuid:33caa729-6820-4140-b771-82b9ef5e9f58",
          "display": "Molly Jenkins"
        }
      }
    },
    {
      "fullUrl": "urn:uuid:33caa729-6820-4140-b771-82b9ef5e9f58",
      "resource": {
        "resourceType": "Patient",
        "id": "33caa729-6820-4140-b771-82b9ef5e9f58",
        "meta": {
          "security": [
            {
              "system": "http://terminology.hl7.org/CodeSystem/v3-ActReason",
              "code": "HTEST"
            },
            {
              "system": "http://terminology.hl7.org/CodeSystem/v3-ActReason",
              "code": "TRAIN"
            }
          ],
          "tag": [
            {
              "system": "https://synderai.net/fhir/CodeSystem/tags",
              "code": "synthetic",
              "display": "SYNDERAI Synthetic data"
            }
          ],
          "profile": [
            "http://hl7.eu/fhir/base/StructureDefinition/patient-eu-core"
          ]
        },
        "identifier": [
          {
            "type": {
              "coding": [
                {
                  "code": "PT",
                  "system": "http://terminology.hl7.org/CodeSystem/v2-0203"
                }
              ]
            },
            "system": "http://ec.europa.eu/identifier/eci",
            "value": "7634-012682-0"
          },
          {
            "type": {
              "coding": [
                {
                  "code": "MR",
                  "system": "http://terminology.hl7.org/CodeSystem/v2-0203"
                }
              ]
            },
            "system": "http://local.setting.eu/identifier",
            "value": "9934a8eb-b6e1-34e1-edf5-57a0262d1bea"
          }
        ],
        "name": [
          {
            "family": "Jenkins"
          },
          {
            "given": [
              "Molly"
            ]
          },
          {
            "text": "Molly Jenkins"
          }
        ],
        "address": [
          {
            "line": [
              "98 Ali field"
            ],
            "use": "home",
            "type": "physical",
            "postalCode": "AB42",
            "city": "Port Jennamouth",
            "country": "United Kingdom"
          }
        ],
        "telecom": [
          {
            "system": "phone",
            "value": "(0118) 496 0334"
          }
        ],
        "extension": [
          {
            "url": "http://hl7.org/fhir/StructureDefinition/patient-nationality",
            "valueCodeableConcept": {
              "coding": [
                {
                  "code": "GB",
                  "system": "http://hl7.org/fhir/ValueSet/country"
                }
              ]
            }
          }
        ],
        "text": {
          "status": "generated",
          "div": "<div xmlns=\"http://www.w3.org/1999/xhtml\"><table class=\"hl7__ips\"><tr><td>Molly Jenkins</td><td>female</td><td>14-Aug-1967</td></tr></table></div>"
        },
        "gender": "female",
        "birthDate": "1967-08-14"
      }
    },
    {
      "fullUrl": "urn:uuid:6cdf92a3-0b6b-4605-b5c7-ef6136ee1f0b",
      "resource": {
        "resourceType": "ServiceRequest",
        "id": "6cdf92a3-0b6b-4605-b5c7-ef6136ee1f0b",
        "meta": {
          "profile": [
            "http://hl7.eu/fhir/laboratory/StructureDefinition/ServiceRequest-eu-lab"
          ]
        },
        "identifier": [
          {
            "system": "http://example.org",
            "value": "683a06c0-fd40-4e82-a0ff-70b181afa104"
          }
        ],
        "specimen": [
          {
            "reference": "urn:uuid:5b88ccaa-3e99-41e8-880d-0e75ce9399b5"
          },
          {
            "reference": "urn:uuid:cf4e294d-4a53-4a35-afc7-1f9066dcab54"
          },
          {
            "reference": "urn:uuid:5369f896-d657-47b3-93da-323c37e4d93b"
          }
        ],
        "reasonCode": [
          {
            "coding": [
              {
                "code": "431856006",
                "system": "http://snomed.info/sct",
                "display": "Chronic kidney disease stage 2"
              }
            ]
          },
          {
            "coding": [
              {
                "code": "90781000119102",
                "system": "http://snomed.info/sct",
                "display": "Microalbuminuria due to type 2 diabetes mellitus"
              }
            ]
          },
          {
            "coding": [
              {
                "code": "127013003",
                "system": "http://snomed.info/sct",
                "display": "Disorder of kidney due to diabetes mellitus"
              }
            ]
          },
          {
            "coding": [
              {
                "code": "431855005",
                "system": "http://snomed.info/sct",
                "display": "Chronic kidney disease stage 1"
              }
            ]
          },
          {
            "coding": [
              {
                "code": "15777000",
                "system": "http://snomed.info/sct",
                "display": "Prediabetes"
              }
            ]
          },
          {
            "coding": [
              {
                "code": "59621000",
                "system": "http://snomed.info/sct",
                "display": "Essential hypertension"
              }
            ]
          },
          {
            "coding": [
              {
                "code": "53827007",
                "system": "http://snomed.info/sct",
                "display": "Excessive salivation"
              }
            ]
          },
          {
            "coding": [
              {
                "code": "64859006",
                "system": "http://snomed.info/sct",
                "display": "Osteoporosis"
              }
            ]
          },
          {
            "coding": [
              {
                "code": "128188000",
                "system": "http://snomed.info/sct",
                "display": "Cerebral palsy"
              }
            ]
          },
          {
            "coding": [
              {
                "code": "235595009",
                "system": "http://snomed.info/sct",
                "display": "Gastroesophageal reflux disease"
              }
            ]
          }
        ],
        "status": "active",
        "intent": "order",
        "code": {
          "coding": [
            {
              "code": "108252007",
              "system": "http://snomed.info/sct",
              "display": "Laboratory procedure"
            }
          ]
        },
        "subject": {
          "reference": "urn:uuid:33caa729-6820-4140-b771-82b9ef5e9f58",
          "display": "Molly Jenkins"
        },
        "requester": {
          "reference": "urn:uuid:0ef12df7-fd6a-4f8a-8447-f660d8f4207c"
        }
      }
    },
    {
      "fullUrl": "urn:uuid:0ef12df7-fd6a-4f8a-8447-f660d8f4207c",
      "resource": {
        "resourceType": "PractitionerRole",
        "id": "0ef12df7-fd6a-4f8a-8447-f660d8f4207c",
        "meta": {
          "profile": [
            "http://hl7.eu/fhir/base/StructureDefinition/practitionerRole-eu"
          ]
        },
        "text": {
          "status": "generated",
          "div": "<div xmlns=\"http://www.w3.org/1999/xhtml\">Provider Role Id: 0ef12df7-fd6a-4f8a-8447-f660d8f4207c</div>"
        },
        "organization": {
          "reference": "urn:uuid:61fa10ad-f90e-4c6d-8fee-d78d7119df64"
        }
      }
    },
    {
      "fullUrl": "urn:uuid:61fa10ad-f90e-4c6d-8fee-d78d7119df64",
      "resource": {
        "resourceType": "Organization",
        "id": "61fa10ad-f90e-4c6d-8fee-d78d7119df64",
        "meta": {
          "profile": [
            "http://hl7.eu/fhir/base/StructureDefinition/organization-eu"
          ]
        },
        "identifier": [
          {
            "assigner": {
              "display": "HL7 Europe"
            },
            "system": "urn:oid:2.16.840.1.113883.2.51.999",
            "value": "201ceb78-e961-4d04-98d1-7b28fcecb873"
          }
        ],
        "address": [
          {
            "city": "Aberdeen",
            "postalCode": "AB11 6",
            "country": "United Kingdom"
          }
        ],
        "text": {
          "status": "generated",
          "div": "<div xmlns=\"http://www.w3.org/1999/xhtml\">Provider Organization: Aberdeen Community Health and Care Village</div>"
        },
        "name": "Aberdeen Community Health and Care Village"
      }
    },
    {
      "fullUrl": "urn:uuid:5b88ccaa-3e99-41e8-880d-0e75ce9399b5",
      "resource": {
        "resourceType": "Specimen",
        "id": "5b88ccaa-3e99-41e8-880d-0e75ce9399b5",
        "meta": {
          "profile": [
            "http://hl7.eu/fhir/laboratory/StructureDefinition/Specimen-eu-lab"
          ]
        },
        "collection": {
          "collectedDateTime": "2019-08-22"
        },
        "text": {
          "status": "generated",
          "div": "<div xmlns=\"http://www.w3.org/1999/xhtml\"><table class=\"hl7__eu__lab__report\"><tr><th>Specimen</th><th>Collection Date</th></tr><tr><td>Acellular blood (serum or plasma) specimen</td><td><span class=\"nb\">22-Aug-2019</span></td></tr></table></div>"
        },
        "type": {
          "coding": [
            {
              "code": "122592007",
              "system": "http://snomed.info/sct",
              "display": "Acellular blood (serum or plasma) specimen"
            }
          ]
        }
      }
    },
    {
      "fullUrl": "urn:uuid:cf4e294d-4a53-4a35-afc7-1f9066dcab54",
      "resource": {
        "resourceType": "Specimen",
        "id": "cf4e294d-4a53-4a35-afc7-1f9066dcab54",
        "meta": {
          "profile": [
            "http://hl7.eu/fhir/laboratory/StructureDefinition/Specimen-eu-lab"
          ]
        },
        "collection": {
          "collectedDateTime": "2019-08-22"
        },
        "text": {
          "status": "generated",
          "div": "<div xmlns=\"http://www.w3.org/1999/xhtml\"><table class=\"hl7__eu__lab__report\"><tr><th>Specimen</th><th>Collection Date</th></tr><tr><td>Urine specimen</td><td><span class=\"nb\">22-Aug-2019</span></td></tr></table></div>"
        },
        "type": {
          "coding": [
            {
              "code": "122575003",
              "system": "http://snomed.info/sct",
              "display": "Urine specimen"
            }
          ]
        }
      }
    },
    {
      "fullUrl": "urn:uuid:5369f896-d657-47b3-93da-323c37e4d93b",
      "resource": {
        "resourceType": "Specimen",
        "id": "5369f896-d657-47b3-93da-323c37e4d93b",
        "meta": {
          "profile": [
            "http://hl7.eu/fhir/laboratory/StructureDefinition/Specimen-eu-lab"
          ]
        },
        "collection": {
          "collectedDateTime": "2019-08-22"
        },
        "text": {
          "status": "generated",
          "div": "<div xmlns=\"http://www.w3.org/1999/xhtml\"><table class=\"hl7__eu__lab__report\"><tr><th>Specimen</th><th>Collection Date</th></tr><tr><td>Whole blood specimen (specimen)</td><td><span class=\"nb\">22-Aug-2019</span></td></tr></table></div>"
        },
        "type": {
          "coding": [
            {
              "code": "258580003",
              "system": "http://snomed.info/sct",
              "display": "Whole blood specimen (specimen)"
            }
          ]
        }
      }
    },
    {
      "fullUrl": "urn:uuid:844dffd5-8151-4c8d-827f-e5c53f4d5a07",
      "resource": {
        "resourceType": "Observation",
        "id": "844dffd5-8151-4c8d-827f-e5c53f4d5a07",
        "meta": {
          "profile": [
            "http://hl7.eu/fhir/laboratory/StructureDefinition/Observation-resultslab-eu-lab"
          ]
        },
        "performer": [
          {
            "display": "The Central European Lab"
          }
        ],
        "category": [
          {
            "coding": [
              {
                "system": "http://terminology.hl7.org/CodeSystem/observation-category",
                "code": "laboratory"
              }
            ]
          }
        ],
        "code": {
          "coding": [
            {
              "code": "2345-7",
              "system": "http://loinc.org",
              "display": "Glucose [Mass/volume] in Serum or Plasma"
            }
          ],
          "text": "Glucose [Mass/volume] in Serum or Plasma"
        },
        "valueQuantity": {
          "system": "http://unitsofmeasure.org",
          "value": 72.1,
          "unit": "mg/dL",
          "code": "mg/dL"
        },
        "referenceRange": [
          {
            "low": {
              "value": 70,
              "code": "mg/dL",
              "system": "http://unitsofmeasure.org"
            }
          },
          {
            "high": {
              "value": 139,
              "code": "mg/dL",
              "system": "http://unitsofmeasure.org"
            }
          }
        ],
        "text": {
          "status": "generated",
          "div": "<div xmlns=\"http://www.w3.org/1999/xhtml\"><table class=\"hl7__eu__lab__report\"><tr><th>Test</th><th>22-Aug-2019</th><th>Reference&#xA0;Range</th><th>Unit</th></tr><tr><td>Glucose [Mass/volume] in Serum or Plasma</td><td>72.1</td><td>70 - 139</td><td></td><td>mg/dL</td></tr></table></div>"
        },
        "status": "final",
        "subject": {
          "reference": "urn:uuid:33caa729-6820-4140-b771-82b9ef5e9f58",
          "display": "Molly Jenkins"
        },
        "effectiveDateTime": "2019-08-22T14:42:11Z",
        "specimen": {
          "reference": "urn:uuid:5b88ccaa-3e99-41e8-880d-0e75ce9399b5"
        }
      }
    },
    {
      "fullUrl": "urn:uuid:26926d88-8be9-4b40-a9d4-abcecea5ec0a",
      "resource": {
        "resourceType": "Observation",
        "id": "26926d88-8be9-4b40-a9d4-abcecea5ec0a",
        "meta": {
          "profile": [
            "http://hl7.eu/fhir/laboratory/StructureDefinition/Observation-resultslab-eu-lab"
          ]
        },
        "performer": [
          {
            "display": "The Central European Lab"
          }
        ],
        "category": [
          {
            "coding": [
              {
                "system": "http://terminology.hl7.org/CodeSystem/observation-category",
                "code": "laboratory"
              }
            ]
          }
        ],
        "code": {
          "coding": [
            {
              "code": "3094-0",
              "system": "http://loinc.org",
              "display": "Urea nitrogen [Mass/volume] in Serum or Plasma"
            }
          ],
          "text": "Urea nitrogen [Mass/volume] in Serum or Plasma"
        },
        "valueQuantity": {
          "system": "http://unitsofmeasure.org",
          "value": 7.3,
          "unit": "mg/dL",
          "code": "mg/dL"
        },
        "referenceRange": [
          {
            "low": {
              "value": 7,
              "code": "mg/dL",
              "system": "http://unitsofmeasure.org"
            }
          },
          {
            "high": {
              "value": 20,
              "code": "mg/dL",
              "system": "http://unitsofmeasure.org"
            }
          }
        ],
        "text": {
          "status": "generated",
          "div": "<div xmlns=\"http://www.w3.org/1999/xhtml\"><table class=\"hl7__eu__lab__report\"><tr><th>Test</th><th>22-Aug-2019</th><th>Reference&#xA0;Range</th><th>Unit</th></tr><tr><td>Urea nitrogen [Mass/volume] in Serum or Plasma</td><td>7.3</td><td>7 - 20</td><td></td><td>mg/dL</td></tr></table></div>"
        },
        "status": "final",
        "subject": {
          "reference": "urn:uuid:33caa729-6820-4140-b771-82b9ef5e9f58",
          "display": "Molly Jenkins"
        },
        "effectiveDateTime": "2019-08-22T14:42:11Z",
        "specimen": {
          "reference": "urn:uuid:5b88ccaa-3e99-41e8-880d-0e75ce9399b5"
        }
      }
    },
    {
      "fullUrl": "urn:uuid:9b26a603-1c68-4e2e-9c71-c5aaee4b315c",
      "resource": {
        "resourceType": "Observation",
        "id": "9b26a603-1c68-4e2e-9c71-c5aaee4b315c",
        "meta": {
          "profile": [
            "http://hl7.eu/fhir/laboratory/StructureDefinition/Observation-resultslab-eu-lab"
          ]
        },
        "performer": [
          {
            "display": "The Central European Lab"
          }
        ],
        "category": [
          {
            "coding": [
              {
                "system": "http://terminology.hl7.org/CodeSystem/observation-category",
                "code": "laboratory"
              }
            ]
          }
        ],
        "code": {
          "coding": [
            {
              "code": "2160-0",
              "system": "http://loinc.org",
              "display": "Creatinine [Mass/volume] in Serum or Plasma"
            }
          ],
          "text": "Creatinine [Mass/volume] in Serum or Plasma"
        },
        "valueQuantity": {
          "system": "http://unitsofmeasure.org",
          "value": 1.9,
          "unit": "mg/dL",
          "code": "mg/dL"
        },
        "referenceRange": [
          {
            "low": {
              "value": 0.6,
              "code": "mg/dL",
              "system": "http://unitsofmeasure.org"
            }
          },
          {
            "high": {
              "value": 1.1,
              "code": "mg/dL",
              "system": "http://unitsofmeasure.org"
            }
          }
        ],
        "interpretation": [
          {
            "coding": [
              {
                "code": "H",
                "system": "http://terminology.hl7.org/CodeSystem/v3-ObservationInterpretation",
                "display": "High"
              }
            ]
          }
        ],
        "text": {
          "status": "generated",
          "div": "<div xmlns=\"http://www.w3.org/1999/xhtml\"><table class=\"hl7__eu__lab__report\"><tr><th>Test</th><th>22-Aug-2019</th><th>Reference&#xA0;Range</th><th>Unit</th></tr><tr><td>Creatinine [Mass/volume] in Serum or Plasma</td><td>1.9</td><td>0.6 - 1.1</td><td>H</td><td>mg/dL</td></tr></table></div>"
        },
        "status": "final",
        "subject": {
          "reference": "urn:uuid:33caa729-6820-4140-b771-82b9ef5e9f58",
          "display": "Molly Jenkins"
        },
        "effectiveDateTime": "2019-08-22T14:42:11Z",
        "specimen": {
          "reference": "urn:uuid:5b88ccaa-3e99-41e8-880d-0e75ce9399b5"
        }
      }
    },
    {
      "fullUrl": "urn:uuid:ce24b065-ef96-4d7c-ac68-91187cbab2a9",
      "resource": {
        "resourceType": "Observation",
        "id": "ce24b065-ef96-4d7c-ac68-91187cbab2a9",
        "meta": {
          "profile": [
            "http://hl7.eu/fhir/laboratory/StructureDefinition/Observation-resultslab-eu-lab"
          ]
        },
        "performer": [
          {
            "display": "The Central European Lab"
          }
        ],
        "category": [
          {
            "coding": [
              {
                "system": "http://terminology.hl7.org/CodeSystem/observation-category",
                "code": "laboratory"
              }
            ]
          }
        ],
        "code": {
          "coding": [
            {
              "code": "17861-6",
              "system": "http://loinc.org",
              "display": "Calcium [Mass/volume] in Serum or Plasma"
            }
          ],
          "text": "Calcium [Mass/volume] in Serum or Plasma"
        },
        "valueQuantity": {
          "system": "http://unitsofmeasure.org",
          "value": 9.1,
          "unit": "mg/dL",
          "code": "mg/dL"
        },
        "referenceRange": [
          {
            "low": {
              "value": 8.5,
              "code": "mg/dL",
              "system": "http://unitsofmeasure.org"
            }
          },
          {
            "high": {
              "value": 10.4,
              "code": "mg/dL",
              "system": "http://unitsofmeasure.org"
            }
          }
        ],
        "text": {
          "status": "generated",
          "div": "<div xmlns=\"http://www.w3.org/1999/xhtml\"><table class=\"hl7__eu__lab__report\"><tr><th>Test</th><th>22-Aug-2019</th><th>Reference&#xA0;Range</th><th>Unit</th></tr><tr><td>Calcium [Mass/volume] in Serum or Plasma</td><td>9.1</td><td>8.5 - 10.4</td><td></td><td>mg/dL</td></tr></table></div>"
        },
        "status": "final",
        "subject": {
          "reference": "urn:uuid:33caa729-6820-4140-b771-82b9ef5e9f58",
          "display": "Molly Jenkins"
        },
        "effectiveDateTime": "2019-08-22T14:42:11Z",
        "specimen": {
          "reference": "urn:uuid:5b88ccaa-3e99-41e8-880d-0e75ce9399b5"
        }
      }
    },
    {
      "fullUrl": "urn:uuid:e9269fd5-b507-43c2-9953-4f62131f25af",
      "resource": {
        "resourceType": "Observation",
        "id": "e9269fd5-b507-43c2-9953-4f62131f25af",
        "meta": {
          "profile": [
            "http://hl7.eu/fhir/laboratory/StructureDefinition/Observation-resultslab-eu-lab"
          ]
        },
        "performer": [
          {
            "display": "The Central European Lab"
          }
        ],
        "category": [
          {
            "coding": [
              {
                "system": "http://terminology.hl7.org/CodeSystem/observation-category",
                "code": "laboratory"
              }
            ]
          }
        ],
        "code": {
          "coding": [
            {
              "code": "2951-2",
              "system": "http://loinc.org",
              "display": "Sodium [Moles/volume] in Serum or Plasma"
            }
          ],
          "text": "Sodium [Moles/volume] in Serum or Plasma"
        },
        "valueQuantity": {
          "system": "http://unitsofmeasure.org",
          "value": 140.8,
          "unit": "mmol/L",
          "code": "mmol/L"
        },
        "referenceRange": [
          {
            "low": {
              "value": 135,
              "code": "mmol/L",
              "system": "http://unitsofmeasure.org"
            }
          },
          {
            "high": {
              "value": 145,
              "code": "mmol/L",
              "system": "http://unitsofmeasure.org"
            }
          }
        ],
        "text": {
          "status": "generated",
          "div": "<div xmlns=\"http://www.w3.org/1999/xhtml\"><table class=\"hl7__eu__lab__report\"><tr><th>Test</th><th>22-Aug-2019</th><th>Reference&#xA0;Range</th><th>Unit</th></tr><tr><td>Sodium [Moles/volume] in Serum or Plasma</td><td>140.8</td><td>135 - 145</td><td></td><td>mmol/L</td></tr></table></div>"
        },
        "status": "final",
        "subject": {
          "reference": "urn:uuid:33caa729-6820-4140-b771-82b9ef5e9f58",
          "display": "Molly Jenkins"
        },
        "effectiveDateTime": "2019-08-22T14:42:11Z",
        "specimen": {
          "reference": "urn:uuid:5b88ccaa-3e99-41e8-880d-0e75ce9399b5"
        }
      }
    },
    {
      "fullUrl": "urn:uuid:1e35074b-9ec6-4828-b127-1d321204de39",
      "resource": {
        "resourceType": "Observation",
        "id": "1e35074b-9ec6-4828-b127-1d321204de39",
        "meta": {
          "profile": [
            "http://hl7.eu/fhir/laboratory/StructureDefinition/Observation-resultslab-eu-lab"
          ]
        },
        "performer": [
          {
            "display": "The Central European Lab"
          }
        ],
        "category": [
          {
            "coding": [
              {
                "system": "http://terminology.hl7.org/CodeSystem/observation-category",
                "code": "laboratory"
              }
            ]
          }
        ],
        "code": {
          "coding": [
            {
              "code": "2823-3",
              "system": "http://loinc.org",
              "display": "Potassium [Moles/volume] in Serum or Plasma"
            }
          ],
          "text": "Potassium [Moles/volume] in Serum or Plasma"
        },
        "valueQuantity": {
          "system": "http://unitsofmeasure.org",
          "value": 4.1,
          "unit": "mmol/L",
          "code": "mmol/L"
        },
        "referenceRange": [
          {
            "low": {
              "value": 3.5,
              "code": "mmol/L",
              "system": "http://unitsofmeasure.org"
            }
          },
          {
            "high": {
              "value": 5.1,
              "code": "mmol/L",
              "system": "http://unitsofmeasure.org"
            }
          }
        ],
        "text": {
          "status": "generated",
          "div": "<div xmlns=\"http://www.w3.org/1999/xhtml\"><table class=\"hl7__eu__lab__report\"><tr><th>Test</th><th>22-Aug-2019</th><th>Reference&#xA0;Range</th><th>Unit</th></tr><tr><td>Potassium [Moles/volume] in Serum or Plasma</td><td>4.1</td><td>3.5 - 5.1</td><td></td><td>mmol/L</td></tr></table></div>"
        },
        "status": "final",
        "subject": {
          "reference": "urn:uuid:33caa729-6820-4140-b771-82b9ef5e9f58",
          "display": "Molly Jenkins"
        },
        "effectiveDateTime": "2019-08-22T14:42:11Z",
        "specimen": {
          "reference": "urn:uuid:5b88ccaa-3e99-41e8-880d-0e75ce9399b5"
        }
      }
    },
    {
      "fullUrl": "urn:uuid:edd4ea04-1fae-4ac9-bad8-4b3968264663",
      "resource": {
        "resourceType": "Observation",
        "id": "edd4ea04-1fae-4ac9-bad8-4b3968264663",
        "meta": {
          "profile": [
            "http://hl7.eu/fhir/laboratory/StructureDefinition/Observation-resultslab-eu-lab"
          ]
        },
        "performer": [
          {
            "display": "The Central European Lab"
          }
        ],
        "category": [
          {
            "coding": [
              {
                "system": "http://terminology.hl7.org/CodeSystem/observation-category",
                "code": "laboratory"
              }
            ]
          }
        ],
        "code": {
          "coding": [
            {
              "code": "2075-0",
              "system": "http://loinc.org",
              "display": "Chloride [Moles/volume] in Serum or Plasma"
            }
          ],
          "text": "Chloride [Moles/volume] in Serum or Plasma"
        },
        "valueQuantity": {
          "system": "http://unitsofmeasure.org",
          "value": 107.7,
          "unit": "mmol/L",
          "code": "mmol/L"
        },
        "referenceRange": [
          {
            "low": {
              "value": 98,
              "code": "mmol/L",
              "system": "http://unitsofmeasure.org"
            }
          },
          {
            "high": {
              "value": 110,
              "code": "mmol/L",
              "system": "http://unitsofmeasure.org"
            }
          }
        ],
        "text": {
          "status": "generated",
          "div": "<div xmlns=\"http://www.w3.org/1999/xhtml\"><table class=\"hl7__eu__lab__report\"><tr><th>Test</th><th>22-Aug-2019</th><th>Reference&#xA0;Range</th><th>Unit</th></tr><tr><td>Chloride [Moles/volume] in Serum or Plasma</td><td>107.7</td><td>98 - 110</td><td></td><td>mmol/L</td></tr></table></div>"
        },
        "status": "final",
        "subject": {
          "reference": "urn:uuid:33caa729-6820-4140-b771-82b9ef5e9f58",
          "display": "Molly Jenkins"
        },
        "effectiveDateTime": "2019-08-22T14:42:11Z",
        "specimen": {
          "reference": "urn:uuid:5b88ccaa-3e99-41e8-880d-0e75ce9399b5"
        }
      }
    },
    {
      "fullUrl": "urn:uuid:e09670d1-d2ae-4306-a55c-0012f9bed1e2",
      "resource": {
        "resourceType": "Observation",
        "id": "e09670d1-d2ae-4306-a55c-0012f9bed1e2",
        "meta": {
          "profile": [
            "http://hl7.eu/fhir/laboratory/StructureDefinition/Observation-resultslab-eu-lab"
          ]
        },
        "performer": [
          {
            "display": "The Central European Lab"
          }
        ],
        "category": [
          {
            "coding": [
              {
                "system": "http://terminology.hl7.org/CodeSystem/observation-category",
                "code": "laboratory"
              }
            ]
          }
        ],
        "code": {
          "coding": [
            {
              "code": "2028-9",
              "system": "http://loinc.org",
              "display": "Carbon dioxide, total [Moles/volume] in Serum or Plasma"
            }
          ],
          "text": "Carbon dioxide, total [Moles/volume] in Serum or Plasma"
        },
        "valueQuantity": {
          "system": "http://unitsofmeasure.org",
          "value": 23.7,
          "unit": "mmol/L",
          "code": "mmol/L"
        },
        "referenceRange": [
          {
            "low": {
              "value": 22,
              "code": "mmol/L",
              "system": "http://unitsofmeasure.org"
            }
          },
          {
            "high": {
              "value": 32,
              "code": "mmol/L",
              "system": "http://unitsofmeasure.org"
            }
          }
        ],
        "text": {
          "status": "generated",
          "div": "<div xmlns=\"http://www.w3.org/1999/xhtml\"><table class=\"hl7__eu__lab__report\"><tr><th>Test</th><th>22-Aug-2019</th><th>Reference&#xA0;Range</th><th>Unit</th></tr><tr><td>Carbon dioxide, total [Moles/volume] in Serum or Plasma</td><td>23.7</td><td>22 - 32</td><td></td><td>mmol/L</td></tr></table></div>"
        },
        "status": "final",
        "subject": {
          "reference": "urn:uuid:33caa729-6820-4140-b771-82b9ef5e9f58",
          "display": "Molly Jenkins"
        },
        "effectiveDateTime": "2019-08-22T14:42:11Z",
        "specimen": {
          "reference": "urn:uuid:5b88ccaa-3e99-41e8-880d-0e75ce9399b5"
        }
      }
    },
    {
      "fullUrl": "urn:uuid:bbbcb137-7de8-4d84-90e8-5ae1f41bc650",
      "resource": {
        "resourceType": "Observation",
        "id": "bbbcb137-7de8-4d84-90e8-5ae1f41bc650",
        "meta": {
          "profile": [
            "http://hl7.eu/fhir/laboratory/StructureDefinition/Observation-resultslab-eu-lab"
          ]
        },
        "performer": [
          {
            "display": "The Central European Lab"
          }
        ],
        "category": [
          {
            "coding": [
              {
                "system": "http://terminology.hl7.org/CodeSystem/observation-category",
                "code": "laboratory"
              }
            ]
          }
        ],
        "code": {
          "coding": [
            {
              "code": "5767-9",
              "system": "http://loinc.org",
              "display": "Appearance of Urine"
            }
          ],
          "text": "Appearance of Urine"
        },
        "text": {
          "status": "generated",
          "div": "<div xmlns=\"http://www.w3.org/1999/xhtml\"><table class=\"hl7__eu__lab__report\"><tr><th>Test</th><th>22-Aug-2019</th><th>Reference&#xA0;Range</th><th>Unit</th></tr><tr><td>Appearance of Urine</td></tr></table></div>"
        },
        "status": "final",
        "subject": {
          "reference": "urn:uuid:33caa729-6820-4140-b771-82b9ef5e9f58",
          "display": "Molly Jenkins"
        },
        "effectiveDateTime": "2019-08-22T14:42:11Z",
        "specimen": {
          "reference": "urn:uuid:cf4e294d-4a53-4a35-afc7-1f9066dcab54"
        }
      }
    },
    {
      "fullUrl": "urn:uuid:94552d61-4b19-4105-95f3-f1a7c2756c3f",
      "resource": {
        "resourceType": "Observation",
        "id": "94552d61-4b19-4105-95f3-f1a7c2756c3f",
        "meta": {
          "profile": [
            "http://hl7.eu/fhir/laboratory/StructureDefinition/Observation-resultslab-eu-lab"
          ]
        },
        "performer": [
          {
            "display": "The Central European Lab"
          }
        ],
        "category": [
          {
            "coding": [
              {
                "system": "http://terminology.hl7.org/CodeSystem/observation-category",
                "code": "laboratory"
              }
            ]
          }
        ],
        "code": {
          "coding": [
            {
              "code": "34533-0",
              "system": "http://loinc.org",
              "display": "Odor of Urine"
            }
          ],
          "text": "Odor of Urine"
        },
        "text": {
          "status": "generated",
          "div": "<div xmlns=\"http://www.w3.org/1999/xhtml\"><table class=\"hl7__eu__lab__report\"><tr><th>Test</th><th>22-Aug-2019</th><th>Reference&#xA0;Range</th><th>Unit</th></tr><tr><td>Odor of Urine</td></tr></table></div>"
        },
        "status": "final",
        "subject": {
          "reference": "urn:uuid:33caa729-6820-4140-b771-82b9ef5e9f58",
          "display": "Molly Jenkins"
        },
        "effectiveDateTime": "2019-08-22T14:42:11Z",
        "specimen": {
          "reference": "urn:uuid:cf4e294d-4a53-4a35-afc7-1f9066dcab54"
        }
      }
    },
    {
      "fullUrl": "urn:uuid:e7e91881-d377-488b-8f20-da13f18b4e9b",
      "resource": {
        "resourceType": "Observation",
        "id": "e7e91881-d377-488b-8f20-da13f18b4e9b",
        "meta": {
          "profile": [
            "http://hl7.eu/fhir/laboratory/StructureDefinition/Observation-resultslab-eu-lab"
          ]
        },
        "performer": [
          {
            "display": "The Central European Lab"
          }
        ],
        "category": [
          {
            "coding": [
              {
                "system": "http://terminology.hl7.org/CodeSystem/observation-category",
                "code": "laboratory"
              }
            ]
          }
        ],
        "code": {
          "coding": [
            {
              "code": "32167-9",
              "system": "http://loinc.org",
              "display": "Clarity of Urine"
            }
          ],
          "text": "Clarity of Urine"
        },
        "text": {
          "status": "generated",
          "div": "<div xmlns=\"http://www.w3.org/1999/xhtml\"><table class=\"hl7__eu__lab__report\"><tr><th>Test</th><th>22-Aug-2019</th><th>Reference&#xA0;Range</th><th>Unit</th></tr><tr><td>Clarity of Urine</td></tr></table></div>"
        },
        "status": "final",
        "subject": {
          "reference": "urn:uuid:33caa729-6820-4140-b771-82b9ef5e9f58",
          "display": "Molly Jenkins"
        },
        "effectiveDateTime": "2019-08-22T14:42:11Z",
        "specimen": {
          "reference": "urn:uuid:cf4e294d-4a53-4a35-afc7-1f9066dcab54"
        }
      }
    },
    {
      "fullUrl": "urn:uuid:90532d10-16c7-4ed5-aa21-816491a06d33",
      "resource": {
        "resourceType": "Observation",
        "id": "90532d10-16c7-4ed5-aa21-816491a06d33",
        "meta": {
          "profile": [
            "http://hl7.eu/fhir/laboratory/StructureDefinition/Observation-resultslab-eu-lab"
          ]
        },
        "performer": [
          {
            "display": "The Central European Lab"
          }
        ],
        "category": [
          {
            "coding": [
              {
                "system": "http://terminology.hl7.org/CodeSystem/observation-category",
                "code": "laboratory"
              }
            ]
          }
        ],
        "code": {
          "coding": [
            {
              "code": "5778-6",
              "system": "http://loinc.org",
              "display": "Color of Urine"
            }
          ],
          "text": "Color of Urine"
        },
        "text": {
          "status": "generated",
          "div": "<div xmlns=\"http://www.w3.org/1999/xhtml\"><table class=\"hl7__eu__lab__report\"><tr><th>Test</th><th>22-Aug-2019</th><th>Reference&#xA0;Range</th><th>Unit</th></tr><tr><td>Color of Urine</td></tr></table></div>"
        },
        "status": "final",
        "subject": {
          "reference": "urn:uuid:33caa729-6820-4140-b771-82b9ef5e9f58",
          "display": "Molly Jenkins"
        },
        "effectiveDateTime": "2019-08-22T14:42:11Z",
        "specimen": {
          "reference": "urn:uuid:cf4e294d-4a53-4a35-afc7-1f9066dcab54"
        }
      }
    },
    {
      "fullUrl": "urn:uuid:1c8a209c-52bb-4d11-b8ae-0127bc0423e8",
      "resource": {
        "resourceType": "Observation",
        "id": "1c8a209c-52bb-4d11-b8ae-0127bc0423e8",
        "meta": {
          "profile": [
            "http://hl7.eu/fhir/laboratory/StructureDefinition/Observation-resultslab-eu-lab"
          ]
        },
        "performer": [
          {
            "display": "The Central European Lab"
          }
        ],
        "category": [
          {
            "coding": [
              {
                "system": "http://terminology.hl7.org/CodeSystem/observation-category",
                "code": "laboratory"
              }
            ]
          }
        ],
        "code": {
          "coding": [
            {
              "code": "5792-7",
              "system": "http://loinc.org",
              "display": "Glucose [Mass/volume] in Urine by Test strip"
            }
          ],
          "text": "Glucose [Mass/volume] in Urine by Test strip"
        },
        "valueQuantity": {
          "system": "http://unitsofmeasure.org",
          "value": 1,
          "unit": "mg/dL",
          "code": "mg/dL"
        },
        "referenceRange": [
          {
            "low": {
              "value": 0,
              "code": "mg/dL",
              "system": "http://unitsofmeasure.org"
            }
          },
          {
            "high": {
              "value": 0,
              "code": "mg/dL",
              "system": "http://unitsofmeasure.org"
            }
          }
        ],
        "interpretation": [
          {
            "coding": [
              {
                "code": "H",
                "system": "http://terminology.hl7.org/CodeSystem/v3-ObservationInterpretation",
                "display": "High"
              }
            ]
          }
        ],
        "text": {
          "status": "generated",
          "div": "<div xmlns=\"http://www.w3.org/1999/xhtml\"><table class=\"hl7__eu__lab__report\"><tr><th>Test</th><th>22-Aug-2019</th><th>Reference&#xA0;Range</th><th>Unit</th></tr><tr><td>Glucose [Mass/volume] in Urine by Test strip</td><td>1.0</td><td>0 - 0</td><td>H</td><td>mg/dL</td></tr></table></div>"
        },
        "status": "final",
        "subject": {
          "reference": "urn:uuid:33caa729-6820-4140-b771-82b9ef5e9f58",
          "display": "Molly Jenkins"
        },
        "effectiveDateTime": "2019-08-22T14:42:11Z",
        "specimen": {
          "reference": "urn:uuid:cf4e294d-4a53-4a35-afc7-1f9066dcab54"
        }
      }
    },
    {
      "fullUrl": "urn:uuid:c704f62f-edf1-45b3-85b5-4f4ccedadeda",
      "resource": {
        "resourceType": "Observation",
        "id": "c704f62f-edf1-45b3-85b5-4f4ccedadeda",
        "meta": {
          "profile": [
            "http://hl7.eu/fhir/laboratory/StructureDefinition/Observation-resultslab-eu-lab"
          ]
        },
        "performer": [
          {
            "display": "The Central European Lab"
          }
        ],
        "category": [
          {
            "coding": [
              {
                "system": "http://terminology.hl7.org/CodeSystem/observation-category",
                "code": "laboratory"
              }
            ]
          }
        ],
        "code": {
          "coding": [
            {
              "code": "25428-4",
              "system": "http://loinc.org",
              "display": "Glucose [Presence] in Urine by Test strip"
            }
          ],
          "text": "Glucose [Presence] in Urine by Test strip"
        },
        "text": {
          "status": "generated",
          "div": "<div xmlns=\"http://www.w3.org/1999/xhtml\"><table class=\"hl7__eu__lab__report\"><tr><th>Test</th><th>22-Aug-2019</th><th>Reference&#xA0;Range</th><th>Unit</th></tr><tr><td>Glucose [Presence] in Urine by Test strip</td></tr></table></div>"
        },
        "status": "final",
        "subject": {
          "reference": "urn:uuid:33caa729-6820-4140-b771-82b9ef5e9f58",
          "display": "Molly Jenkins"
        },
        "effectiveDateTime": "2019-08-22T14:42:11Z",
        "specimen": {
          "reference": "urn:uuid:cf4e294d-4a53-4a35-afc7-1f9066dcab54"
        }
      }
    },
    {
      "fullUrl": "urn:uuid:d35d3444-9aa1-4ead-81ce-edb0f99d493a",
      "resource": {
        "resourceType": "Observation",
        "id": "d35d3444-9aa1-4ead-81ce-edb0f99d493a",
        "meta": {
          "profile": [
            "http://hl7.eu/fhir/laboratory/StructureDefinition/Observation-resultslab-eu-lab"
          ]
        },
        "performer": [
          {
            "display": "The Central European Lab"
          }
        ],
        "category": [
          {
            "coding": [
              {
                "system": "http://terminology.hl7.org/CodeSystem/observation-category",
                "code": "laboratory"
              }
            ]
          }
        ],
        "code": {
          "coding": [
            {
              "code": "20505-4",
              "system": "http://loinc.org",
              "display": "Bilirubin.total [Mass/volume] in Urine by Test strip"
            }
          ],
          "text": "Bilirubin.total [Mass/volume] in Urine by Test strip"
        },
        "valueQuantity": {
          "system": "http://unitsofmeasure.org",
          "value": 0.8,
          "unit": "mg/dL",
          "code": "mg/dL"
        },
        "referenceRange": [
          {
            "low": {
              "value": 0,
              "code": "mg/dL",
              "system": "http://unitsofmeasure.org"
            }
          },
          {
            "high": {
              "value": 1.6,
              "code": "mg/dL",
              "system": "http://unitsofmeasure.org"
            }
          }
        ],
        "text": {
          "status": "generated",
          "div": "<div xmlns=\"http://www.w3.org/1999/xhtml\"><table class=\"hl7__eu__lab__report\"><tr><th>Test</th><th>22-Aug-2019</th><th>Reference&#xA0;Range</th><th>Unit</th></tr><tr><td>Bilirubin.total [Mass/volume] in Urine by Test strip</td><td>0.8</td><td>0 - 1.6</td><td></td><td>mg/dL</td></tr></table></div>"
        },
        "status": "final",
        "subject": {
          "reference": "urn:uuid:33caa729-6820-4140-b771-82b9ef5e9f58",
          "display": "Molly Jenkins"
        },
        "effectiveDateTime": "2019-08-22T14:42:11Z",
        "specimen": {
          "reference": "urn:uuid:cf4e294d-4a53-4a35-afc7-1f9066dcab54"
        }
      }
    },
    {
      "fullUrl": "urn:uuid:b4a88626-a53e-433d-842e-7fb8cb2f41d8",
      "resource": {
        "resourceType": "Observation",
        "id": "b4a88626-a53e-433d-842e-7fb8cb2f41d8",
        "meta": {
          "profile": [
            "http://hl7.eu/fhir/laboratory/StructureDefinition/Observation-resultslab-eu-lab"
          ]
        },
        "performer": [
          {
            "display": "The Central European Lab"
          }
        ],
        "category": [
          {
            "coding": [
              {
                "system": "http://terminology.hl7.org/CodeSystem/observation-category",
                "code": "laboratory"
              }
            ]
          }
        ],
        "code": {
          "coding": [
            {
              "code": "5770-3",
              "system": "http://loinc.org",
              "display": "Bilirubin.total [Presence] in Urine by Test strip"
            }
          ],
          "text": "Bilirubin.total [Presence] in Urine by Test strip"
        },
        "text": {
          "status": "generated",
          "div": "<div xmlns=\"http://www.w3.org/1999/xhtml\"><table class=\"hl7__eu__lab__report\"><tr><th>Test</th><th>22-Aug-2019</th><th>Reference&#xA0;Range</th><th>Unit</th></tr><tr><td>Bilirubin.total [Presence] in Urine by Test strip</td></tr></table></div>"
        },
        "status": "final",
        "subject": {
          "reference": "urn:uuid:33caa729-6820-4140-b771-82b9ef5e9f58",
          "display": "Molly Jenkins"
        },
        "effectiveDateTime": "2019-08-22T14:42:11Z",
        "specimen": {
          "reference": "urn:uuid:cf4e294d-4a53-4a35-afc7-1f9066dcab54"
        }
      }
    },
    {
      "fullUrl": "urn:uuid:0279da78-7c56-445c-a65c-86ca9898d6fe",
      "resource": {
        "resourceType": "Observation",
        "id": "0279da78-7c56-445c-a65c-86ca9898d6fe",
        "meta": {
          "profile": [
            "http://hl7.eu/fhir/laboratory/StructureDefinition/Observation-resultslab-eu-lab"
          ]
        },
        "performer": [
          {
            "display": "The Central European Lab"
          }
        ],
        "category": [
          {
            "coding": [
              {
                "system": "http://terminology.hl7.org/CodeSystem/observation-category",
                "code": "laboratory"
              }
            ]
          }
        ],
        "code": {
          "coding": [
            {
              "code": "5797-6",
              "system": "http://loinc.org",
              "display": "Ketones [Mass/volume] in Urine by Test strip"
            }
          ],
          "text": "Ketones [Mass/volume] in Urine by Test strip"
        },
        "valueQuantity": {
          "system": "http://unitsofmeasure.org",
          "value": 11.5,
          "unit": "mg/dL",
          "code": "mg/dL"
        },
        "referenceRange": [
          {
            "low": {
              "value": 0,
              "code": "mg/dL",
              "system": "http://unitsofmeasure.org"
            }
          },
          {
            "high": {
              "value": 0.5,
              "code": "mg/dL",
              "system": "http://unitsofmeasure.org"
            }
          }
        ],
        "interpretation": [
          {
            "coding": [
              {
                "code": "H",
                "system": "http://terminology.hl7.org/CodeSystem/v3-ObservationInterpretation",
                "display": "High"
              }
            ]
          }
        ],
        "text": {
          "status": "generated",
          "div": "<div xmlns=\"http://www.w3.org/1999/xhtml\"><table class=\"hl7__eu__lab__report\"><tr><th>Test</th><th>22-Aug-2019</th><th>Reference&#xA0;Range</th><th>Unit</th></tr><tr><td>Ketones [Mass/volume] in Urine by Test strip</td><td>11.5</td><td>0 - 0.5</td><td>H</td><td>mg/dL</td></tr></table></div>"
        },
        "status": "final",
        "subject": {
          "reference": "urn:uuid:33caa729-6820-4140-b771-82b9ef5e9f58",
          "display": "Molly Jenkins"
        },
        "effectiveDateTime": "2019-08-22T14:42:11Z",
        "specimen": {
          "reference": "urn:uuid:cf4e294d-4a53-4a35-afc7-1f9066dcab54"
        }
      }
    },
    {
      "fullUrl": "urn:uuid:9ce355ca-5e99-417b-9cdc-e261e2e8e9d6",
      "resource": {
        "resourceType": "Observation",
        "id": "9ce355ca-5e99-417b-9cdc-e261e2e8e9d6",
        "meta": {
          "profile": [
            "http://hl7.eu/fhir/laboratory/StructureDefinition/Observation-resultslab-eu-lab"
          ]
        },
        "performer": [
          {
            "display": "The Central European Lab"
          }
        ],
        "category": [
          {
            "coding": [
              {
                "system": "http://terminology.hl7.org/CodeSystem/observation-category",
                "code": "laboratory"
              }
            ]
          }
        ],
        "code": {
          "coding": [
            {
              "code": "2514-8",
              "system": "http://loinc.org",
              "display": "Ketones [Presence] in Urine by Test strip"
            }
          ],
          "text": "Ketones [Presence] in Urine by Test strip"
        },
        "text": {
          "status": "generated",
          "div": "<div xmlns=\"http://www.w3.org/1999/xhtml\"><table class=\"hl7__eu__lab__report\"><tr><th>Test</th><th>22-Aug-2019</th><th>Reference&#xA0;Range</th><th>Unit</th></tr><tr><td>Ketones [Presence] in Urine by Test strip</td></tr></table></div>"
        },
        "status": "final",
        "subject": {
          "reference": "urn:uuid:33caa729-6820-4140-b771-82b9ef5e9f58",
          "display": "Molly Jenkins"
        },
        "effectiveDateTime": "2019-08-22T14:42:11Z",
        "specimen": {
          "reference": "urn:uuid:cf4e294d-4a53-4a35-afc7-1f9066dcab54"
        }
      }
    },
    {
      "fullUrl": "urn:uuid:b33dc263-a9ed-46aa-8337-25980e27c00f",
      "resource": {
        "resourceType": "Observation",
        "id": "b33dc263-a9ed-46aa-8337-25980e27c00f",
        "meta": {
          "profile": [
            "http://hl7.eu/fhir/laboratory/StructureDefinition/Observation-resultslab-eu-lab"
          ]
        },
        "performer": [
          {
            "display": "The Central European Lab"
          }
        ],
        "category": [
          {
            "coding": [
              {
                "system": "http://terminology.hl7.org/CodeSystem/observation-category",
                "code": "laboratory"
              }
            ]
          }
        ],
        "code": {
          "coding": [
            {
              "code": "5811-5",
              "system": "http://loinc.org",
              "display": "Specific gravity of Urine by Test strip"
            }
          ],
          "text": "Specific gravity of Urine by Test strip"
        },
        "valueQuantity": {
          "system": "http://unitsofmeasure.org",
          "value": 1,
          "unit": "{nominal}",
          "code": "{nominal}"
        },
        "referenceRange": [
          {
            "low": {
              "value": 1.005,
              "code": "g/mL",
              "system": "http://unitsofmeasure.org"
            }
          },
          {
            "high": {
              "value": 1.03,
              "code": "g/mL",
              "system": "http://unitsofmeasure.org"
            }
          }
        ],
        "interpretation": [
          {
            "coding": [
              {
                "code": "L",
                "system": "http://terminology.hl7.org/CodeSystem/v3-ObservationInterpretation",
                "display": "Low"
              }
            ]
          }
        ],
        "text": {
          "status": "generated",
          "div": "<div xmlns=\"http://www.w3.org/1999/xhtml\"><table class=\"hl7__eu__lab__report\"><tr><th>Test</th><th>22-Aug-2019</th><th>Reference&#xA0;Range</th><th>Unit</th></tr><tr><td>Specific gravity of Urine by Test strip</td><td>1.0</td><td>1.005 - 1.03</td><td>L</td><td>{nominal}</td></tr></table></div>"
        },
        "status": "final",
        "subject": {
          "reference": "urn:uuid:33caa729-6820-4140-b771-82b9ef5e9f58",
          "display": "Molly Jenkins"
        },
        "effectiveDateTime": "2019-08-22T14:42:11Z",
        "specimen": {
          "reference": "urn:uuid:cf4e294d-4a53-4a35-afc7-1f9066dcab54"
        }
      }
    },
    {
      "fullUrl": "urn:uuid:4aeb1b8f-2dc4-45e8-acd2-85cb9d854521",
      "resource": {
        "resourceType": "Observation",
        "id": "4aeb1b8f-2dc4-45e8-acd2-85cb9d854521",
        "meta": {
          "profile": [
            "http://hl7.eu/fhir/laboratory/StructureDefinition/Observation-resultslab-eu-lab"
          ]
        },
        "performer": [
          {
            "display": "The Central European Lab"
          }
        ],
        "category": [
          {
            "coding": [
              {
                "system": "http://terminology.hl7.org/CodeSystem/observation-category",
                "code": "laboratory"
              }
            ]
          }
        ],
        "code": {
          "coding": [
            {
              "code": "5803-2",
              "system": "http://loinc.org",
              "display": "pH of Urine by Test strip"
            }
          ],
          "text": "pH of Urine by Test strip"
        },
        "valueQuantity": {
          "system": "http://unitsofmeasure.org",
          "value": 6.8,
          "unit": "pH",
          "code": "pH"
        },
        "referenceRange": [
          {
            "low": {
              "value": 4.5,
              "code": "pH",
              "system": "http://unitsofmeasure.org"
            }
          },
          {
            "high": {
              "value": 7.5,
              "code": "pH",
              "system": "http://unitsofmeasure.org"
            }
          }
        ],
        "text": {
          "status": "generated",
          "div": "<div xmlns=\"http://www.w3.org/1999/xhtml\"><table class=\"hl7__eu__lab__report\"><tr><th>Test</th><th>22-Aug-2019</th><th>Reference&#xA0;Range</th><th>Unit</th></tr><tr><td>pH of Urine by Test strip</td><td>6.8</td><td>4.5 - 7.5</td><td></td><td>pH</td></tr></table></div>"
        },
        "status": "final",
        "subject": {
          "reference": "urn:uuid:33caa729-6820-4140-b771-82b9ef5e9f58",
          "display": "Molly Jenkins"
        },
        "effectiveDateTime": "2019-08-22T14:42:11Z",
        "specimen": {
          "reference": "urn:uuid:cf4e294d-4a53-4a35-afc7-1f9066dcab54"
        }
      }
    },
    {
      "fullUrl": "urn:uuid:b947b290-8212-4486-ac89-9484c8b53f75",
      "resource": {
        "resourceType": "Observation",
        "id": "b947b290-8212-4486-ac89-9484c8b53f75",
        "meta": {
          "profile": [
            "http://hl7.eu/fhir/laboratory/StructureDefinition/Observation-resultslab-eu-lab"
          ]
        },
        "performer": [
          {
            "display": "The Central European Lab"
          }
        ],
        "category": [
          {
            "coding": [
              {
                "system": "http://terminology.hl7.org/CodeSystem/observation-category",
                "code": "laboratory"
              }
            ]
          }
        ],
        "code": {
          "coding": [
            {
              "code": "5804-0",
              "system": "http://loinc.org",
              "display": "Protein [Mass/volume] in Urine by Test strip"
            }
          ],
          "text": "Protein [Mass/volume] in Urine by Test strip"
        },
        "valueQuantity": {
          "system": "http://unitsofmeasure.org",
          "value": 188.7,
          "unit": "mg/dL",
          "code": "mg/dL"
        },
        "referenceRange": [
          {
            "low": {
              "value": 0,
              "code": "mg/dL",
              "system": "http://unitsofmeasure.org"
            }
          },
          {
            "high": {
              "value": 15,
              "code": "mg/dL",
              "system": "http://unitsofmeasure.org"
            }
          }
        ],
        "interpretation": [
          {
            "coding": [
              {
                "code": "H",
                "system": "http://terminology.hl7.org/CodeSystem/v3-ObservationInterpretation",
                "display": "High"
              }
            ]
          }
        ],
        "text": {
          "status": "generated",
          "div": "<div xmlns=\"http://www.w3.org/1999/xhtml\"><table class=\"hl7__eu__lab__report\"><tr><th>Test</th><th>22-Aug-2019</th><th>Reference&#xA0;Range</th><th>Unit</th></tr><tr><td>Protein [Mass/volume] in Urine by Test strip</td><td>188.7</td><td>0 - 15</td><td>H</td><td>mg/dL</td></tr></table></div>"
        },
        "status": "final",
        "subject": {
          "reference": "urn:uuid:33caa729-6820-4140-b771-82b9ef5e9f58",
          "display": "Molly Jenkins"
        },
        "effectiveDateTime": "2019-08-22T14:42:11Z",
        "specimen": {
          "reference": "urn:uuid:cf4e294d-4a53-4a35-afc7-1f9066dcab54"
        }
      }
    },
    {
      "fullUrl": "urn:uuid:265abfb9-78ba-456d-bf7e-fb317fd051ca",
      "resource": {
        "resourceType": "Observation",
        "id": "265abfb9-78ba-456d-bf7e-fb317fd051ca",
        "meta": {
          "profile": [
            "http://hl7.eu/fhir/laboratory/StructureDefinition/Observation-resultslab-eu-lab"
          ]
        },
        "performer": [
          {
            "display": "The Central European Lab"
          }
        ],
        "category": [
          {
            "coding": [
              {
                "system": "http://terminology.hl7.org/CodeSystem/observation-category",
                "code": "laboratory"
              }
            ]
          }
        ],
        "code": {
          "coding": [
            {
              "code": "20454-5",
              "system": "http://loinc.org",
              "display": "Protein [Presence] in Urine by Test strip"
            }
          ],
          "text": "Protein [Presence] in Urine by Test strip"
        },
        "text": {
          "status": "generated",
          "div": "<div xmlns=\"http://www.w3.org/1999/xhtml\"><table class=\"hl7__eu__lab__report\"><tr><th>Test</th><th>22-Aug-2019</th><th>Reference&#xA0;Range</th><th>Unit</th></tr><tr><td>Protein [Presence] in Urine by Test strip</td></tr></table></div>"
        },
        "status": "final",
        "subject": {
          "reference": "urn:uuid:33caa729-6820-4140-b771-82b9ef5e9f58",
          "display": "Molly Jenkins"
        },
        "effectiveDateTime": "2019-08-22T14:42:11Z",
        "specimen": {
          "reference": "urn:uuid:cf4e294d-4a53-4a35-afc7-1f9066dcab54"
        }
      }
    },
    {
      "fullUrl": "urn:uuid:bedd81fd-d199-40ce-9102-708017210d41",
      "resource": {
        "resourceType": "Observation",
        "id": "bedd81fd-d199-40ce-9102-708017210d41",
        "meta": {
          "profile": [
            "http://hl7.eu/fhir/laboratory/StructureDefinition/Observation-resultslab-eu-lab"
          ]
        },
        "performer": [
          {
            "display": "The Central European Lab"
          }
        ],
        "category": [
          {
            "coding": [
              {
                "system": "http://terminology.hl7.org/CodeSystem/observation-category",
                "code": "laboratory"
              }
            ]
          }
        ],
        "code": {
          "coding": [
            {
              "code": "5802-4",
              "system": "http://loinc.org",
              "display": "Nitrite [Presence] in Urine by Test strip"
            }
          ],
          "text": "Nitrite [Presence] in Urine by Test strip"
        },
        "text": {
          "status": "generated",
          "div": "<div xmlns=\"http://www.w3.org/1999/xhtml\"><table class=\"hl7__eu__lab__report\"><tr><th>Test</th><th>22-Aug-2019</th><th>Reference&#xA0;Range</th><th>Unit</th></tr><tr><td>Nitrite [Presence] in Urine by Test strip</td></tr></table></div>"
        },
        "status": "final",
        "subject": {
          "reference": "urn:uuid:33caa729-6820-4140-b771-82b9ef5e9f58",
          "display": "Molly Jenkins"
        },
        "effectiveDateTime": "2019-08-22T14:42:11Z",
        "specimen": {
          "reference": "urn:uuid:cf4e294d-4a53-4a35-afc7-1f9066dcab54"
        }
      }
    },
    {
      "fullUrl": "urn:uuid:748bfd18-0c77-48b4-b459-f56d3f84d289",
      "resource": {
        "resourceType": "Observation",
        "id": "748bfd18-0c77-48b4-b459-f56d3f84d289",
        "meta": {
          "profile": [
            "http://hl7.eu/fhir/laboratory/StructureDefinition/Observation-resultslab-eu-lab"
          ]
        },
        "performer": [
          {
            "display": "The Central European Lab"
          }
        ],
        "category": [
          {
            "coding": [
              {
                "system": "http://terminology.hl7.org/CodeSystem/observation-category",
                "code": "laboratory"
              }
            ]
          }
        ],
        "code": {
          "coding": [
            {
              "code": "5794-3",
              "system": "http://loinc.org",
              "display": "Hemoglobin [Presence] in Urine by Test strip"
            }
          ],
          "text": "Hemoglobin [Presence] in Urine by Test strip"
        },
        "text": {
          "status": "generated",
          "div": "<div xmlns=\"http://www.w3.org/1999/xhtml\"><table class=\"hl7__eu__lab__report\"><tr><th>Test</th><th>22-Aug-2019</th><th>Reference&#xA0;Range</th><th>Unit</th></tr><tr><td>Hemoglobin [Presence] in Urine by Test strip</td></tr></table></div>"
        },
        "status": "final",
        "subject": {
          "reference": "urn:uuid:33caa729-6820-4140-b771-82b9ef5e9f58",
          "display": "Molly Jenkins"
        },
        "effectiveDateTime": "2019-08-22T14:42:11Z",
        "specimen": {
          "reference": "urn:uuid:cf4e294d-4a53-4a35-afc7-1f9066dcab54"
        }
      }
    },
    {
      "fullUrl": "urn:uuid:1dd9048a-0de2-4256-b498-c4ad01017d0f",
      "resource": {
        "resourceType": "Observation",
        "id": "1dd9048a-0de2-4256-b498-c4ad01017d0f",
        "meta": {
          "profile": [
            "http://hl7.eu/fhir/laboratory/StructureDefinition/Observation-resultslab-eu-lab"
          ]
        },
        "performer": [
          {
            "display": "The Central European Lab"
          }
        ],
        "category": [
          {
            "coding": [
              {
                "system": "http://terminology.hl7.org/CodeSystem/observation-category",
                "code": "laboratory"
              }
            ]
          }
        ],
        "code": {
          "coding": [
            {
              "code": "5799-2",
              "system": "http://loinc.org",
              "display": "Leukocyte esterase [Presence] in Urine by Test strip"
            }
          ],
          "text": "Leukocyte esterase [Presence] in Urine by Test strip"
        },
        "text": {
          "status": "generated",
          "div": "<div xmlns=\"http://www.w3.org/1999/xhtml\"><table class=\"hl7__eu__lab__report\"><tr><th>Test</th><th>22-Aug-2019</th><th>Reference&#xA0;Range</th><th>Unit</th></tr><tr><td>Leukocyte esterase [Presence] in Urine by Test strip</td></tr></table></div>"
        },
        "status": "final",
        "subject": {
          "reference": "urn:uuid:33caa729-6820-4140-b771-82b9ef5e9f58",
          "display": "Molly Jenkins"
        },
        "effectiveDateTime": "2019-08-22T14:42:11Z",
        "specimen": {
          "reference": "urn:uuid:cf4e294d-4a53-4a35-afc7-1f9066dcab54"
        }
      }
    },
    {
      "fullUrl": "urn:uuid:7190f1be-e9b1-4361-b32c-cdcc07b11d4a",
      "resource": {
        "resourceType": "Observation",
        "id": "7190f1be-e9b1-4361-b32c-cdcc07b11d4a",
        "meta": {
          "profile": [
            "http://hl7.eu/fhir/laboratory/StructureDefinition/Observation-resultslab-eu-lab"
          ]
        },
        "performer": [
          {
            "display": "The Central European Lab"
          }
        ],
        "category": [
          {
            "coding": [
              {
                "system": "http://terminology.hl7.org/CodeSystem/observation-category",
                "code": "laboratory"
              }
            ]
          }
        ],
        "code": {
          "coding": [
            {
              "code": "4548-4",
              "system": "http://loinc.org",
              "display": "Hemoglobin A1c/Hemoglobin.total in Blood"
            }
          ],
          "text": "Hemoglobin A1c/Hemoglobin.total in Blood"
        },
        "valueQuantity": {
          "system": "http://unitsofmeasure.org",
          "value": 2.9,
          "unit": "%",
          "code": "%"
        },
        "referenceRange": [
          {
            "low": {
              "value": 4,
              "code": "%",
              "system": "http://unitsofmeasure.org"
            }
          },
          {
            "high": {
              "value": 6,
              "code": "%",
              "system": "http://unitsofmeasure.org"
            }
          }
        ],
        "interpretation": [
          {
            "coding": [
              {
                "code": "L",
                "system": "http://terminology.hl7.org/CodeSystem/v3-ObservationInterpretation",
                "display": "Low"
              }
            ]
          }
        ],
        "text": {
          "status": "generated",
          "div": "<div xmlns=\"http://www.w3.org/1999/xhtml\"><table class=\"hl7__eu__lab__report\"><tr><th>Test</th><th>22-Aug-2019</th><th>Reference&#xA0;Range</th><th>Unit</th></tr><tr><td>Hemoglobin A1c/Hemoglobin.total in Blood</td><td>2.9</td><td>4 - 6</td><td>L</td><td>%</td></tr></table></div>"
        },
        "status": "final",
        "subject": {
          "reference": "urn:uuid:33caa729-6820-4140-b771-82b9ef5e9f58",
          "display": "Molly Jenkins"
        },
        "effectiveDateTime": "2019-08-22T14:42:11Z",
        "specimen": {
          "reference": "urn:uuid:5369f896-d657-47b3-93da-323c37e4d93b"
        }
      }
    },
    {
      "fullUrl": "urn:uuid:4720e465-5eb2-4f84-8c68-9ea22ac31f5c",
      "resource": {
        "resourceType": "Observation",
        "id": "4720e465-5eb2-4f84-8c68-9ea22ac31f5c",
        "meta": {
          "profile": [
            "http://hl7.eu/fhir/laboratory/StructureDefinition/Observation-resultslab-eu-lab"
          ]
        },
        "performer": [
          {
            "display": "The Central European Lab"
          }
        ],
        "category": [
          {
            "coding": [
              {
                "system": "http://terminology.hl7.org/CodeSystem/observation-category",
                "code": "laboratory"
              }
            ]
          }
        ],
        "code": {
          "coding": [
            {
              "code": "2339-0",
              "system": "http://loinc.org",
              "display": "Glucose [Mass/volume] in Blood"
            }
          ],
          "text": "Glucose [Mass/volume] in Blood"
        },
        "valueQuantity": {
          "system": "http://unitsofmeasure.org",
          "value": 72.1,
          "unit": "mg/dL",
          "code": "mg/dL"
        },
        "referenceRange": [
          {
            "low": {
              "value": 70,
              "code": "mg/dL",
              "system": "http://unitsofmeasure.org"
            }
          },
          {
            "high": {
              "value": 100,
              "code": "mg/dL",
              "system": "http://unitsofmeasure.org"
            }
          }
        ],
        "text": {
          "status": "generated",
          "div": "<div xmlns=\"http://www.w3.org/1999/xhtml\"><table class=\"hl7__eu__lab__report\"><tr><th>Test</th><th>22-Aug-2019</th><th>Reference&#xA0;Range</th><th>Unit</th></tr><tr><td>Glucose [Mass/volume] in Blood</td><td>72.1</td><td>70 - 100</td><td></td><td>mg/dL</td></tr></table></div>"
        },
        "status": "final",
        "subject": {
          "reference": "urn:uuid:33caa729-6820-4140-b771-82b9ef5e9f58",
          "display": "Molly Jenkins"
        },
        "effectiveDateTime": "2019-08-22T14:42:11Z",
        "specimen": {
          "reference": "urn:uuid:5369f896-d657-47b3-93da-323c37e4d93b"
        }
      }
    },
    {
      "fullUrl": "urn:uuid:574d89ed-a060-45b1-9b7e-36f49ebc8a33",
      "resource": {
        "resourceType": "Observation",
        "id": "574d89ed-a060-45b1-9b7e-36f49ebc8a33",
        "meta": {
          "profile": [
            "http://hl7.eu/fhir/laboratory/StructureDefinition/Observation-resultslab-eu-lab"
          ]
        },
        "performer": [
          {
            "display": "The Central European Lab"
          }
        ],
        "category": [
          {
            "coding": [
              {
                "system": "http://terminology.hl7.org/CodeSystem/observation-category",
                "code": "laboratory"
              }
            ]
          }
        ],
        "code": {
          "coding": [
            {
              "code": "6299-2",
              "system": "http://loinc.org",
              "display": "Urea nitrogen [Mass/volume] in Blood"
            }
          ],
          "text": "Urea nitrogen [Mass/volume] in Blood"
        },
        "valueQuantity": {
          "system": "http://unitsofmeasure.org",
          "value": 7.3,
          "unit": "mg/dL",
          "code": "mg/dL"
        },
        "referenceRange": [
          {
            "low": {
              "value": 7,
              "code": "mg/dL",
              "system": "http://unitsofmeasure.org"
            }
          },
          {
            "high": {
              "value": 20,
              "code": "mg/dL",
              "system": "http://unitsofmeasure.org"
            }
          }
        ],
        "text": {
          "status": "generated",
          "div": "<div xmlns=\"http://www.w3.org/1999/xhtml\"><table class=\"hl7__eu__lab__report\"><tr><th>Test</th><th>22-Aug-2019</th><th>Reference&#xA0;Range</th><th>Unit</th></tr><tr><td>Urea nitrogen [Mass/volume] in Blood</td><td>7.3</td><td>7 - 20</td><td></td><td>mg/dL</td></tr></table></div>"
        },
        "status": "final",
        "subject": {
          "reference": "urn:uuid:33caa729-6820-4140-b771-82b9ef5e9f58",
          "display": "Molly Jenkins"
        },
        "effectiveDateTime": "2019-08-22T14:42:11Z",
        "specimen": {
          "reference": "urn:uuid:5369f896-d657-47b3-93da-323c37e4d93b"
        }
      }
    },
    {
      "fullUrl": "urn:uuid:8dc726c0-b336-4007-92c3-7bfb70a5c881",
      "resource": {
        "resourceType": "Observation",
        "id": "8dc726c0-b336-4007-92c3-7bfb70a5c881",
        "meta": {
          "profile": [
            "http://hl7.eu/fhir/laboratory/StructureDefinition/Observation-resultslab-eu-lab"
          ]
        },
        "performer": [
          {
            "display": "The Central European Lab"
          }
        ],
        "category": [
          {
            "coding": [
              {
                "system": "http://terminology.hl7.org/CodeSystem/observation-category",
                "code": "laboratory"
              }
            ]
          }
        ],
        "code": {
          "coding": [
            {
              "code": "38483-4",
              "system": "http://loinc.org",
              "display": "Creatinine [Mass/volume] in Blood"
            }
          ],
          "text": "Creatinine [Mass/volume] in Blood"
        },
        "valueQuantity": {
          "system": "http://unitsofmeasure.org",
          "value": 1.3,
          "unit": "mg/dL",
          "code": "mg/dL"
        },
        "referenceRange": [
          {
            "low": {
              "value": 0.6,
              "code": "mg/dL",
              "system": "http://unitsofmeasure.org"
            }
          },
          {
            "high": {
              "value": 1.3,
              "code": "mg/dL",
              "system": "http://unitsofmeasure.org"
            }
          }
        ],
        "text": {
          "status": "generated",
          "div": "<div xmlns=\"http://www.w3.org/1999/xhtml\"><table class=\"hl7__eu__lab__report\"><tr><th>Test</th><th>22-Aug-2019</th><th>Reference&#xA0;Range</th><th>Unit</th></tr><tr><td>Creatinine [Mass/volume] in Blood</td><td>1.3</td><td>0.6 - 1.3</td><td></td><td>mg/dL</td></tr></table></div>"
        },
        "status": "final",
        "subject": {
          "reference": "urn:uuid:33caa729-6820-4140-b771-82b9ef5e9f58",
          "display": "Molly Jenkins"
        },
        "effectiveDateTime": "2019-08-22T14:42:11Z",
        "specimen": {
          "reference": "urn:uuid:5369f896-d657-47b3-93da-323c37e4d93b"
        }
      }
    },
    {
      "fullUrl": "urn:uuid:5233f70c-1d6b-4a0f-a36a-ab6e5fcd3686",
      "resource": {
        "resourceType": "Observation",
        "id": "5233f70c-1d6b-4a0f-a36a-ab6e5fcd3686",
        "meta": {
          "profile": [
            "http://hl7.eu/fhir/laboratory/StructureDefinition/Observation-resultslab-eu-lab"
          ]
        },
        "performer": [
          {
            "display": "The Central European Lab"
          }
        ],
        "category": [
          {
            "coding": [
              {
                "system": "http://terminology.hl7.org/CodeSystem/observation-category",
                "code": "laboratory"
              }
            ]
          }
        ],
        "code": {
          "coding": [
            {
              "code": "49765-1",
              "system": "http://loinc.org",
              "display": "Calcium [Mass/volume] in Blood"
            }
          ],
          "text": "Calcium [Mass/volume] in Blood"
        },
        "valueQuantity": {
          "system": "http://unitsofmeasure.org",
          "value": 9.1,
          "unit": "mg/dL",
          "code": "mg/dL"
        },
        "referenceRange": [
          {
            "low": {
              "value": 8.6,
              "code": "mg/dL",
              "system": "http://unitsofmeasure.org"
            }
          },
          {
            "high": {
              "value": 10.4,
              "code": "mg/dL",
              "system": "http://unitsofmeasure.org"
            }
          }
        ],
        "text": {
          "status": "generated",
          "div": "<div xmlns=\"http://www.w3.org/1999/xhtml\"><table class=\"hl7__eu__lab__report\"><tr><th>Test</th><th>22-Aug-2019</th><th>Reference&#xA0;Range</th><th>Unit</th></tr><tr><td>Calcium [Mass/volume] in Blood</td><td>9.1</td><td>8.6 - 10.4</td><td></td><td>mg/dL</td></tr></table></div>"
        },
        "status": "final",
        "subject": {
          "reference": "urn:uuid:33caa729-6820-4140-b771-82b9ef5e9f58",
          "display": "Molly Jenkins"
        },
        "effectiveDateTime": "2019-08-22T14:42:11Z",
        "specimen": {
          "reference": "urn:uuid:5369f896-d657-47b3-93da-323c37e4d93b"
        }
      }
    },
    {
      "fullUrl": "urn:uuid:17e9d59c-cfbf-49be-9d11-efa8011be30d",
      "resource": {
        "resourceType": "Observation",
        "id": "17e9d59c-cfbf-49be-9d11-efa8011be30d",
        "meta": {
          "profile": [
            "http://hl7.eu/fhir/laboratory/StructureDefinition/Observation-resultslab-eu-lab"
          ]
        },
        "performer": [
          {
            "display": "The Central European Lab"
          }
        ],
        "category": [
          {
            "coding": [
              {
                "system": "http://terminology.hl7.org/CodeSystem/observation-category",
                "code": "laboratory"
              }
            ]
          }
        ],
        "code": {
          "coding": [
            {
              "code": "2947-0",
              "system": "http://loinc.org",
              "display": "Sodium [Moles/volume] in Blood"
            }
          ],
          "text": "Sodium [Moles/volume] in Blood"
        },
        "valueQuantity": {
          "system": "http://unitsofmeasure.org",
          "value": 140.8,
          "unit": "mmol/L",
          "code": "mmol/L"
        },
        "referenceRange": [
          {
            "low": {
              "value": 135,
              "code": "mmol/L",
              "system": "http://unitsofmeasure.org"
            }
          },
          {
            "high": {
              "value": 145,
              "code": "mmol/L",
              "system": "http://unitsofmeasure.org"
            }
          }
        ],
        "text": {
          "status": "generated",
          "div": "<div xmlns=\"http://www.w3.org/1999/xhtml\"><table class=\"hl7__eu__lab__report\"><tr><th>Test</th><th>22-Aug-2019</th><th>Reference&#xA0;Range</th><th>Unit</th></tr><tr><td>Sodium [Moles/volume] in Blood</td><td>140.8</td><td>135 - 145</td><td></td><td>mmol/L</td></tr></table></div>"
        },
        "status": "final",
        "subject": {
          "reference": "urn:uuid:33caa729-6820-4140-b771-82b9ef5e9f58",
          "display": "Molly Jenkins"
        },
        "effectiveDateTime": "2019-08-22T14:42:11Z",
        "specimen": {
          "reference": "urn:uuid:5369f896-d657-47b3-93da-323c37e4d93b"
        }
      }
    },
    {
      "fullUrl": "urn:uuid:3193f2a0-ad61-4e62-9705-64f1723297bd",
      "resource": {
        "resourceType": "Observation",
        "id": "3193f2a0-ad61-4e62-9705-64f1723297bd",
        "meta": {
          "profile": [
            "http://hl7.eu/fhir/laboratory/StructureDefinition/Observation-resultslab-eu-lab"
          ]
        },
        "performer": [
          {
            "display": "The Central European Lab"
          }
        ],
        "category": [
          {
            "coding": [
              {
                "system": "http://terminology.hl7.org/CodeSystem/observation-category",
                "code": "laboratory"
              }
            ]
          }
        ],
        "code": {
          "coding": [
            {
              "code": "6298-4",
              "system": "http://loinc.org",
              "display": "Potassium [Moles/volume] in Blood"
            }
          ],
          "text": "Potassium [Moles/volume] in Blood"
        },
        "valueQuantity": {
          "system": "http://unitsofmeasure.org",
          "value": 4.1,
          "unit": "mmol/L",
          "code": "mmol/L"
        },
        "referenceRange": [
          {
            "low": {
              "value": 3.5,
              "code": "mmol/L",
              "system": "http://unitsofmeasure.org"
            }
          },
          {
            "high": {
              "value": 5.1,
              "code": "mmol/L",
              "system": "http://unitsofmeasure.org"
            }
          }
        ],
        "text": {
          "status": "generated",
          "div": "<div xmlns=\"http://www.w3.org/1999/xhtml\"><table class=\"hl7__eu__lab__report\"><tr><th>Test</th><th>22-Aug-2019</th><th>Reference&#xA0;Range</th><th>Unit</th></tr><tr><td>Potassium [Moles/volume] in Blood</td><td>4.1</td><td>3.5 - 5.1</td><td></td><td>mmol/L</td></tr></table></div>"
        },
        "status": "final",
        "subject": {
          "reference": "urn:uuid:33caa729-6820-4140-b771-82b9ef5e9f58",
          "display": "Molly Jenkins"
        },
        "effectiveDateTime": "2019-08-22T14:42:11Z",
        "specimen": {
          "reference": "urn:uuid:5369f896-d657-47b3-93da-323c37e4d93b"
        }
      }
    },
    {
      "fullUrl": "urn:uuid:a7a144da-112d-4170-a97d-a95d3ef7145d",
      "resource": {
        "resourceType": "Observation",
        "id": "a7a144da-112d-4170-a97d-a95d3ef7145d",
        "meta": {
          "profile": [
            "http://hl7.eu/fhir/laboratory/StructureDefinition/Observation-resultslab-eu-lab"
          ]
        },
        "performer": [
          {
            "display": "The Central European Lab"
          }
        ],
        "category": [
          {
            "coding": [
              {
                "system": "http://terminology.hl7.org/CodeSystem/observation-category",
                "code": "laboratory"
              }
            ]
          }
        ],
        "code": {
          "coding": [
            {
              "code": "2069-3",
              "system": "http://loinc.org",
              "display": "Chloride [Moles/volume] in Blood"
            }
          ],
          "text": "Chloride [Moles/volume] in Blood"
        },
        "valueQuantity": {
          "system": "http://unitsofmeasure.org",
          "value": 107.7,
          "unit": "mmol/L",
          "code": "mmol/L"
        },
        "referenceRange": [
          {
            "low": {
              "value": 98,
              "code": "mmol/L",
              "system": "http://unitsofmeasure.org"
            }
          },
          {
            "high": {
              "value": 110,
              "code": "mmol/L",
              "system": "http://unitsofmeasure.org"
            }
          }
        ],
        "text": {
          "status": "generated",
          "div": "<div xmlns=\"http://www.w3.org/1999/xhtml\"><table class=\"hl7__eu__lab__report\"><tr><th>Test</th><th>22-Aug-2019</th><th>Reference&#xA0;Range</th><th>Unit</th></tr><tr><td>Chloride [Moles/volume] in Blood</td><td>107.7</td><td>98 - 110</td><td></td><td>mmol/L</td></tr></table></div>"
        },
        "status": "final",
        "subject": {
          "reference": "urn:uuid:33caa729-6820-4140-b771-82b9ef5e9f58",
          "display": "Molly Jenkins"
        },
        "effectiveDateTime": "2019-08-22T14:42:11Z",
        "specimen": {
          "reference": "urn:uuid:5369f896-d657-47b3-93da-323c37e4d93b"
        }
      }
    },
    {
      "fullUrl": "urn:uuid:5b42301e-ef7f-4aea-b09f-63315197173c",
      "resource": {
        "resourceType": "Observation",
        "id": "5b42301e-ef7f-4aea-b09f-63315197173c",
        "meta": {
          "profile": [
            "http://hl7.eu/fhir/laboratory/StructureDefinition/Observation-resultslab-eu-lab"
          ]
        },
        "performer": [
          {
            "display": "The Central European Lab"
          }
        ],
        "category": [
          {
            "coding": [
              {
                "system": "http://terminology.hl7.org/CodeSystem/observation-category",
                "code": "laboratory"
              }
            ]
          }
        ],
        "code": {
          "coding": [
            {
              "code": "20565-8",
              "system": "http://loinc.org",
              "display": "Carbon dioxide, total [Moles/volume] in Blood"
            }
          ],
          "text": "Carbon dioxide, total [Moles/volume] in Blood"
        },
        "valueQuantity": {
          "system": "http://unitsofmeasure.org",
          "value": 23.7,
          "unit": "mmol/L",
          "code": "mmol/L"
        },
        "referenceRange": [
          {
            "low": {
              "value": 22,
              "code": "mmol/L",
              "system": "http://unitsofmeasure.org"
            }
          },
          {
            "high": {
              "value": 29,
              "code": "mmol/L",
              "system": "http://unitsofmeasure.org"
            }
          }
        ],
        "text": {
          "status": "generated",
          "div": "<div xmlns=\"http://www.w3.org/1999/xhtml\"><table class=\"hl7__eu__lab__report\"><tr><th>Test</th><th>22-Aug-2019</th><th>Reference&#xA0;Range</th><th>Unit</th></tr><tr><td>Carbon dioxide, total [Moles/volume] in Blood</td><td>23.7</td><td>22 - 29</td><td></td><td>mmol/L</td></tr></table></div>"
        },
        "status": "final",
        "subject": {
          "reference": "urn:uuid:33caa729-6820-4140-b771-82b9ef5e9f58",
          "display": "Molly Jenkins"
        },
        "effectiveDateTime": "2019-08-22T14:42:11Z",
        "specimen": {
          "reference": "urn:uuid:5369f896-d657-47b3-93da-323c37e4d93b"
        }
      }
    },
    {
      "fullUrl": "urn:uuid:4535f695-fb89-47c9-9c65-3c7038661566",
      "resource": {
        "resourceType": "Device",
        "id": "4535f695-fb89-47c9-9c65-3c7038661566",
        "deviceName": [
          {
            "name": "SYNDERAI Synthetic Generator",
            "type": "manufacturer-name"
          }
        ],
        "version": [
          {
            "value": "5.0"
          }
        ],
        "text": {
          "status": "generated",
          "div": "<div xmlns=\"http://www.w3.org/1999/xhtml\">SYNDERAI Synthetic Generator v5.0</div>"
        },
        "status": "active\"",
        "distinctIdentifier": "synderai-generator-50",
        "manufacturer": "SYNDERAI Project"
      }
    },
    {
      "fullUrl": "urn:uuid:8763c44c-4db4-4f88-a548-356ab04d6d1a",
      "resource": {
        "resourceType": "Provenance",
        "id": "8763c44c-4db4-4f88-a548-356ab04d6d1a",
        "target": [
          {
            "reference": "Patient/33caa729-6820-4140-b771-82b9ef5e9f58"
          },
          {
            "reference": "Bundle/a1cb9056-79e1-4ca1-8dbd-71e1b30169a9"
          },
          {
            "reference": "Composition/950e9712-ff68-4a6b-8fe5-3e74e4bbc7df"
          },
          {
            "reference": "PractitionerRole/fdc61e9c-e061-49e0-949d-2e83f0f77d1a"
          },
          {
            "reference": "Practitioner/c914de6b-6b7a-4f1d-9ce4-fea1fa7683d3"
          },
          {
            "reference": "PractitionerRole/0ef12df7-fd6a-4f8a-8447-f660d8f4207c"
          },
          {
            "reference": "Organization/61fa10ad-f90e-4c6d-8fee-d78d7119df64"
          }
        ],
        "activity": {
          "text": "Synthetic Example Data Generation"
        },
        "policy": [
          "https://synderai.net/synderai-synthetic-data-policy"
        ],
        "agent": [
          {
            "type": {
              "text": "author"
            },
            "who": {
              "reference": "Device/4535f695-fb89-47c9-9c65-3c7038661566"
            }
          }
        ],
        "reason": [
          {
            "text": "Interoperability Testing and Training (non-clinical use)"
          }
        ],
        "text": {
          "status": "generated",
          "div": "<div xmlns=\"http://www.w3.org/1999/xhtml\">Provenance for SYNDERAI Synthetic Example Data Resource</div>"
        },
        "recorded": "2019-08-22T16:42:11Z"
      }
    },
    {
      "fullUrl": "urn:uuid:fdc61e9c-e061-49e0-949d-2e83f0f77d1a",
      "resource": {
        "resourceType": "PractitionerRole",
        "id": "fdc61e9c-e061-49e0-949d-2e83f0f77d1a",
        "meta": {
          "profile": [
            "http://hl7.eu/fhir/base/StructureDefinition/practitionerRole-eu"
          ]
        },
        "text": {
          "status": "generated",
          "div": "<div xmlns=\"http://www.w3.org/1999/xhtml\">Laboratory Role Id: fdc61e9c-e061-49e0-949d-2e83f0f77d1a</div>"
        },
        "practitioner": {
          "reference": "urn:uuid:c914de6b-6b7a-4f1d-9ce4-fea1fa7683d3"
        }
      }
    },
    {
      "fullUrl": "urn:uuid:c914de6b-6b7a-4f1d-9ce4-fea1fa7683d3",
      "resource": {
        "resourceType": "Practitioner",
        "id": "c914de6b-6b7a-4f1d-9ce4-fea1fa7683d3",
        "meta": {
          "profile": [
            "http://hl7.eu/fhir/base/StructureDefinition/practitioner-eu"
          ]
        },
        "identifier": [
          {
            "assigner": {
              "display": "HL7 Europe"
            },
            "system": "urn:oid:2.16.840.1.113883.2.51.999",
            "value": "57468d47-0e95-4f7d-8c6e-a94339647c68"
          }
        ],
        "name": [
          {
            "prefix": [
              "dr"
            ],
            "given": [
              "Ex"
            ],
            "family": "Ample"
          }
        ],
        "address": [
          {
            "line": [
              "Laboratoire Central Européenne",
              "Boulevard du Jardin Botanique 32"
            ],
            "postalCode": "1000",
            "city": "Brussels",
            "country": "Belgium"
          }
        ],
        "text": {
          "status": "generated",
          "div": "<div xmlns=\"http://www.w3.org/1999/xhtml\">Laboratory: Laboratoire Central Européenne, 1000 Brussels, Belgium</div>"
        }
      }
    }
  ],
  "type": "document",
  "timestamp": "2019-08-22T16:42:11Z"
}
