{
  "resourceType": "Bundle",
  "id": "ab622d0e-9661-4590-b8aa-47557d0856f7",
  "meta": {
    "profile": [
      "http://hl7.eu/fhir/laboratory/StructureDefinition/Bundle-eu-lab"
    ]
  },
  "identifier": {
    "assigner": {
      "display": "HL7 Europe"
    },
    "system": "urn:oid:2.16.840.1.113883.2.51.999",
    "value": "d699ef30-bd7b-4cab-a25f-c772dc8f308b"
  },
  "entry": [
    {
      "fullUrl": "urn:uuid:f0647e87-0e90-4091-b7d8-efb9ddf104c3",
      "resource": {
        "resourceType": "Composition",
        "id": "f0647e87-0e90-4091-b7d8-efb9ddf104c3",
        "meta": {
          "profile": [
            "http://hl7.eu/fhir/laboratory/StructureDefinition/Composition-eu-lab"
          ]
        },
        "identifier": {
          "assigner": {
            "display": "HL7 Europe"
          },
          "system": "urn:oid:2.16.840.1.113883.2.51.999",
          "value": "b2a14aa3-e9da-466a-9d59-bc7ce50f94ef"
        },
        "author": [
          {
            "reference": "urn:uuid:dec00a08-64cf-4776-a9e5-bf1cd0d07aea"
          }
        ],
        "category": [
          {
            "coding": [
              {
                "code": "26436-6",
                "system": "http://loinc.org",
                "display": "Laboratory studies (set)"
              }
            ]
          }
        ],
        "type": {
          "coding": [
            {
              "code": "11502-2",
              "system": "http://loinc.org",
              "display": "Laboratory report"
            }
          ],
          "text": "Laboratory Report"
        },
        "section": [
          {
            "code": {
              "coding": [
                {
                  "code": "26436-6",
                  "system": "http://loinc.org",
                  "display": "Laboratory studies (set)"
                }
              ],
              "text": "Laboratory studies"
            },
            "section": [
              {
                "code": {
                  "coding": [
                    {
                      "code": "$18719-5",
                      "system": "http://loinc.org",
                      "display": "Chemistry studies (set)"
                    }
                  ],
                  "text": "Chemistry"
                },
                "entry": [
                  {
                    "reference": "urn:uuid:048da301-73d4-476b-b577-784cd074e276"
                  },
                  {
                    "reference": "urn:uuid:95fe1107-3e13-42f3-b0b8-8d1d23a9c88a"
                  },
                  {
                    "reference": "urn:uuid:076a02ad-7091-4a5b-b0e2-9b4b9011c418"
                  },
                  {
                    "reference": "urn:uuid:0ff2b808-7c15-4dab-ba28-f55fe0a95861"
                  },
                  {
                    "reference": "urn:uuid:75d4980e-43ac-4163-88c7-4ad6aabdae7a"
                  },
                  {
                    "reference": "urn:uuid:ee50e7e3-7f6c-459c-a11e-65d517be85f1"
                  },
                  {
                    "reference": "urn:uuid:88a84d91-dfd2-47f3-a216-cbe77b5c247a"
                  },
                  {
                    "reference": "urn:uuid:dff0f749-9021-49a1-a6e1-5cbfc5f9f9ce"
                  },
                  {
                    "reference": "urn:uuid:736ea5c2-0415-4876-ab03-cd8ba4e99a25"
                  },
                  {
                    "reference": "urn:uuid:0f333fcd-2052-4b00-9f98-cef090811e0f"
                  },
                  {
                    "reference": "urn:uuid:8fef321c-ca73-48c7-a1d3-692a9a8ce34b"
                  },
                  {
                    "reference": "urn:uuid:b73c26bf-2795-4f8f-b423-06ecc42902aa"
                  },
                  {
                    "reference": "urn:uuid:608dea6d-b718-4c86-9491-9ed3f6dbe914"
                  }
                ],
                "text": {
                  "status": "generated",
                  "div": "<div xmlns=\"http://www.w3.org/1999/xhtml\"><h3>Chemistry</h3><table class=\"hl7__eu__lab__report\"><thead><tr><th>Test</th><th>11-JAN-2018</th><th>Reference&#xA0;Range</th><th>Unit</th></tr></thead><tbody><tr><td>Hemoglobin A1c/Hemoglobin.total in Blood</td><td>5.8</td><td>4.5 - 6.4</td><td>%</td></tr><tr><td>Glucose [Mass/volume] in Blood</td><td><strong>69.9 L</strong></td><td>70 - 99</td><td>mg/dL</td></tr><tr><td>Urea nitrogen [Mass/volume] in Blood</td><td>10.7</td><td>7 - 20</td><td>mg/dL</td></tr><tr><td>Creatinine [Mass/volume] in Blood</td><td>1.3</td><td>0.7 - 1.3</td><td>mg/dL</td></tr><tr><td>Calcium [Mass/volume] in Blood</td><td>9.2</td><td>8.5 - 10.5</td><td>mg/dL</td></tr><tr><td>Sodium [Moles/volume] in Blood</td><td>139.1</td><td>135 - 145</td><td>mmol/L</td></tr><tr><td>Potassium [Moles/volume] in Blood</td><td>4.9</td><td>3.5 - 5.3</td><td>mmol/L</td></tr><tr><td>Chloride [Moles/volume] in Blood</td><td>102.7</td><td>98 - 110</td><td>mmol/L</td></tr><tr><td>Carbon dioxide, total [Moles/volume] in Blood</td><td>27.4</td><td>22 - 29</td><td>mmol/L</td></tr><tr><td>Cholesterol [Mass/volume] in Serum or Plasma</td><td>139.0</td><td>125 - 200</td><td>mg/dL</td></tr><tr><td>Triglyceride [Mass/volume] in Serum or Plasma</td><td>142.2</td><td>0 - 150</td><td>mg/dL</td></tr><tr><td>Cholesterol in LDL [Mass/volume] in Serum or Plasma by Direct assay</td><td>56.0</td><td>0 - 130</td><td>mg/dL</td></tr><tr><td>Cholesterol in HDL [Mass/volume] in Serum or Plasma</td><td>54.6</td><td>40 - 60</td><td>mg/dL</td></tr></tbody></table></div>"
                },
                "title": "Chemistry"
              }
            ],
            "title": "Laboratory Report"
          },
          {
            "text": {
              "status": "generated",
              "div": "<div xmlns=\"http://www.w3.org/1999/xhtml\"><h3>Annotation</h3><table class=\"hl7__eu__lab__report\"><tr><th>Conclusion and Recommendations based on this report and previous findings known to us</th></tr><tr><td>All measured values are within or close to normal ranges. Glucose is slightly below normal, which may be due to fasting or pre-analytical factors and is not concerning in isolation. HbA1c indicates good long-term glycemic control. Renal, electrolyte, and lipid profiles are unremarkable. No significant laboratory abnormalities detected.</td></tr></table></div>"
            },
            "code": {
              "coding": [
                {
                  "system": "http://loinc.org",
                  "code": "48767-8",
                  "display": "Annotation comment"
                }
              ]
            },
            "title": "Annotation comment"
          }
        ],
        "status": "final",
        "subject": {
          "reference": "urn:uuid:40b0de9c-f3f0-4f27-9c3a-e397884fd9f8",
          "display": "Alfred Rémy"
        },
        "date": "2018-01-11T07:54:36Z",
        "title": "Laboratory Report",
        "confidentiality": "N"
      }
    },
    {
      "fullUrl": "urn:uuid:1afc0f89-a6eb-4717-90bd-1e76a19bc74b",
      "resource": {
        "resourceType": "DiagnosticReport",
        "id": "1afc0f89-a6eb-4717-90bd-1e76a19bc74b",
        "meta": {
          "profile": [
            "http://hl7.eu/fhir/laboratory/StructureDefinition/DiagnosticReport-eu-lab"
          ]
        },
        "identifier": [
          {
            "assigner": {
              "display": "HL7 Europe"
            },
            "system": "urn:oid:2.16.840.1.113883.2.51.999",
            "value": "0b94f7f5-4816-46df-a276-c1181e75090b"
          }
        ],
        "extension": [
          {
            "url": "http://hl7.org/fhir/5.0/StructureDefinition/extension-DiagnosticReport.composition",
            "valueReference": {
              "reference": "urn:uuid:b2a14aa3-e9da-466a-9d59-bc7ce50f94ef"
            }
          }
        ],
        "category": [
          {
            "coding": [
              {
                "code": "26436-6",
                "system": "http://loinc.org",
                "display": "Laboratory studies (set)"
              }
            ]
          }
        ],
        "specimen": [
          {
            "reference": "urn:uuid:d4ea0579-6bf8-4493-bf66-09cfdb32e649"
          },
          {
            "reference": "urn:uuid:c25bc919-c963-4592-a61c-482a602beb15"
          }
        ],
        "result": [
          {
            "reference": "urn:uuid:048da301-73d4-476b-b577-784cd074e276"
          },
          {
            "reference": "urn:uuid:95fe1107-3e13-42f3-b0b8-8d1d23a9c88a"
          },
          {
            "reference": "urn:uuid:076a02ad-7091-4a5b-b0e2-9b4b9011c418"
          },
          {
            "reference": "urn:uuid:0ff2b808-7c15-4dab-ba28-f55fe0a95861"
          },
          {
            "reference": "urn:uuid:75d4980e-43ac-4163-88c7-4ad6aabdae7a"
          },
          {
            "reference": "urn:uuid:ee50e7e3-7f6c-459c-a11e-65d517be85f1"
          },
          {
            "reference": "urn:uuid:88a84d91-dfd2-47f3-a216-cbe77b5c247a"
          },
          {
            "reference": "urn:uuid:dff0f749-9021-49a1-a6e1-5cbfc5f9f9ce"
          },
          {
            "reference": "urn:uuid:736ea5c2-0415-4876-ab03-cd8ba4e99a25"
          },
          {
            "reference": "urn:uuid:0f333fcd-2052-4b00-9f98-cef090811e0f"
          },
          {
            "reference": "urn:uuid:8fef321c-ca73-48c7-a1d3-692a9a8ce34b"
          },
          {
            "reference": "urn:uuid:b73c26bf-2795-4f8f-b423-06ecc42902aa"
          },
          {
            "reference": "urn:uuid:608dea6d-b718-4c86-9491-9ed3f6dbe914"
          }
        ],
        "status": "registered",
        "code": {
          "coding": [
            {
              "code": "11502-2",
              "system": "http://loinc.org",
              "display": "Laboratory report"
            }
          ]
        },
        "subject": {
          "reference": "urn:uuid:40b0de9c-f3f0-4f27-9c3a-e397884fd9f8",
          "display": "Alfred Rémy"
        }
      }
    },
    {
      "fullUrl": "urn:uuid:40b0de9c-f3f0-4f27-9c3a-e397884fd9f8",
      "resource": {
        "resourceType": "Patient",
        "id": "40b0de9c-f3f0-4f27-9c3a-e397884fd9f8",
        "meta": {
          "security": [
            {
              "system": "http://terminology.hl7.org/CodeSystem/v3-ActReason",
              "code": "HTEST"
            },
            {
              "system": "http://terminology.hl7.org/CodeSystem/v3-ActReason",
              "code": "TRAIN"
            }
          ],
          "tag": [
            {
              "system": "https://synderai.net/fhir/CodeSystem/tags",
              "code": "synthetic",
              "display": "SYNDERAI Synthetic data"
            }
          ],
          "profile": [
            "http://hl7.eu/fhir/base/StructureDefinition/patient-eu-core"
          ]
        },
        "identifier": [
          {
            "type": {
              "coding": [
                {
                  "code": "PT",
                  "system": "http://terminology.hl7.org/CodeSystem/v2-0203"
                }
              ]
            },
            "system": "http://ec.europa.eu/identifier/eci",
            "value": "9962-084919-2"
          },
          {
            "type": {
              "coding": [
                {
                  "code": "MR",
                  "system": "http://terminology.hl7.org/CodeSystem/v2-0203"
                }
              ]
            },
            "system": "http://local.setting.eu/identifier",
            "value": "cc3b7d7f-bed4-5811-99b9-3468e2f4203c"
          }
        ],
        "name": [
          {
            "family": "Rémy"
          },
          {
            "given": [
              "Alfred"
            ]
          },
          {
            "text": "Alfred Rémy"
          }
        ],
        "address": [
          {
            "line": [
              "88, rue de Jacquot"
            ],
            "use": "home",
            "type": "physical",
            "postalCode": "75018",
            "city": "Paris",
            "country": "France"
          }
        ],
        "telecom": [
          {
            "system": "phone",
            "value": "+33 (0)4 73 74 17 67"
          }
        ],
        "extension": [
          {
            "url": "http://hl7.org/fhir/StructureDefinition/patient-nationality",
            "valueCodeableConcept": {
              "coding": [
                {
                  "code": "FR",
                  "system": "http://hl7.org/fhir/ValueSet/country"
                }
              ]
            }
          }
        ],
        "text": {
          "status": "generated",
          "div": "<div xmlns=\"http://www.w3.org/1999/xhtml\"><table class=\"hl7__ips\"><tr><td>Alfred Rémy</td><td>male</td><td>05-Jul-1967</td></tr></table></div>"
        },
        "gender": "male",
        "birthDate": "1967-07-05"
      }
    },
    {
      "fullUrl": "urn:uuid:65eaa5fb-6882-461b-946e-1cdda67eeebf",
      "resource": {
        "resourceType": "ServiceRequest",
        "id": "65eaa5fb-6882-461b-946e-1cdda67eeebf",
        "meta": {
          "profile": [
            "http://hl7.eu/fhir/laboratory/StructureDefinition/ServiceRequest-eu-lab"
          ]
        },
        "identifier": [
          {
            "system": "http://example.org",
            "value": "81d6e212-1977-453d-9f04-cf4886393977"
          }
        ],
        "specimen": [
          {
            "reference": "urn:uuid:d4ea0579-6bf8-4493-bf66-09cfdb32e649"
          },
          {
            "reference": "urn:uuid:c25bc919-c963-4592-a61c-482a602beb15"
          }
        ],
        "reasonCode": [
          {
            "coding": [
              {
                "code": "271737000",
                "system": "http://snomed.info/sct",
                "display": "Anemia"
              }
            ]
          },
          {
            "coding": [
              {
                "code": "15777000",
                "system": "http://snomed.info/sct",
                "display": "Prediabetes"
              }
            ]
          }
        ],
        "status": "active",
        "intent": "order",
        "code": {
          "coding": [
            {
              "code": "108252007",
              "system": "http://snomed.info/sct",
              "display": "Laboratory procedure"
            }
          ]
        },
        "subject": {
          "reference": "urn:uuid:40b0de9c-f3f0-4f27-9c3a-e397884fd9f8",
          "display": "Alfred Rémy"
        },
        "requester": {
          "reference": "urn:uuid:1a55c3ee-0172-41a8-b2b5-a41e2ba2e761"
        }
      }
    },
    {
      "fullUrl": "urn:uuid:1a55c3ee-0172-41a8-b2b5-a41e2ba2e761",
      "resource": {
        "resourceType": "PractitionerRole",
        "id": "1a55c3ee-0172-41a8-b2b5-a41e2ba2e761",
        "meta": {
          "profile": [
            "http://hl7.eu/fhir/base/StructureDefinition/practitionerRole-eu"
          ]
        },
        "text": {
          "status": "generated",
          "div": "<div xmlns=\"http://www.w3.org/1999/xhtml\">Provider Role Id: 1a55c3ee-0172-41a8-b2b5-a41e2ba2e761</div>"
        },
        "organization": {
          "reference": "urn:uuid:2e508541-e7e0-47b7-b8ac-b8103b2ba938"
        }
      }
    },
    {
      "fullUrl": "urn:uuid:2e508541-e7e0-47b7-b8ac-b8103b2ba938",
      "resource": {
        "resourceType": "Organization",
        "id": "2e508541-e7e0-47b7-b8ac-b8103b2ba938",
        "meta": {
          "profile": [
            "http://hl7.eu/fhir/base/StructureDefinition/organization-eu"
          ]
        },
        "identifier": [
          {
            "assigner": {
              "display": "HL7 Europe"
            },
            "system": "urn:oid:2.16.840.1.113883.2.51.999",
            "value": "00d24f7c-a833-47a6-99bc-c023ea0e8cc2"
          }
        ],
        "address": [
          {
            "city": "Paris",
            "postalCode": "75005",
            "country": "France"
          }
        ],
        "text": {
          "status": "generated",
          "div": "<div xmlns=\"http://www.w3.org/1999/xhtml\">Provider Organization: Maison des parents Irène Joliot-Curie</div>"
        },
        "name": "Maison des parents Irène Joliot-Curie"
      }
    },
    {
      "fullUrl": "urn:uuid:d4ea0579-6bf8-4493-bf66-09cfdb32e649",
      "resource": {
        "resourceType": "Specimen",
        "id": "d4ea0579-6bf8-4493-bf66-09cfdb32e649",
        "meta": {
          "profile": [
            "http://hl7.eu/fhir/laboratory/StructureDefinition/Specimen-eu-lab"
          ]
        },
        "collection": {
          "collectedDateTime": "2018-01-11"
        },
        "text": {
          "status": "generated",
          "div": "<div xmlns=\"http://www.w3.org/1999/xhtml\"><table class=\"hl7__eu__lab__report\"><tr><th>Specimen</th><th>Collection Date</th></tr><tr><td>Whole blood specimen (specimen)</td><td><span class=\"nb\">11-Jan-2018</span></td></tr></table></div>"
        },
        "type": {
          "coding": [
            {
              "code": "258580003",
              "system": "http://snomed.info/sct",
              "display": "Whole blood specimen (specimen)"
            }
          ]
        }
      }
    },
    {
      "fullUrl": "urn:uuid:c25bc919-c963-4592-a61c-482a602beb15",
      "resource": {
        "resourceType": "Specimen",
        "id": "c25bc919-c963-4592-a61c-482a602beb15",
        "meta": {
          "profile": [
            "http://hl7.eu/fhir/laboratory/StructureDefinition/Specimen-eu-lab"
          ]
        },
        "collection": {
          "collectedDateTime": "2018-01-11"
        },
        "text": {
          "status": "generated",
          "div": "<div xmlns=\"http://www.w3.org/1999/xhtml\"><table class=\"hl7__eu__lab__report\"><tr><th>Specimen</th><th>Collection Date</th></tr><tr><td>Acellular blood (serum or plasma) specimen</td><td><span class=\"nb\">11-Jan-2018</span></td></tr></table></div>"
        },
        "type": {
          "coding": [
            {
              "code": "122592007",
              "system": "http://snomed.info/sct",
              "display": "Acellular blood (serum or plasma) specimen"
            }
          ]
        }
      }
    },
    {
      "fullUrl": "urn:uuid:048da301-73d4-476b-b577-784cd074e276",
      "resource": {
        "resourceType": "Observation",
        "id": "048da301-73d4-476b-b577-784cd074e276",
        "meta": {
          "profile": [
            "http://hl7.eu/fhir/laboratory/StructureDefinition/Observation-resultslab-eu-lab"
          ]
        },
        "performer": [
          {
            "display": "The Central European Lab"
          }
        ],
        "category": [
          {
            "coding": [
              {
                "system": "http://terminology.hl7.org/CodeSystem/observation-category",
                "code": "laboratory"
              }
            ]
          }
        ],
        "code": {
          "coding": [
            {
              "code": "4548-4",
              "system": "http://loinc.org",
              "display": "Hemoglobin A1c/Hemoglobin.total in Blood"
            }
          ],
          "text": "Hemoglobin A1c/Hemoglobin.total in Blood"
        },
        "valueQuantity": {
          "system": "http://unitsofmeasure.org",
          "value": 5.8,
          "unit": "%",
          "code": "%"
        },
        "referenceRange": [
          {
            "low": {
              "value": 4.5,
              "code": "%",
              "system": "http://unitsofmeasure.org"
            }
          },
          {
            "high": {
              "value": 6.4,
              "code": "%",
              "system": "http://unitsofmeasure.org"
            }
          }
        ],
        "text": {
          "status": "generated",
          "div": "<div xmlns=\"http://www.w3.org/1999/xhtml\"><table class=\"hl7__eu__lab__report\"><tr><th>Test</th><th>11-Jan-2018</th><th>Reference&#xA0;Range</th><th>Unit</th></tr><tr><td>Hemoglobin A1c/Hemoglobin.total in Blood</td><td>5.8</td><td>4.5 - 6.4</td><td></td><td>%</td></tr></table></div>"
        },
        "status": "final",
        "subject": {
          "reference": "urn:uuid:40b0de9c-f3f0-4f27-9c3a-e397884fd9f8",
          "display": "Alfred Rémy"
        },
        "effectiveDateTime": "2018-01-11T06:54:36Z",
        "specimen": {
          "reference": "urn:uuid:d4ea0579-6bf8-4493-bf66-09cfdb32e649"
        }
      }
    },
    {
      "fullUrl": "urn:uuid:95fe1107-3e13-42f3-b0b8-8d1d23a9c88a",
      "resource": {
        "resourceType": "Observation",
        "id": "95fe1107-3e13-42f3-b0b8-8d1d23a9c88a",
        "meta": {
          "profile": [
            "http://hl7.eu/fhir/laboratory/StructureDefinition/Observation-resultslab-eu-lab"
          ]
        },
        "performer": [
          {
            "display": "The Central European Lab"
          }
        ],
        "category": [
          {
            "coding": [
              {
                "system": "http://terminology.hl7.org/CodeSystem/observation-category",
                "code": "laboratory"
              }
            ]
          }
        ],
        "code": {
          "coding": [
            {
              "code": "2339-0",
              "system": "http://loinc.org",
              "display": "Glucose [Mass/volume] in Blood"
            }
          ],
          "text": "Glucose [Mass/volume] in Blood"
        },
        "valueQuantity": {
          "system": "http://unitsofmeasure.org",
          "value": 69.9,
          "unit": "mg/dL",
          "code": "mg/dL"
        },
        "referenceRange": [
          {
            "low": {
              "value": 70,
              "code": "mg/dL",
              "system": "http://unitsofmeasure.org"
            }
          },
          {
            "high": {
              "value": 99,
              "code": "mg/dL",
              "system": "http://unitsofmeasure.org"
            }
          }
        ],
        "interpretation": [
          {
            "coding": [
              {
                "code": "L",
                "system": "http://terminology.hl7.org/CodeSystem/v3-ObservationInterpretation",
                "display": "Low"
              }
            ]
          }
        ],
        "text": {
          "status": "generated",
          "div": "<div xmlns=\"http://www.w3.org/1999/xhtml\"><table class=\"hl7__eu__lab__report\"><tr><th>Test</th><th>11-Jan-2018</th><th>Reference&#xA0;Range</th><th>Unit</th></tr><tr><td>Glucose [Mass/volume] in Blood</td><td>69.9</td><td>70 - 99</td><td>L</td><td>mg/dL</td></tr></table></div>"
        },
        "status": "final",
        "subject": {
          "reference": "urn:uuid:40b0de9c-f3f0-4f27-9c3a-e397884fd9f8",
          "display": "Alfred Rémy"
        },
        "effectiveDateTime": "2018-01-11T06:54:36Z",
        "specimen": {
          "reference": "urn:uuid:d4ea0579-6bf8-4493-bf66-09cfdb32e649"
        }
      }
    },
    {
      "fullUrl": "urn:uuid:076a02ad-7091-4a5b-b0e2-9b4b9011c418",
      "resource": {
        "resourceType": "Observation",
        "id": "076a02ad-7091-4a5b-b0e2-9b4b9011c418",
        "meta": {
          "profile": [
            "http://hl7.eu/fhir/laboratory/StructureDefinition/Observation-resultslab-eu-lab"
          ]
        },
        "performer": [
          {
            "display": "The Central European Lab"
          }
        ],
        "category": [
          {
            "coding": [
              {
                "system": "http://terminology.hl7.org/CodeSystem/observation-category",
                "code": "laboratory"
              }
            ]
          }
        ],
        "code": {
          "coding": [
            {
              "code": "6299-2",
              "system": "http://loinc.org",
              "display": "Urea nitrogen [Mass/volume] in Blood"
            }
          ],
          "text": "Urea nitrogen [Mass/volume] in Blood"
        },
        "valueQuantity": {
          "system": "http://unitsofmeasure.org",
          "value": 10.7,
          "unit": "mg/dL",
          "code": "mg/dL"
        },
        "referenceRange": [
          {
            "low": {
              "value": 7,
              "code": "mg/dL",
              "system": "http://unitsofmeasure.org"
            }
          },
          {
            "high": {
              "value": 20,
              "code": "mg/dL",
              "system": "http://unitsofmeasure.org"
            }
          }
        ],
        "text": {
          "status": "generated",
          "div": "<div xmlns=\"http://www.w3.org/1999/xhtml\"><table class=\"hl7__eu__lab__report\"><tr><th>Test</th><th>11-Jan-2018</th><th>Reference&#xA0;Range</th><th>Unit</th></tr><tr><td>Urea nitrogen [Mass/volume] in Blood</td><td>10.7</td><td>7 - 20</td><td></td><td>mg/dL</td></tr></table></div>"
        },
        "status": "final",
        "subject": {
          "reference": "urn:uuid:40b0de9c-f3f0-4f27-9c3a-e397884fd9f8",
          "display": "Alfred Rémy"
        },
        "effectiveDateTime": "2018-01-11T06:54:36Z",
        "specimen": {
          "reference": "urn:uuid:d4ea0579-6bf8-4493-bf66-09cfdb32e649"
        }
      }
    },
    {
      "fullUrl": "urn:uuid:0ff2b808-7c15-4dab-ba28-f55fe0a95861",
      "resource": {
        "resourceType": "Observation",
        "id": "0ff2b808-7c15-4dab-ba28-f55fe0a95861",
        "meta": {
          "profile": [
            "http://hl7.eu/fhir/laboratory/StructureDefinition/Observation-resultslab-eu-lab"
          ]
        },
        "performer": [
          {
            "display": "The Central European Lab"
          }
        ],
        "category": [
          {
            "coding": [
              {
                "system": "http://terminology.hl7.org/CodeSystem/observation-category",
                "code": "laboratory"
              }
            ]
          }
        ],
        "code": {
          "coding": [
            {
              "code": "38483-4",
              "system": "http://loinc.org",
              "display": "Creatinine [Mass/volume] in Blood"
            }
          ],
          "text": "Creatinine [Mass/volume] in Blood"
        },
        "valueQuantity": {
          "system": "http://unitsofmeasure.org",
          "value": 1.3,
          "unit": "mg/dL",
          "code": "mg/dL"
        },
        "referenceRange": [
          {
            "low": {
              "value": 0.7,
              "code": "mg/dL",
              "system": "http://unitsofmeasure.org"
            }
          },
          {
            "high": {
              "value": 1.3,
              "code": "mg/dL",
              "system": "http://unitsofmeasure.org"
            }
          }
        ],
        "text": {
          "status": "generated",
          "div": "<div xmlns=\"http://www.w3.org/1999/xhtml\"><table class=\"hl7__eu__lab__report\"><tr><th>Test</th><th>11-Jan-2018</th><th>Reference&#xA0;Range</th><th>Unit</th></tr><tr><td>Creatinine [Mass/volume] in Blood</td><td>1.3</td><td>0.7 - 1.3</td><td></td><td>mg/dL</td></tr></table></div>"
        },
        "status": "final",
        "subject": {
          "reference": "urn:uuid:40b0de9c-f3f0-4f27-9c3a-e397884fd9f8",
          "display": "Alfred Rémy"
        },
        "effectiveDateTime": "2018-01-11T06:54:36Z",
        "specimen": {
          "reference": "urn:uuid:d4ea0579-6bf8-4493-bf66-09cfdb32e649"
        }
      }
    },
    {
      "fullUrl": "urn:uuid:75d4980e-43ac-4163-88c7-4ad6aabdae7a",
      "resource": {
        "resourceType": "Observation",
        "id": "75d4980e-43ac-4163-88c7-4ad6aabdae7a",
        "meta": {
          "profile": [
            "http://hl7.eu/fhir/laboratory/StructureDefinition/Observation-resultslab-eu-lab"
          ]
        },
        "performer": [
          {
            "display": "The Central European Lab"
          }
        ],
        "category": [
          {
            "coding": [
              {
                "system": "http://terminology.hl7.org/CodeSystem/observation-category",
                "code": "laboratory"
              }
            ]
          }
        ],
        "code": {
          "coding": [
            {
              "code": "49765-1",
              "system": "http://loinc.org",
              "display": "Calcium [Mass/volume] in Blood"
            }
          ],
          "text": "Calcium [Mass/volume] in Blood"
        },
        "valueQuantity": {
          "system": "http://unitsofmeasure.org",
          "value": 9.2,
          "unit": "mg/dL",
          "code": "mg/dL"
        },
        "referenceRange": [
          {
            "low": {
              "value": 8.5,
              "code": "mg/dL",
              "system": "http://unitsofmeasure.org"
            }
          },
          {
            "high": {
              "value": 10.5,
              "code": "mg/dL",
              "system": "http://unitsofmeasure.org"
            }
          }
        ],
        "text": {
          "status": "generated",
          "div": "<div xmlns=\"http://www.w3.org/1999/xhtml\"><table class=\"hl7__eu__lab__report\"><tr><th>Test</th><th>11-Jan-2018</th><th>Reference&#xA0;Range</th><th>Unit</th></tr><tr><td>Calcium [Mass/volume] in Blood</td><td>9.2</td><td>8.5 - 10.5</td><td></td><td>mg/dL</td></tr></table></div>"
        },
        "status": "final",
        "subject": {
          "reference": "urn:uuid:40b0de9c-f3f0-4f27-9c3a-e397884fd9f8",
          "display": "Alfred Rémy"
        },
        "effectiveDateTime": "2018-01-11T06:54:36Z",
        "specimen": {
          "reference": "urn:uuid:d4ea0579-6bf8-4493-bf66-09cfdb32e649"
        }
      }
    },
    {
      "fullUrl": "urn:uuid:ee50e7e3-7f6c-459c-a11e-65d517be85f1",
      "resource": {
        "resourceType": "Observation",
        "id": "ee50e7e3-7f6c-459c-a11e-65d517be85f1",
        "meta": {
          "profile": [
            "http://hl7.eu/fhir/laboratory/StructureDefinition/Observation-resultslab-eu-lab"
          ]
        },
        "performer": [
          {
            "display": "The Central European Lab"
          }
        ],
        "category": [
          {
            "coding": [
              {
                "system": "http://terminology.hl7.org/CodeSystem/observation-category",
                "code": "laboratory"
              }
            ]
          }
        ],
        "code": {
          "coding": [
            {
              "code": "2947-0",
              "system": "http://loinc.org",
              "display": "Sodium [Moles/volume] in Blood"
            }
          ],
          "text": "Sodium [Moles/volume] in Blood"
        },
        "valueQuantity": {
          "system": "http://unitsofmeasure.org",
          "value": 139.1,
          "unit": "mmol/L",
          "code": "mmol/L"
        },
        "referenceRange": [
          {
            "low": {
              "value": 135,
              "code": "mmol/L",
              "system": "http://unitsofmeasure.org"
            }
          },
          {
            "high": {
              "value": 145,
              "code": "mmol/L",
              "system": "http://unitsofmeasure.org"
            }
          }
        ],
        "text": {
          "status": "generated",
          "div": "<div xmlns=\"http://www.w3.org/1999/xhtml\"><table class=\"hl7__eu__lab__report\"><tr><th>Test</th><th>11-Jan-2018</th><th>Reference&#xA0;Range</th><th>Unit</th></tr><tr><td>Sodium [Moles/volume] in Blood</td><td>139.1</td><td>135 - 145</td><td></td><td>mmol/L</td></tr></table></div>"
        },
        "status": "final",
        "subject": {
          "reference": "urn:uuid:40b0de9c-f3f0-4f27-9c3a-e397884fd9f8",
          "display": "Alfred Rémy"
        },
        "effectiveDateTime": "2018-01-11T06:54:36Z",
        "specimen": {
          "reference": "urn:uuid:d4ea0579-6bf8-4493-bf66-09cfdb32e649"
        }
      }
    },
    {
      "fullUrl": "urn:uuid:88a84d91-dfd2-47f3-a216-cbe77b5c247a",
      "resource": {
        "resourceType": "Observation",
        "id": "88a84d91-dfd2-47f3-a216-cbe77b5c247a",
        "meta": {
          "profile": [
            "http://hl7.eu/fhir/laboratory/StructureDefinition/Observation-resultslab-eu-lab"
          ]
        },
        "performer": [
          {
            "display": "The Central European Lab"
          }
        ],
        "category": [
          {
            "coding": [
              {
                "system": "http://terminology.hl7.org/CodeSystem/observation-category",
                "code": "laboratory"
              }
            ]
          }
        ],
        "code": {
          "coding": [
            {
              "code": "6298-4",
              "system": "http://loinc.org",
              "display": "Potassium [Moles/volume] in Blood"
            }
          ],
          "text": "Potassium [Moles/volume] in Blood"
        },
        "valueQuantity": {
          "system": "http://unitsofmeasure.org",
          "value": 4.9,
          "unit": "mmol/L",
          "code": "mmol/L"
        },
        "referenceRange": [
          {
            "low": {
              "value": 3.5,
              "code": "mmol/L",
              "system": "http://unitsofmeasure.org"
            }
          },
          {
            "high": {
              "value": 5.3,
              "code": "mmol/L",
              "system": "http://unitsofmeasure.org"
            }
          }
        ],
        "text": {
          "status": "generated",
          "div": "<div xmlns=\"http://www.w3.org/1999/xhtml\"><table class=\"hl7__eu__lab__report\"><tr><th>Test</th><th>11-Jan-2018</th><th>Reference&#xA0;Range</th><th>Unit</th></tr><tr><td>Potassium [Moles/volume] in Blood</td><td>4.9</td><td>3.5 - 5.3</td><td></td><td>mmol/L</td></tr></table></div>"
        },
        "status": "final",
        "subject": {
          "reference": "urn:uuid:40b0de9c-f3f0-4f27-9c3a-e397884fd9f8",
          "display": "Alfred Rémy"
        },
        "effectiveDateTime": "2018-01-11T06:54:36Z",
        "specimen": {
          "reference": "urn:uuid:d4ea0579-6bf8-4493-bf66-09cfdb32e649"
        }
      }
    },
    {
      "fullUrl": "urn:uuid:dff0f749-9021-49a1-a6e1-5cbfc5f9f9ce",
      "resource": {
        "resourceType": "Observation",
        "id": "dff0f749-9021-49a1-a6e1-5cbfc5f9f9ce",
        "meta": {
          "profile": [
            "http://hl7.eu/fhir/laboratory/StructureDefinition/Observation-resultslab-eu-lab"
          ]
        },
        "performer": [
          {
            "display": "The Central European Lab"
          }
        ],
        "category": [
          {
            "coding": [
              {
                "system": "http://terminology.hl7.org/CodeSystem/observation-category",
                "code": "laboratory"
              }
            ]
          }
        ],
        "code": {
          "coding": [
            {
              "code": "2069-3",
              "system": "http://loinc.org",
              "display": "Chloride [Moles/volume] in Blood"
            }
          ],
          "text": "Chloride [Moles/volume] in Blood"
        },
        "valueQuantity": {
          "system": "http://unitsofmeasure.org",
          "value": 102.7,
          "unit": "mmol/L",
          "code": "mmol/L"
        },
        "referenceRange": [
          {
            "low": {
              "value": 98,
              "code": "mmol/L",
              "system": "http://unitsofmeasure.org"
            }
          },
          {
            "high": {
              "value": 110,
              "code": "mmol/L",
              "system": "http://unitsofmeasure.org"
            }
          }
        ],
        "text": {
          "status": "generated",
          "div": "<div xmlns=\"http://www.w3.org/1999/xhtml\"><table class=\"hl7__eu__lab__report\"><tr><th>Test</th><th>11-Jan-2018</th><th>Reference&#xA0;Range</th><th>Unit</th></tr><tr><td>Chloride [Moles/volume] in Blood</td><td>102.7</td><td>98 - 110</td><td></td><td>mmol/L</td></tr></table></div>"
        },
        "status": "final",
        "subject": {
          "reference": "urn:uuid:40b0de9c-f3f0-4f27-9c3a-e397884fd9f8",
          "display": "Alfred Rémy"
        },
        "effectiveDateTime": "2018-01-11T06:54:36Z",
        "specimen": {
          "reference": "urn:uuid:d4ea0579-6bf8-4493-bf66-09cfdb32e649"
        }
      }
    },
    {
      "fullUrl": "urn:uuid:736ea5c2-0415-4876-ab03-cd8ba4e99a25",
      "resource": {
        "resourceType": "Observation",
        "id": "736ea5c2-0415-4876-ab03-cd8ba4e99a25",
        "meta": {
          "profile": [
            "http://hl7.eu/fhir/laboratory/StructureDefinition/Observation-resultslab-eu-lab"
          ]
        },
        "performer": [
          {
            "display": "The Central European Lab"
          }
        ],
        "category": [
          {
            "coding": [
              {
                "system": "http://terminology.hl7.org/CodeSystem/observation-category",
                "code": "laboratory"
              }
            ]
          }
        ],
        "code": {
          "coding": [
            {
              "code": "20565-8",
              "system": "http://loinc.org",
              "display": "Carbon dioxide, total [Moles/volume] in Blood"
            }
          ],
          "text": "Carbon dioxide, total [Moles/volume] in Blood"
        },
        "valueQuantity": {
          "system": "http://unitsofmeasure.org",
          "value": 27.4,
          "unit": "mmol/L",
          "code": "mmol/L"
        },
        "referenceRange": [
          {
            "low": {
              "value": 22,
              "code": "mmol/L",
              "system": "http://unitsofmeasure.org"
            }
          },
          {
            "high": {
              "value": 29,
              "code": "mmol/L",
              "system": "http://unitsofmeasure.org"
            }
          }
        ],
        "text": {
          "status": "generated",
          "div": "<div xmlns=\"http://www.w3.org/1999/xhtml\"><table class=\"hl7__eu__lab__report\"><tr><th>Test</th><th>11-Jan-2018</th><th>Reference&#xA0;Range</th><th>Unit</th></tr><tr><td>Carbon dioxide, total [Moles/volume] in Blood</td><td>27.4</td><td>22 - 29</td><td></td><td>mmol/L</td></tr></table></div>"
        },
        "status": "final",
        "subject": {
          "reference": "urn:uuid:40b0de9c-f3f0-4f27-9c3a-e397884fd9f8",
          "display": "Alfred Rémy"
        },
        "effectiveDateTime": "2018-01-11T06:54:36Z",
        "specimen": {
          "reference": "urn:uuid:d4ea0579-6bf8-4493-bf66-09cfdb32e649"
        }
      }
    },
    {
      "fullUrl": "urn:uuid:0f333fcd-2052-4b00-9f98-cef090811e0f",
      "resource": {
        "resourceType": "Observation",
        "id": "0f333fcd-2052-4b00-9f98-cef090811e0f",
        "meta": {
          "profile": [
            "http://hl7.eu/fhir/laboratory/StructureDefinition/Observation-resultslab-eu-lab"
          ]
        },
        "performer": [
          {
            "display": "The Central European Lab"
          }
        ],
        "category": [
          {
            "coding": [
              {
                "system": "http://terminology.hl7.org/CodeSystem/observation-category",
                "code": "laboratory"
              }
            ]
          }
        ],
        "code": {
          "coding": [
            {
              "code": "2093-3",
              "system": "http://loinc.org",
              "display": "Cholesterol [Mass/volume] in Serum or Plasma"
            }
          ],
          "text": "Cholesterol [Mass/volume] in Serum or Plasma"
        },
        "valueQuantity": {
          "system": "http://unitsofmeasure.org",
          "value": 139,
          "unit": "mg/dL",
          "code": "mg/dL"
        },
        "referenceRange": [
          {
            "low": {
              "value": 125,
              "code": "mg/dL",
              "system": "http://unitsofmeasure.org"
            }
          },
          {
            "high": {
              "value": 200,
              "code": "mg/dL",
              "system": "http://unitsofmeasure.org"
            }
          }
        ],
        "text": {
          "status": "generated",
          "div": "<div xmlns=\"http://www.w3.org/1999/xhtml\"><table class=\"hl7__eu__lab__report\"><tr><th>Test</th><th>11-Jan-2018</th><th>Reference&#xA0;Range</th><th>Unit</th></tr><tr><td>Cholesterol [Mass/volume] in Serum or Plasma</td><td>139.0</td><td>125 - 200</td><td></td><td>mg/dL</td></tr></table></div>"
        },
        "status": "final",
        "subject": {
          "reference": "urn:uuid:40b0de9c-f3f0-4f27-9c3a-e397884fd9f8",
          "display": "Alfred Rémy"
        },
        "effectiveDateTime": "2018-01-11T06:54:36Z",
        "specimen": {
          "reference": "urn:uuid:c25bc919-c963-4592-a61c-482a602beb15"
        }
      }
    },
    {
      "fullUrl": "urn:uuid:8fef321c-ca73-48c7-a1d3-692a9a8ce34b",
      "resource": {
        "resourceType": "Observation",
        "id": "8fef321c-ca73-48c7-a1d3-692a9a8ce34b",
        "meta": {
          "profile": [
            "http://hl7.eu/fhir/laboratory/StructureDefinition/Observation-resultslab-eu-lab"
          ]
        },
        "performer": [
          {
            "display": "The Central European Lab"
          }
        ],
        "category": [
          {
            "coding": [
              {
                "system": "http://terminology.hl7.org/CodeSystem/observation-category",
                "code": "laboratory"
              }
            ]
          }
        ],
        "code": {
          "coding": [
            {
              "code": "2571-8",
              "system": "http://loinc.org",
              "display": "Triglyceride [Mass/volume] in Serum or Plasma"
            }
          ],
          "text": "Triglyceride [Mass/volume] in Serum or Plasma"
        },
        "valueQuantity": {
          "system": "http://unitsofmeasure.org",
          "value": 142.2,
          "unit": "mg/dL",
          "code": "mg/dL"
        },
        "referenceRange": [
          {
            "low": {
              "value": 0,
              "code": "mg/dL",
              "system": "http://unitsofmeasure.org"
            }
          },
          {
            "high": {
              "value": 150,
              "code": "mg/dL",
              "system": "http://unitsofmeasure.org"
            }
          }
        ],
        "text": {
          "status": "generated",
          "div": "<div xmlns=\"http://www.w3.org/1999/xhtml\"><table class=\"hl7__eu__lab__report\"><tr><th>Test</th><th>11-Jan-2018</th><th>Reference&#xA0;Range</th><th>Unit</th></tr><tr><td>Triglyceride [Mass/volume] in Serum or Plasma</td><td>142.2</td><td>0 - 150</td><td></td><td>mg/dL</td></tr></table></div>"
        },
        "status": "final",
        "subject": {
          "reference": "urn:uuid:40b0de9c-f3f0-4f27-9c3a-e397884fd9f8",
          "display": "Alfred Rémy"
        },
        "effectiveDateTime": "2018-01-11T06:54:36Z",
        "specimen": {
          "reference": "urn:uuid:c25bc919-c963-4592-a61c-482a602beb15"
        }
      }
    },
    {
      "fullUrl": "urn:uuid:b73c26bf-2795-4f8f-b423-06ecc42902aa",
      "resource": {
        "resourceType": "Observation",
        "id": "b73c26bf-2795-4f8f-b423-06ecc42902aa",
        "meta": {
          "profile": [
            "http://hl7.eu/fhir/laboratory/StructureDefinition/Observation-resultslab-eu-lab"
          ]
        },
        "performer": [
          {
            "display": "The Central European Lab"
          }
        ],
        "category": [
          {
            "coding": [
              {
                "system": "http://terminology.hl7.org/CodeSystem/observation-category",
                "code": "laboratory"
              }
            ]
          }
        ],
        "code": {
          "coding": [
            {
              "code": "18262-6",
              "system": "http://loinc.org",
              "display": "Cholesterol in LDL [Mass/volume] in Serum or Plasma by Direct assay"
            }
          ],
          "text": "Cholesterol in LDL [Mass/volume] in Serum or Plasma by Direct assay"
        },
        "valueQuantity": {
          "system": "http://unitsofmeasure.org",
          "value": 56,
          "unit": "mg/dL",
          "code": "mg/dL"
        },
        "referenceRange": [
          {
            "low": {
              "value": 0,
              "code": "mg/dL",
              "system": "http://unitsofmeasure.org"
            }
          },
          {
            "high": {
              "value": 130,
              "code": "mg/dL",
              "system": "http://unitsofmeasure.org"
            }
          }
        ],
        "text": {
          "status": "generated",
          "div": "<div xmlns=\"http://www.w3.org/1999/xhtml\"><table class=\"hl7__eu__lab__report\"><tr><th>Test</th><th>11-Jan-2018</th><th>Reference&#xA0;Range</th><th>Unit</th></tr><tr><td>Cholesterol in LDL [Mass/volume] in Serum or Plasma by Direct assay</td><td>56.0</td><td>0 - 130</td><td></td><td>mg/dL</td></tr></table></div>"
        },
        "status": "final",
        "subject": {
          "reference": "urn:uuid:40b0de9c-f3f0-4f27-9c3a-e397884fd9f8",
          "display": "Alfred Rémy"
        },
        "effectiveDateTime": "2018-01-11T06:54:36Z",
        "specimen": {
          "reference": "urn:uuid:c25bc919-c963-4592-a61c-482a602beb15"
        }
      }
    },
    {
      "fullUrl": "urn:uuid:608dea6d-b718-4c86-9491-9ed3f6dbe914",
      "resource": {
        "resourceType": "Observation",
        "id": "608dea6d-b718-4c86-9491-9ed3f6dbe914",
        "meta": {
          "profile": [
            "http://hl7.eu/fhir/laboratory/StructureDefinition/Observation-resultslab-eu-lab"
          ]
        },
        "performer": [
          {
            "display": "The Central European Lab"
          }
        ],
        "category": [
          {
            "coding": [
              {
                "system": "http://terminology.hl7.org/CodeSystem/observation-category",
                "code": "laboratory"
              }
            ]
          }
        ],
        "code": {
          "coding": [
            {
              "code": "2085-9",
              "system": "http://loinc.org",
              "display": "Cholesterol in HDL [Mass/volume] in Serum or Plasma"
            }
          ],
          "text": "Cholesterol in HDL [Mass/volume] in Serum or Plasma"
        },
        "valueQuantity": {
          "system": "http://unitsofmeasure.org",
          "value": 54.6,
          "unit": "mg/dL",
          "code": "mg/dL"
        },
        "referenceRange": [
          {
            "low": {
              "value": 40,
              "code": "mg/dL",
              "system": "http://unitsofmeasure.org"
            }
          },
          {
            "high": {
              "value": 60,
              "code": "mg/dL",
              "system": "http://unitsofmeasure.org"
            }
          }
        ],
        "text": {
          "status": "generated",
          "div": "<div xmlns=\"http://www.w3.org/1999/xhtml\"><table class=\"hl7__eu__lab__report\"><tr><th>Test</th><th>11-Jan-2018</th><th>Reference&#xA0;Range</th><th>Unit</th></tr><tr><td>Cholesterol in HDL [Mass/volume] in Serum or Plasma</td><td>54.6</td><td>40 - 60</td><td></td><td>mg/dL</td></tr></table></div>"
        },
        "status": "final",
        "subject": {
          "reference": "urn:uuid:40b0de9c-f3f0-4f27-9c3a-e397884fd9f8",
          "display": "Alfred Rémy"
        },
        "effectiveDateTime": "2018-01-11T06:54:36Z",
        "specimen": {
          "reference": "urn:uuid:c25bc919-c963-4592-a61c-482a602beb15"
        }
      }
    },
    {
      "fullUrl": "urn:uuid:8bf69e05-d898-407b-bf23-44ebb4a084fb",
      "resource": {
        "resourceType": "Device",
        "id": "8bf69e05-d898-407b-bf23-44ebb4a084fb",
        "deviceName": [
          {
            "name": "SYNDERAI Synthetic Generator",
            "type": "manufacturer-name"
          }
        ],
        "version": [
          {
            "value": "5.0"
          }
        ],
        "text": {
          "status": "generated",
          "div": "<div xmlns=\"http://www.w3.org/1999/xhtml\">SYNDERAI Synthetic Generator v5.0</div>"
        },
        "status": "active\"",
        "distinctIdentifier": "synderai-generator-50",
        "manufacturer": "SYNDERAI Project"
      }
    },
    {
      "fullUrl": "urn:uuid:0b8cc190-bac8-40fd-8083-1ddc62f58a56",
      "resource": {
        "resourceType": "Provenance",
        "id": "0b8cc190-bac8-40fd-8083-1ddc62f58a56",
        "target": [
          {
            "reference": "Patient/40b0de9c-f3f0-4f27-9c3a-e397884fd9f8"
          },
          {
            "reference": "Bundle/ab622d0e-9661-4590-b8aa-47557d0856f7"
          },
          {
            "reference": "Composition/f0647e87-0e90-4091-b7d8-efb9ddf104c3"
          },
          {
            "reference": "PractitionerRole/dec00a08-64cf-4776-a9e5-bf1cd0d07aea"
          },
          {
            "reference": "Practitioner/9379d2ab-6acc-4565-9d7d-8e4dd10bb46c"
          },
          {
            "reference": "PractitionerRole/1a55c3ee-0172-41a8-b2b5-a41e2ba2e761"
          },
          {
            "reference": "Organization/2e508541-e7e0-47b7-b8ac-b8103b2ba938"
          }
        ],
        "activity": {
          "text": "Synthetic Example Data Generation"
        },
        "policy": [
          "https://synderai.net/synderai-synthetic-data-policy"
        ],
        "agent": [
          {
            "type": {
              "text": "author"
            },
            "who": {
              "reference": "Device/8bf69e05-d898-407b-bf23-44ebb4a084fb"
            }
          }
        ],
        "reason": [
          {
            "text": "Interoperability Testing and Training (non-clinical use)"
          }
        ],
        "text": {
          "status": "generated",
          "div": "<div xmlns=\"http://www.w3.org/1999/xhtml\">Provenance for SYNDERAI Synthetic Example Data Resource</div>"
        },
        "recorded": "2018-01-11T07:54:36Z"
      }
    },
    {
      "fullUrl": "urn:uuid:dec00a08-64cf-4776-a9e5-bf1cd0d07aea",
      "resource": {
        "resourceType": "PractitionerRole",
        "id": "dec00a08-64cf-4776-a9e5-bf1cd0d07aea",
        "meta": {
          "profile": [
            "http://hl7.eu/fhir/base/StructureDefinition/practitionerRole-eu"
          ]
        },
        "text": {
          "status": "generated",
          "div": "<div xmlns=\"http://www.w3.org/1999/xhtml\">Laboratory Role Id: dec00a08-64cf-4776-a9e5-bf1cd0d07aea</div>"
        },
        "practitioner": {
          "reference": "urn:uuid:9379d2ab-6acc-4565-9d7d-8e4dd10bb46c"
        }
      }
    },
    {
      "fullUrl": "urn:uuid:9379d2ab-6acc-4565-9d7d-8e4dd10bb46c",
      "resource": {
        "resourceType": "Practitioner",
        "id": "9379d2ab-6acc-4565-9d7d-8e4dd10bb46c",
        "meta": {
          "profile": [
            "http://hl7.eu/fhir/base/StructureDefinition/practitioner-eu"
          ]
        },
        "identifier": [
          {
            "assigner": {
              "display": "HL7 Europe"
            },
            "system": "urn:oid:2.16.840.1.113883.2.51.999",
            "value": "736bb897-e8c0-4b7a-980a-8b202fdb8f26"
          }
        ],
        "name": [
          {
            "prefix": [
              "dr"
            ],
            "given": [
              "Ex"
            ],
            "family": "Ample"
          }
        ],
        "address": [
          {
            "line": [
              "Laboratoire Central Européenne",
              "Boulevard du Jardin Botanique 32"
            ],
            "postalCode": "1000",
            "city": "Brussels",
            "country": "Belgium"
          }
        ],
        "text": {
          "status": "generated",
          "div": "<div xmlns=\"http://www.w3.org/1999/xhtml\">Laboratory: Laboratoire Central Européenne, 1000 Brussels, Belgium</div>"
        }
      }
    }
  ],
  "type": "document",
  "timestamp": "2018-01-11T07:54:36Z"
}
