{
  "resourceType": "Bundle",
  "id": "c3e3ef99-37cd-4ffd-ae32-d21736dcf852",
  "meta": {
    "profile": [
      "http://hl7.eu/fhir/laboratory/StructureDefinition/Bundle-eu-lab"
    ]
  },
  "identifier": {
    "assigner": {
      "display": "HL7 Europe"
    },
    "system": "urn:oid:2.16.840.1.113883.2.51.999",
    "value": "add99f94-09f9-48f3-9e4c-92a578091467"
  },
  "entry": [
    {
      "fullUrl": "urn:uuid:68de35d1-1355-467b-935f-6fbe2d7d54c3",
      "resource": {
        "resourceType": "Composition",
        "id": "68de35d1-1355-467b-935f-6fbe2d7d54c3",
        "meta": {
          "profile": [
            "http://hl7.eu/fhir/laboratory/StructureDefinition/Composition-eu-lab"
          ]
        },
        "identifier": {
          "assigner": {
            "display": "HL7 Europe"
          },
          "system": "urn:oid:2.16.840.1.113883.2.51.999",
          "value": "85fc5775-408e-44d3-a2bd-16987f698410"
        },
        "author": [
          {
            "reference": "urn:uuid:d4b996de-ebdc-44cf-95b8-826848c5c033"
          }
        ],
        "category": [
          {
            "coding": [
              {
                "code": "26436-6",
                "system": "http://loinc.org",
                "display": "Laboratory studies (set)"
              }
            ]
          }
        ],
        "type": {
          "coding": [
            {
              "code": "11502-2",
              "system": "http://loinc.org",
              "display": "Laboratory report"
            }
          ],
          "text": "Laboratory Report"
        },
        "section": [
          {
            "code": {
              "coding": [
                {
                  "code": "26436-6",
                  "system": "http://loinc.org",
                  "display": "Laboratory studies (set)"
                }
              ],
              "text": "Laboratory studies"
            },
            "section": [
              {
                "code": {
                  "coding": [
                    {
                      "code": "$18719-5",
                      "system": "http://loinc.org",
                      "display": "Chemistry studies (set)"
                    }
                  ],
                  "text": "Chemistry"
                },
                "entry": [
                  {
                    "reference": "urn:uuid:ca0f4344-9406-4feb-a2bb-67d565f9089e"
                  }
                ],
                "text": {
                  "status": "generated",
                  "div": "<div xmlns=\"http://www.w3.org/1999/xhtml\"><h3>Chemistry</h3><table class=\"hl7__eu__lab__report\"><thead><tr><th>Test</th><th>02-NOV-2021</th><th>Reference&#xA0;Range</th><th>Unit</th></tr></thead><tbody><tr><td>Ketones [Presence] in Urine by Test strip</td><td>Urine ketone test negative</td><td></td><td></td></tr></tbody></table></div>"
                },
                "title": "Chemistry"
              },
              {
                "code": {
                  "coding": [
                    {
                      "code": "$18729-4",
                      "system": "http://loinc.org",
                      "display": "Urinalysis studies (set)"
                    }
                  ],
                  "text": "Urinalysis"
                },
                "entry": [
                  {
                    "reference": "urn:uuid:d588269d-2b98-4bad-8888-c036b16fcee2"
                  },
                  {
                    "reference": "urn:uuid:4c1c1fe5-1016-4e2e-b15a-6478029d3201"
                  },
                  {
                    "reference": "urn:uuid:1c11ce44-7566-481c-b87a-a317bcf526a5"
                  },
                  {
                    "reference": "urn:uuid:5ed9949b-0825-4fd4-9cee-9c9449f53f6b"
                  },
                  {
                    "reference": "urn:uuid:e3877373-5110-479b-9392-c106a4918be7"
                  },
                  {
                    "reference": "urn:uuid:291562cd-1f1c-4751-a03b-2e9278cc0f3f"
                  },
                  {
                    "reference": "urn:uuid:368fbed1-01f5-4e1c-adbb-a855d83b66d6"
                  },
                  {
                    "reference": "urn:uuid:c7e6d3d6-c85f-4ae8-8ddb-884c1bda649e"
                  },
                  {
                    "reference": "urn:uuid:0e0404fb-46e6-41fd-b225-4500d8c6aac4"
                  },
                  {
                    "reference": "urn:uuid:e5d2c782-3af6-4924-9f92-e365e273bfb9"
                  },
                  {
                    "reference": "urn:uuid:2f2eeb63-b065-4ad1-89ab-0088fc7fec2e"
                  },
                  {
                    "reference": "urn:uuid:5c18724f-9258-4a15-947b-531010fcffcd"
                  },
                  {
                    "reference": "urn:uuid:f24a3638-d887-4835-8245-43992f3151c2"
                  }
                ],
                "text": {
                  "status": "generated",
                  "div": "<div xmlns=\"http://www.w3.org/1999/xhtml\"><h3>Urinalysis</h3><table class=\"hl7__eu__lab__report\"><thead><tr><th>Test</th><th>02-NOV-2021</th><th>Reference&#xA0;Range</th><th>Unit</th></tr></thead><tbody><tr><td>Glucose [Mass/volume] in Urine by Test strip</td><td>11.0</td><td>0 - 15</td><td>mg/dL</td></tr><tr><td>Specific gravity of Urine by Test strip</td><td><strong>1.0 L</strong></td><td>1.005 - 1.03</td><td>{nominal}</td></tr><tr><td>pH of Urine by Test strip</td><td>6.4</td><td>4.6 - 7</td><td>pH</td></tr><tr><td>Protein [Mass/volume] in Urine by Test strip</td><td>8.7</td><td>0 - 15</td><td>mg/dL</td></tr><tr><td>Nitrite [Presence] in Urine by Test strip</td><td>Urine nitrite positive</td><td></td><td></td></tr><tr><td>Hemoglobin [Presence] in Urine by Test strip</td><td>Urine blood test = +</td><td></td><td></td></tr><tr><td>Leukocyte esterase [Presence] in Urine by Test strip</td><td>Urine leukocyte test</td><td></td><td></td></tr><tr><td>Leukocytes [#/area] in Urine sediment by Microscopy high power field</td><td>26.7</td><td>0 - 30</td><td>/[HPF]</td></tr><tr><td>Erythrocytes [#/area] in Urine sediment by Microscopy high power field</td><td>2.6</td><td>0 - 5</td><td>/[HPF]</td></tr><tr><td>Epithelial cells [#/area] in Urine sediment by Microscopy high power field</td><td>1.3</td><td>0 - 5</td><td>/[HPF]</td></tr><tr><td>Casts [Presence] in Urine sediment by Light microscopy</td><td>Urine microscopy: no casts</td><td></td><td></td></tr><tr><td>Mucus [Presence] in Urine sediment by Light microscopy</td><td>Mucus in urine</td><td></td><td></td></tr><tr><td>Bacteria [#/area] in Urine sediment by Microscopy high power field</td><td>Finding of presence of bacteria</td><td></td><td></td></tr></tbody></table></div>"
                },
                "title": "Urinalysis"
              },
              {
                "code": {
                  "coding": [
                    {
                      "code": "$18725-2",
                      "system": "http://loinc.org",
                      "display": "Microbiology studies"
                    }
                  ],
                  "text": "Microbiology"
                },
                "entry": [
                  {
                    "reference": "urn:uuid:4fb9403f-ab1a-4459-a81c-e1a81a3a2f7f"
                  }
                ],
                "text": {
                  "status": "generated",
                  "div": "<div xmlns=\"http://www.w3.org/1999/xhtml\"><h3>Microbiology</h3><table class=\"hl7__eu__lab__report\"><thead><tr><th>Test</th><th>02-NOV-2021</th><th>Reference&#xA0;Range</th><th>Unit</th></tr></thead><tbody><tr><td>Bacteria identified in Urine by Culture</td><td></td><td></td><td></td></tr></tbody></table></div>"
                },
                "title": "Microbiology"
              }
            ],
            "title": "Laboratory Report"
          },
          {
            "text": {
              "status": "generated",
              "div": "<div xmlns=\"http://www.w3.org/1999/xhtml\"><h3>Annotation</h3><table class=\"hl7__eu__lab__report\"><tr><th>Conclusion and Recommendations based on this report and previous findings known to us</th></tr><tr><td>The urine findings indicate a urinary tract infection (UTI) with significant bacteriuria (&gt;100,000 CFU/mL E. coli), positive nitrites, leukocyte esterase, and presence of leukocytes, erythrocytes, and bacteria. Low specific gravity may suggest dilute urine. No casts were seen. Recommend clinical correlation and appropriate antibiotic therapy based on sensitivity testing.</td></tr></table></div>"
            },
            "code": {
              "coding": [
                {
                  "system": "http://loinc.org",
                  "code": "48767-8",
                  "display": "Annotation comment"
                }
              ]
            },
            "title": "Annotation comment"
          }
        ],
        "status": "final",
        "subject": {
          "reference": "urn:uuid:402d9f84-3ff2-4697-aa3d-6eca086a65ab",
          "display": "Russell Khan"
        },
        "date": "2021-11-02T07:32:15Z",
        "title": "Laboratory Report",
        "confidentiality": "N"
      }
    },
    {
      "fullUrl": "urn:uuid:b874d4b0-96dc-44d6-95da-8d7764566030",
      "resource": {
        "resourceType": "DiagnosticReport",
        "id": "b874d4b0-96dc-44d6-95da-8d7764566030",
        "meta": {
          "profile": [
            "http://hl7.eu/fhir/laboratory/StructureDefinition/DiagnosticReport-eu-lab"
          ]
        },
        "identifier": [
          {
            "assigner": {
              "display": "HL7 Europe"
            },
            "system": "urn:oid:2.16.840.1.113883.2.51.999",
            "value": "247cec0f-6ef2-4998-adb2-93d6d34b893a"
          }
        ],
        "extension": [
          {
            "url": "http://hl7.org/fhir/5.0/StructureDefinition/extension-DiagnosticReport.composition",
            "valueReference": {
              "reference": "urn:uuid:85fc5775-408e-44d3-a2bd-16987f698410"
            }
          }
        ],
        "category": [
          {
            "coding": [
              {
                "code": "26436-6",
                "system": "http://loinc.org",
                "display": "Laboratory studies (set)"
              }
            ]
          }
        ],
        "specimen": [
          {
            "reference": "urn:uuid:684eada9-dce1-44da-b85e-e5e7d4cbdbcd"
          },
          {
            "reference": "urn:uuid:d2b34bcd-f1e5-4acd-a5da-2952f6d8ee22"
          }
        ],
        "result": [
          {
            "reference": "urn:uuid:d588269d-2b98-4bad-8888-c036b16fcee2"
          },
          {
            "reference": "urn:uuid:ca0f4344-9406-4feb-a2bb-67d565f9089e"
          },
          {
            "reference": "urn:uuid:4c1c1fe5-1016-4e2e-b15a-6478029d3201"
          },
          {
            "reference": "urn:uuid:1c11ce44-7566-481c-b87a-a317bcf526a5"
          },
          {
            "reference": "urn:uuid:5ed9949b-0825-4fd4-9cee-9c9449f53f6b"
          },
          {
            "reference": "urn:uuid:e3877373-5110-479b-9392-c106a4918be7"
          },
          {
            "reference": "urn:uuid:291562cd-1f1c-4751-a03b-2e9278cc0f3f"
          },
          {
            "reference": "urn:uuid:368fbed1-01f5-4e1c-adbb-a855d83b66d6"
          },
          {
            "reference": "urn:uuid:c7e6d3d6-c85f-4ae8-8ddb-884c1bda649e"
          },
          {
            "reference": "urn:uuid:0e0404fb-46e6-41fd-b225-4500d8c6aac4"
          },
          {
            "reference": "urn:uuid:e5d2c782-3af6-4924-9f92-e365e273bfb9"
          },
          {
            "reference": "urn:uuid:2f2eeb63-b065-4ad1-89ab-0088fc7fec2e"
          },
          {
            "reference": "urn:uuid:5c18724f-9258-4a15-947b-531010fcffcd"
          },
          {
            "reference": "urn:uuid:f24a3638-d887-4835-8245-43992f3151c2"
          },
          {
            "reference": "urn:uuid:4fb9403f-ab1a-4459-a81c-e1a81a3a2f7f"
          }
        ],
        "status": "registered",
        "code": {
          "coding": [
            {
              "code": "11502-2",
              "system": "http://loinc.org",
              "display": "Laboratory report"
            }
          ]
        },
        "subject": {
          "reference": "urn:uuid:402d9f84-3ff2-4697-aa3d-6eca086a65ab",
          "display": "Russell Khan"
        }
      }
    },
    {
      "fullUrl": "urn:uuid:402d9f84-3ff2-4697-aa3d-6eca086a65ab",
      "resource": {
        "resourceType": "Patient",
        "id": "402d9f84-3ff2-4697-aa3d-6eca086a65ab",
        "meta": {
          "security": [
            {
              "system": "http://terminology.hl7.org/CodeSystem/v3-ActReason",
              "code": "HTEST"
            },
            {
              "system": "http://terminology.hl7.org/CodeSystem/v3-ActReason",
              "code": "TRAIN"
            }
          ],
          "tag": [
            {
              "system": "https://synderai.net/fhir/CodeSystem/tags",
              "code": "synthetic",
              "display": "SYNDERAI Synthetic data"
            }
          ],
          "profile": [
            "http://hl7.eu/fhir/base/StructureDefinition/patient-eu-core"
          ]
        },
        "identifier": [
          {
            "type": {
              "coding": [
                {
                  "code": "PT",
                  "system": "http://terminology.hl7.org/CodeSystem/v2-0203"
                }
              ]
            },
            "system": "http://ec.europa.eu/identifier/eci",
            "value": "7982-255119-2"
          },
          {
            "type": {
              "coding": [
                {
                  "code": "MR",
                  "system": "http://terminology.hl7.org/CodeSystem/v2-0203"
                }
              ]
            },
            "system": "http://local.setting.eu/identifier",
            "value": "7070b0e2-4aa2-c981-d552-92289a13285c"
          }
        ],
        "name": [
          {
            "family": "Khan"
          },
          {
            "given": [
              "Russell"
            ]
          },
          {
            "text": "Russell Khan"
          }
        ],
        "address": [
          {
            "line": [
              "1 Holly well"
            ],
            "use": "home",
            "type": "physical",
            "postalCode": "B9",
            "city": "Allantown",
            "country": "United Kingdom"
          }
        ],
        "telecom": [
          {
            "system": "phone",
            "value": "0115 4960345"
          }
        ],
        "extension": [
          {
            "url": "http://hl7.org/fhir/StructureDefinition/patient-nationality",
            "valueCodeableConcept": {
              "coding": [
                {
                  "code": "GB",
                  "system": "http://hl7.org/fhir/ValueSet/country"
                }
              ]
            }
          }
        ],
        "text": {
          "status": "generated",
          "div": "<div xmlns=\"http://www.w3.org/1999/xhtml\"><table class=\"hl7__ips\"><tr><td>Russell Khan</td><td>male</td><td>29-Aug-1980</td></tr></table></div>"
        },
        "gender": "male",
        "birthDate": "1980-08-29"
      }
    },
    {
      "fullUrl": "urn:uuid:cd4c6d14-4315-4be6-8329-434d4632ce94",
      "resource": {
        "resourceType": "ServiceRequest",
        "id": "cd4c6d14-4315-4be6-8329-434d4632ce94",
        "meta": {
          "profile": [
            "http://hl7.eu/fhir/laboratory/StructureDefinition/ServiceRequest-eu-lab"
          ]
        },
        "identifier": [
          {
            "system": "http://example.org",
            "value": "82156bee-b2a4-482c-a5cd-885b2da30232"
          }
        ],
        "specimen": [
          {
            "reference": "urn:uuid:684eada9-dce1-44da-b85e-e5e7d4cbdbcd"
          },
          {
            "reference": "urn:uuid:d2b34bcd-f1e5-4acd-a5da-2952f6d8ee22"
          }
        ],
        "reasonCode": [
          {
            "coding": [
              {
                "code": "59621000",
                "system": "http://snomed.info/sct",
                "display": "Essential hypertension"
              }
            ]
          }
        ],
        "status": "active",
        "intent": "order",
        "code": {
          "coding": [
            {
              "code": "108252007",
              "system": "http://snomed.info/sct",
              "display": "Laboratory procedure"
            }
          ]
        },
        "subject": {
          "reference": "urn:uuid:402d9f84-3ff2-4697-aa3d-6eca086a65ab",
          "display": "Russell Khan"
        },
        "requester": {
          "reference": "urn:uuid:16ab6c3f-c122-4fd9-b456-15fec437aaab"
        }
      }
    },
    {
      "fullUrl": "urn:uuid:16ab6c3f-c122-4fd9-b456-15fec437aaab",
      "resource": {
        "resourceType": "PractitionerRole",
        "id": "16ab6c3f-c122-4fd9-b456-15fec437aaab",
        "meta": {
          "profile": [
            "http://hl7.eu/fhir/base/StructureDefinition/practitionerRole-eu"
          ]
        },
        "text": {
          "status": "generated",
          "div": "<div xmlns=\"http://www.w3.org/1999/xhtml\">Provider Role Id: 16ab6c3f-c122-4fd9-b456-15fec437aaab</div>"
        },
        "organization": {
          "reference": "urn:uuid:eaeb0e78-1a1f-4900-89e8-10ac9f409deb"
        }
      }
    },
    {
      "fullUrl": "urn:uuid:eaeb0e78-1a1f-4900-89e8-10ac9f409deb",
      "resource": {
        "resourceType": "Organization",
        "id": "eaeb0e78-1a1f-4900-89e8-10ac9f409deb",
        "meta": {
          "profile": [
            "http://hl7.eu/fhir/base/StructureDefinition/organization-eu"
          ]
        },
        "identifier": [
          {
            "assigner": {
              "display": "HL7 Europe"
            },
            "system": "urn:oid:2.16.840.1.113883.2.51.999",
            "value": "6c258070-a603-4f6e-9e02-cef240163e34"
          }
        ],
        "address": [
          {
            "city": "Birmingham",
            "postalCode": "B4 6",
            "country": "United Kingdom"
          }
        ],
        "text": {
          "status": "generated",
          "div": "<div xmlns=\"http://www.w3.org/1999/xhtml\">Provider Organization: Birmingham Children&#039;s Hospital</div>"
        },
        "name": "Birmingham Children&#039;s Hospital"
      }
    },
    {
      "fullUrl": "urn:uuid:684eada9-dce1-44da-b85e-e5e7d4cbdbcd",
      "resource": {
        "resourceType": "Specimen",
        "id": "684eada9-dce1-44da-b85e-e5e7d4cbdbcd",
        "meta": {
          "profile": [
            "http://hl7.eu/fhir/laboratory/StructureDefinition/Specimen-eu-lab"
          ]
        },
        "collection": {
          "collectedDateTime": "2021-11-02"
        },
        "text": {
          "status": "generated",
          "div": "<div xmlns=\"http://www.w3.org/1999/xhtml\"><table class=\"hl7__eu__lab__report\"><tr><th>Specimen</th><th>Collection Date</th></tr><tr><td>Urine specimen</td><td><span class=\"nb\">02-Nov-2021</span></td></tr></table></div>"
        },
        "type": {
          "coding": [
            {
              "code": "122575003",
              "system": "http://snomed.info/sct",
              "display": "Urine specimen"
            }
          ]
        }
      }
    },
    {
      "fullUrl": "urn:uuid:d2b34bcd-f1e5-4acd-a5da-2952f6d8ee22",
      "resource": {
        "resourceType": "Specimen",
        "id": "d2b34bcd-f1e5-4acd-a5da-2952f6d8ee22",
        "meta": {
          "profile": [
            "http://hl7.eu/fhir/laboratory/StructureDefinition/Specimen-eu-lab"
          ]
        },
        "collection": {
          "collectedDateTime": "2021-11-02"
        },
        "text": {
          "status": "generated",
          "div": "<div xmlns=\"http://www.w3.org/1999/xhtml\"><table class=\"hl7__eu__lab__report\"><tr><th>Specimen</th><th>Collection Date</th></tr><tr><td>Urine sediment specimen (specimen)</td><td><span class=\"nb\">02-Nov-2021</span></td></tr></table></div>"
        },
        "type": {
          "coding": [
            {
              "code": "122567009",
              "system": "http://snomed.info/sct",
              "display": "Urine sediment specimen (specimen)"
            }
          ]
        }
      }
    },
    {
      "fullUrl": "urn:uuid:d588269d-2b98-4bad-8888-c036b16fcee2",
      "resource": {
        "resourceType": "Observation",
        "id": "d588269d-2b98-4bad-8888-c036b16fcee2",
        "meta": {
          "profile": [
            "http://hl7.eu/fhir/laboratory/StructureDefinition/Observation-resultslab-eu-lab"
          ]
        },
        "performer": [
          {
            "display": "The Central European Lab"
          }
        ],
        "category": [
          {
            "coding": [
              {
                "system": "http://terminology.hl7.org/CodeSystem/observation-category",
                "code": "laboratory"
              }
            ]
          }
        ],
        "code": {
          "coding": [
            {
              "code": "5792-7",
              "system": "http://loinc.org",
              "display": "Glucose [Mass/volume] in Urine by Test strip"
            }
          ],
          "text": "Glucose [Mass/volume] in Urine by Test strip"
        },
        "valueQuantity": {
          "system": "http://unitsofmeasure.org",
          "value": 11,
          "unit": "mg/dL",
          "code": "mg/dL"
        },
        "referenceRange": [
          {
            "low": {
              "value": 0,
              "code": "mg/dL",
              "system": "http://unitsofmeasure.org"
            }
          },
          {
            "high": {
              "value": 15,
              "code": "mg/dL",
              "system": "http://unitsofmeasure.org"
            }
          }
        ],
        "text": {
          "status": "generated",
          "div": "<div xmlns=\"http://www.w3.org/1999/xhtml\"><table class=\"hl7__eu__lab__report\"><tr><th>Test</th><th>02-Nov-2021</th><th>Reference&#xA0;Range</th><th>Unit</th></tr><tr><td>Glucose [Mass/volume] in Urine by Test strip</td><td>11.0</td><td>0 - 15</td><td></td><td>mg/dL</td></tr></table></div>"
        },
        "status": "final",
        "subject": {
          "reference": "urn:uuid:402d9f84-3ff2-4697-aa3d-6eca086a65ab",
          "display": "Russell Khan"
        },
        "effectiveDateTime": "2021-11-02T06:32:15Z",
        "specimen": {
          "reference": "urn:uuid:684eada9-dce1-44da-b85e-e5e7d4cbdbcd"
        }
      }
    },
    {
      "fullUrl": "urn:uuid:ca0f4344-9406-4feb-a2bb-67d565f9089e",
      "resource": {
        "resourceType": "Observation",
        "id": "ca0f4344-9406-4feb-a2bb-67d565f9089e",
        "meta": {
          "profile": [
            "http://hl7.eu/fhir/laboratory/StructureDefinition/Observation-resultslab-eu-lab"
          ]
        },
        "performer": [
          {
            "display": "The Central European Lab"
          }
        ],
        "category": [
          {
            "coding": [
              {
                "system": "http://terminology.hl7.org/CodeSystem/observation-category",
                "code": "laboratory"
              }
            ]
          }
        ],
        "code": {
          "coding": [
            {
              "code": "2514-8",
              "system": "http://loinc.org",
              "display": "Ketones [Presence] in Urine by Test strip"
            }
          ],
          "text": "Ketones [Presence] in Urine by Test strip"
        },
        "text": {
          "status": "generated",
          "div": "<div xmlns=\"http://www.w3.org/1999/xhtml\"><table class=\"hl7__eu__lab__report\"><tr><th>Test</th><th>02-Nov-2021</th><th>Reference&#xA0;Range</th><th>Unit</th></tr><tr><td>Ketones [Presence] in Urine by Test strip</td></tr></table></div>"
        },
        "status": "final",
        "subject": {
          "reference": "urn:uuid:402d9f84-3ff2-4697-aa3d-6eca086a65ab",
          "display": "Russell Khan"
        },
        "effectiveDateTime": "2021-11-02T06:32:15Z",
        "specimen": {
          "reference": "urn:uuid:684eada9-dce1-44da-b85e-e5e7d4cbdbcd"
        }
      }
    },
    {
      "fullUrl": "urn:uuid:4c1c1fe5-1016-4e2e-b15a-6478029d3201",
      "resource": {
        "resourceType": "Observation",
        "id": "4c1c1fe5-1016-4e2e-b15a-6478029d3201",
        "meta": {
          "profile": [
            "http://hl7.eu/fhir/laboratory/StructureDefinition/Observation-resultslab-eu-lab"
          ]
        },
        "performer": [
          {
            "display": "The Central European Lab"
          }
        ],
        "category": [
          {
            "coding": [
              {
                "system": "http://terminology.hl7.org/CodeSystem/observation-category",
                "code": "laboratory"
              }
            ]
          }
        ],
        "code": {
          "coding": [
            {
              "code": "5811-5",
              "system": "http://loinc.org",
              "display": "Specific gravity of Urine by Test strip"
            }
          ],
          "text": "Specific gravity of Urine by Test strip"
        },
        "valueQuantity": {
          "system": "http://unitsofmeasure.org",
          "value": 1,
          "unit": "{nominal}",
          "code": "{nominal}"
        },
        "referenceRange": [
          {
            "low": {
              "value": 1.005,
              "code": "g/mL",
              "system": "http://unitsofmeasure.org"
            }
          },
          {
            "high": {
              "value": 1.03,
              "code": "g/mL",
              "system": "http://unitsofmeasure.org"
            }
          }
        ],
        "interpretation": [
          {
            "coding": [
              {
                "code": "L",
                "system": "http://terminology.hl7.org/CodeSystem/v3-ObservationInterpretation",
                "display": "Low"
              }
            ]
          }
        ],
        "text": {
          "status": "generated",
          "div": "<div xmlns=\"http://www.w3.org/1999/xhtml\"><table class=\"hl7__eu__lab__report\"><tr><th>Test</th><th>02-Nov-2021</th><th>Reference&#xA0;Range</th><th>Unit</th></tr><tr><td>Specific gravity of Urine by Test strip</td><td>1.0</td><td>1.005 - 1.03</td><td>L</td><td>{nominal}</td></tr></table></div>"
        },
        "status": "final",
        "subject": {
          "reference": "urn:uuid:402d9f84-3ff2-4697-aa3d-6eca086a65ab",
          "display": "Russell Khan"
        },
        "effectiveDateTime": "2021-11-02T06:32:15Z",
        "specimen": {
          "reference": "urn:uuid:684eada9-dce1-44da-b85e-e5e7d4cbdbcd"
        }
      }
    },
    {
      "fullUrl": "urn:uuid:1c11ce44-7566-481c-b87a-a317bcf526a5",
      "resource": {
        "resourceType": "Observation",
        "id": "1c11ce44-7566-481c-b87a-a317bcf526a5",
        "meta": {
          "profile": [
            "http://hl7.eu/fhir/laboratory/StructureDefinition/Observation-resultslab-eu-lab"
          ]
        },
        "performer": [
          {
            "display": "The Central European Lab"
          }
        ],
        "category": [
          {
            "coding": [
              {
                "system": "http://terminology.hl7.org/CodeSystem/observation-category",
                "code": "laboratory"
              }
            ]
          }
        ],
        "code": {
          "coding": [
            {
              "code": "5803-2",
              "system": "http://loinc.org",
              "display": "pH of Urine by Test strip"
            }
          ],
          "text": "pH of Urine by Test strip"
        },
        "valueQuantity": {
          "system": "http://unitsofmeasure.org",
          "value": 6.4,
          "unit": "pH",
          "code": "pH"
        },
        "referenceRange": [
          {
            "low": {
              "value": 4.6,
              "code": "pH",
              "system": "http://unitsofmeasure.org"
            }
          },
          {
            "high": {
              "value": 7,
              "code": "pH",
              "system": "http://unitsofmeasure.org"
            }
          }
        ],
        "text": {
          "status": "generated",
          "div": "<div xmlns=\"http://www.w3.org/1999/xhtml\"><table class=\"hl7__eu__lab__report\"><tr><th>Test</th><th>02-Nov-2021</th><th>Reference&#xA0;Range</th><th>Unit</th></tr><tr><td>pH of Urine by Test strip</td><td>6.4</td><td>4.6 - 7</td><td></td><td>pH</td></tr></table></div>"
        },
        "status": "final",
        "subject": {
          "reference": "urn:uuid:402d9f84-3ff2-4697-aa3d-6eca086a65ab",
          "display": "Russell Khan"
        },
        "effectiveDateTime": "2021-11-02T06:32:15Z",
        "specimen": {
          "reference": "urn:uuid:684eada9-dce1-44da-b85e-e5e7d4cbdbcd"
        }
      }
    },
    {
      "fullUrl": "urn:uuid:5ed9949b-0825-4fd4-9cee-9c9449f53f6b",
      "resource": {
        "resourceType": "Observation",
        "id": "5ed9949b-0825-4fd4-9cee-9c9449f53f6b",
        "meta": {
          "profile": [
            "http://hl7.eu/fhir/laboratory/StructureDefinition/Observation-resultslab-eu-lab"
          ]
        },
        "performer": [
          {
            "display": "The Central European Lab"
          }
        ],
        "category": [
          {
            "coding": [
              {
                "system": "http://terminology.hl7.org/CodeSystem/observation-category",
                "code": "laboratory"
              }
            ]
          }
        ],
        "code": {
          "coding": [
            {
              "code": "5804-0",
              "system": "http://loinc.org",
              "display": "Protein [Mass/volume] in Urine by Test strip"
            }
          ],
          "text": "Protein [Mass/volume] in Urine by Test strip"
        },
        "valueQuantity": {
          "system": "http://unitsofmeasure.org",
          "value": 8.7,
          "unit": "mg/dL",
          "code": "mg/dL"
        },
        "referenceRange": [
          {
            "low": {
              "value": 0,
              "code": "mg/dL",
              "system": "http://unitsofmeasure.org"
            }
          },
          {
            "high": {
              "value": 15,
              "code": "mg/dL",
              "system": "http://unitsofmeasure.org"
            }
          }
        ],
        "text": {
          "status": "generated",
          "div": "<div xmlns=\"http://www.w3.org/1999/xhtml\"><table class=\"hl7__eu__lab__report\"><tr><th>Test</th><th>02-Nov-2021</th><th>Reference&#xA0;Range</th><th>Unit</th></tr><tr><td>Protein [Mass/volume] in Urine by Test strip</td><td>8.7</td><td>0 - 15</td><td></td><td>mg/dL</td></tr></table></div>"
        },
        "status": "final",
        "subject": {
          "reference": "urn:uuid:402d9f84-3ff2-4697-aa3d-6eca086a65ab",
          "display": "Russell Khan"
        },
        "effectiveDateTime": "2021-11-02T06:32:15Z",
        "specimen": {
          "reference": "urn:uuid:684eada9-dce1-44da-b85e-e5e7d4cbdbcd"
        }
      }
    },
    {
      "fullUrl": "urn:uuid:e3877373-5110-479b-9392-c106a4918be7",
      "resource": {
        "resourceType": "Observation",
        "id": "e3877373-5110-479b-9392-c106a4918be7",
        "meta": {
          "profile": [
            "http://hl7.eu/fhir/laboratory/StructureDefinition/Observation-resultslab-eu-lab"
          ]
        },
        "performer": [
          {
            "display": "The Central European Lab"
          }
        ],
        "category": [
          {
            "coding": [
              {
                "system": "http://terminology.hl7.org/CodeSystem/observation-category",
                "code": "laboratory"
              }
            ]
          }
        ],
        "code": {
          "coding": [
            {
              "code": "5802-4",
              "system": "http://loinc.org",
              "display": "Nitrite [Presence] in Urine by Test strip"
            }
          ],
          "text": "Nitrite [Presence] in Urine by Test strip"
        },
        "text": {
          "status": "generated",
          "div": "<div xmlns=\"http://www.w3.org/1999/xhtml\"><table class=\"hl7__eu__lab__report\"><tr><th>Test</th><th>02-Nov-2021</th><th>Reference&#xA0;Range</th><th>Unit</th></tr><tr><td>Nitrite [Presence] in Urine by Test strip</td></tr></table></div>"
        },
        "status": "final",
        "subject": {
          "reference": "urn:uuid:402d9f84-3ff2-4697-aa3d-6eca086a65ab",
          "display": "Russell Khan"
        },
        "effectiveDateTime": "2021-11-02T06:32:15Z",
        "specimen": {
          "reference": "urn:uuid:684eada9-dce1-44da-b85e-e5e7d4cbdbcd"
        }
      }
    },
    {
      "fullUrl": "urn:uuid:291562cd-1f1c-4751-a03b-2e9278cc0f3f",
      "resource": {
        "resourceType": "Observation",
        "id": "291562cd-1f1c-4751-a03b-2e9278cc0f3f",
        "meta": {
          "profile": [
            "http://hl7.eu/fhir/laboratory/StructureDefinition/Observation-resultslab-eu-lab"
          ]
        },
        "performer": [
          {
            "display": "The Central European Lab"
          }
        ],
        "category": [
          {
            "coding": [
              {
                "system": "http://terminology.hl7.org/CodeSystem/observation-category",
                "code": "laboratory"
              }
            ]
          }
        ],
        "code": {
          "coding": [
            {
              "code": "5794-3",
              "system": "http://loinc.org",
              "display": "Hemoglobin [Presence] in Urine by Test strip"
            }
          ],
          "text": "Hemoglobin [Presence] in Urine by Test strip"
        },
        "text": {
          "status": "generated",
          "div": "<div xmlns=\"http://www.w3.org/1999/xhtml\"><table class=\"hl7__eu__lab__report\"><tr><th>Test</th><th>02-Nov-2021</th><th>Reference&#xA0;Range</th><th>Unit</th></tr><tr><td>Hemoglobin [Presence] in Urine by Test strip</td></tr></table></div>"
        },
        "status": "final",
        "subject": {
          "reference": "urn:uuid:402d9f84-3ff2-4697-aa3d-6eca086a65ab",
          "display": "Russell Khan"
        },
        "effectiveDateTime": "2021-11-02T06:32:15Z",
        "specimen": {
          "reference": "urn:uuid:684eada9-dce1-44da-b85e-e5e7d4cbdbcd"
        }
      }
    },
    {
      "fullUrl": "urn:uuid:368fbed1-01f5-4e1c-adbb-a855d83b66d6",
      "resource": {
        "resourceType": "Observation",
        "id": "368fbed1-01f5-4e1c-adbb-a855d83b66d6",
        "meta": {
          "profile": [
            "http://hl7.eu/fhir/laboratory/StructureDefinition/Observation-resultslab-eu-lab"
          ]
        },
        "performer": [
          {
            "display": "The Central European Lab"
          }
        ],
        "category": [
          {
            "coding": [
              {
                "system": "http://terminology.hl7.org/CodeSystem/observation-category",
                "code": "laboratory"
              }
            ]
          }
        ],
        "code": {
          "coding": [
            {
              "code": "5799-2",
              "system": "http://loinc.org",
              "display": "Leukocyte esterase [Presence] in Urine by Test strip"
            }
          ],
          "text": "Leukocyte esterase [Presence] in Urine by Test strip"
        },
        "text": {
          "status": "generated",
          "div": "<div xmlns=\"http://www.w3.org/1999/xhtml\"><table class=\"hl7__eu__lab__report\"><tr><th>Test</th><th>02-Nov-2021</th><th>Reference&#xA0;Range</th><th>Unit</th></tr><tr><td>Leukocyte esterase [Presence] in Urine by Test strip</td></tr></table></div>"
        },
        "status": "final",
        "subject": {
          "reference": "urn:uuid:402d9f84-3ff2-4697-aa3d-6eca086a65ab",
          "display": "Russell Khan"
        },
        "effectiveDateTime": "2021-11-02T06:32:15Z",
        "specimen": {
          "reference": "urn:uuid:684eada9-dce1-44da-b85e-e5e7d4cbdbcd"
        }
      }
    },
    {
      "fullUrl": "urn:uuid:c7e6d3d6-c85f-4ae8-8ddb-884c1bda649e",
      "resource": {
        "resourceType": "Observation",
        "id": "c7e6d3d6-c85f-4ae8-8ddb-884c1bda649e",
        "meta": {
          "profile": [
            "http://hl7.eu/fhir/laboratory/StructureDefinition/Observation-resultslab-eu-lab"
          ]
        },
        "performer": [
          {
            "display": "The Central European Lab"
          }
        ],
        "category": [
          {
            "coding": [
              {
                "system": "http://terminology.hl7.org/CodeSystem/observation-category",
                "code": "laboratory"
              }
            ]
          }
        ],
        "code": {
          "coding": [
            {
              "code": "5821-4",
              "system": "http://loinc.org",
              "display": "Leukocytes [#/area] in Urine sediment by Microscopy high power field"
            }
          ],
          "text": "Leukocytes [#/area] in Urine sediment by Microscopy high power field"
        },
        "valueQuantity": {
          "system": "http://unitsofmeasure.org",
          "value": 26.7,
          "unit": "/[HPF]",
          "code": "/[HPF]"
        },
        "referenceRange": [
          {
            "low": {
              "value": 0,
              "code": "#/area",
              "system": "http://unitsofmeasure.org"
            }
          },
          {
            "high": {
              "value": 30,
              "code": "#/area",
              "system": "http://unitsofmeasure.org"
            }
          }
        ],
        "text": {
          "status": "generated",
          "div": "<div xmlns=\"http://www.w3.org/1999/xhtml\"><table class=\"hl7__eu__lab__report\"><tr><th>Test</th><th>02-Nov-2021</th><th>Reference&#xA0;Range</th><th>Unit</th></tr><tr><td>Leukocytes [#/area] in Urine sediment by Microscopy high power field</td><td>26.7</td><td>0 - 30</td><td></td><td>/[HPF]</td></tr></table></div>"
        },
        "status": "final",
        "subject": {
          "reference": "urn:uuid:402d9f84-3ff2-4697-aa3d-6eca086a65ab",
          "display": "Russell Khan"
        },
        "effectiveDateTime": "2021-11-02T06:32:15Z",
        "specimen": {
          "reference": "urn:uuid:d2b34bcd-f1e5-4acd-a5da-2952f6d8ee22"
        }
      }
    },
    {
      "fullUrl": "urn:uuid:0e0404fb-46e6-41fd-b225-4500d8c6aac4",
      "resource": {
        "resourceType": "Observation",
        "id": "0e0404fb-46e6-41fd-b225-4500d8c6aac4",
        "meta": {
          "profile": [
            "http://hl7.eu/fhir/laboratory/StructureDefinition/Observation-resultslab-eu-lab"
          ]
        },
        "performer": [
          {
            "display": "The Central European Lab"
          }
        ],
        "category": [
          {
            "coding": [
              {
                "system": "http://terminology.hl7.org/CodeSystem/observation-category",
                "code": "laboratory"
              }
            ]
          }
        ],
        "code": {
          "coding": [
            {
              "code": "13945-1",
              "system": "http://loinc.org",
              "display": "Erythrocytes [#/area] in Urine sediment by Microscopy high power field"
            }
          ],
          "text": "Erythrocytes [#/area] in Urine sediment by Microscopy high power field"
        },
        "valueQuantity": {
          "system": "http://unitsofmeasure.org",
          "value": 2.6,
          "unit": "/[HPF]",
          "code": "/[HPF]"
        },
        "referenceRange": [
          {
            "low": {
              "value": 0,
              "code": "[#/area]",
              "system": "http://unitsofmeasure.org"
            }
          },
          {
            "high": {
              "value": 5,
              "code": "[#/area]",
              "system": "http://unitsofmeasure.org"
            }
          }
        ],
        "text": {
          "status": "generated",
          "div": "<div xmlns=\"http://www.w3.org/1999/xhtml\"><table class=\"hl7__eu__lab__report\"><tr><th>Test</th><th>02-Nov-2021</th><th>Reference&#xA0;Range</th><th>Unit</th></tr><tr><td>Erythrocytes [#/area] in Urine sediment by Microscopy high power field</td><td>2.6</td><td>0 - 5</td><td></td><td>/[HPF]</td></tr></table></div>"
        },
        "status": "final",
        "subject": {
          "reference": "urn:uuid:402d9f84-3ff2-4697-aa3d-6eca086a65ab",
          "display": "Russell Khan"
        },
        "effectiveDateTime": "2021-11-02T06:32:15Z",
        "specimen": {
          "reference": "urn:uuid:d2b34bcd-f1e5-4acd-a5da-2952f6d8ee22"
        }
      }
    },
    {
      "fullUrl": "urn:uuid:e5d2c782-3af6-4924-9f92-e365e273bfb9",
      "resource": {
        "resourceType": "Observation",
        "id": "e5d2c782-3af6-4924-9f92-e365e273bfb9",
        "meta": {
          "profile": [
            "http://hl7.eu/fhir/laboratory/StructureDefinition/Observation-resultslab-eu-lab"
          ]
        },
        "performer": [
          {
            "display": "The Central European Lab"
          }
        ],
        "category": [
          {
            "coding": [
              {
                "system": "http://terminology.hl7.org/CodeSystem/observation-category",
                "code": "laboratory"
              }
            ]
          }
        ],
        "code": {
          "coding": [
            {
              "code": "5787-7",
              "system": "http://loinc.org",
              "display": "Epithelial cells [#/area] in Urine sediment by Microscopy high power field"
            }
          ],
          "text": "Epithelial cells [#/area] in Urine sediment by Microscopy high power field"
        },
        "valueQuantity": {
          "system": "http://unitsofmeasure.org",
          "value": 1.3,
          "unit": "/[HPF]",
          "code": "/[HPF]"
        },
        "referenceRange": [
          {
            "low": {
              "value": 0,
              "code": "[#/area]",
              "system": "http://unitsofmeasure.org"
            }
          },
          {
            "high": {
              "value": 5,
              "code": "[#/area]",
              "system": "http://unitsofmeasure.org"
            }
          }
        ],
        "text": {
          "status": "generated",
          "div": "<div xmlns=\"http://www.w3.org/1999/xhtml\"><table class=\"hl7__eu__lab__report\"><tr><th>Test</th><th>02-Nov-2021</th><th>Reference&#xA0;Range</th><th>Unit</th></tr><tr><td>Epithelial cells [#/area] in Urine sediment by Microscopy high power field</td><td>1.3</td><td>0 - 5</td><td></td><td>/[HPF]</td></tr></table></div>"
        },
        "status": "final",
        "subject": {
          "reference": "urn:uuid:402d9f84-3ff2-4697-aa3d-6eca086a65ab",
          "display": "Russell Khan"
        },
        "effectiveDateTime": "2021-11-02T06:32:15Z",
        "specimen": {
          "reference": "urn:uuid:d2b34bcd-f1e5-4acd-a5da-2952f6d8ee22"
        }
      }
    },
    {
      "fullUrl": "urn:uuid:2f2eeb63-b065-4ad1-89ab-0088fc7fec2e",
      "resource": {
        "resourceType": "Observation",
        "id": "2f2eeb63-b065-4ad1-89ab-0088fc7fec2e",
        "meta": {
          "profile": [
            "http://hl7.eu/fhir/laboratory/StructureDefinition/Observation-resultslab-eu-lab"
          ]
        },
        "performer": [
          {
            "display": "The Central European Lab"
          }
        ],
        "category": [
          {
            "coding": [
              {
                "system": "http://terminology.hl7.org/CodeSystem/observation-category",
                "code": "laboratory"
              }
            ]
          }
        ],
        "code": {
          "coding": [
            {
              "code": "24124-0",
              "system": "http://loinc.org",
              "display": "Casts [Presence] in Urine sediment by Light microscopy"
            }
          ],
          "text": "Casts [Presence] in Urine sediment by Light microscopy"
        },
        "text": {
          "status": "generated",
          "div": "<div xmlns=\"http://www.w3.org/1999/xhtml\"><table class=\"hl7__eu__lab__report\"><tr><th>Test</th><th>02-Nov-2021</th><th>Reference&#xA0;Range</th><th>Unit</th></tr><tr><td>Casts [Presence] in Urine sediment by Light microscopy</td></tr></table></div>"
        },
        "status": "final",
        "subject": {
          "reference": "urn:uuid:402d9f84-3ff2-4697-aa3d-6eca086a65ab",
          "display": "Russell Khan"
        },
        "effectiveDateTime": "2021-11-02T06:32:15Z",
        "specimen": {
          "reference": "urn:uuid:d2b34bcd-f1e5-4acd-a5da-2952f6d8ee22"
        }
      }
    },
    {
      "fullUrl": "urn:uuid:5c18724f-9258-4a15-947b-531010fcffcd",
      "resource": {
        "resourceType": "Observation",
        "id": "5c18724f-9258-4a15-947b-531010fcffcd",
        "meta": {
          "profile": [
            "http://hl7.eu/fhir/laboratory/StructureDefinition/Observation-resultslab-eu-lab"
          ]
        },
        "performer": [
          {
            "display": "The Central European Lab"
          }
        ],
        "category": [
          {
            "coding": [
              {
                "system": "http://terminology.hl7.org/CodeSystem/observation-category",
                "code": "laboratory"
              }
            ]
          }
        ],
        "code": {
          "coding": [
            {
              "code": "8247-9",
              "system": "http://loinc.org",
              "display": "Mucus [Presence] in Urine sediment by Light microscopy"
            }
          ],
          "text": "Mucus [Presence] in Urine sediment by Light microscopy"
        },
        "text": {
          "status": "generated",
          "div": "<div xmlns=\"http://www.w3.org/1999/xhtml\"><table class=\"hl7__eu__lab__report\"><tr><th>Test</th><th>02-Nov-2021</th><th>Reference&#xA0;Range</th><th>Unit</th></tr><tr><td>Mucus [Presence] in Urine sediment by Light microscopy</td></tr></table></div>"
        },
        "status": "final",
        "subject": {
          "reference": "urn:uuid:402d9f84-3ff2-4697-aa3d-6eca086a65ab",
          "display": "Russell Khan"
        },
        "effectiveDateTime": "2021-11-02T06:32:15Z",
        "specimen": {
          "reference": "urn:uuid:d2b34bcd-f1e5-4acd-a5da-2952f6d8ee22"
        }
      }
    },
    {
      "fullUrl": "urn:uuid:f24a3638-d887-4835-8245-43992f3151c2",
      "resource": {
        "resourceType": "Observation",
        "id": "f24a3638-d887-4835-8245-43992f3151c2",
        "meta": {
          "profile": [
            "http://hl7.eu/fhir/laboratory/StructureDefinition/Observation-resultslab-eu-lab"
          ]
        },
        "performer": [
          {
            "display": "The Central European Lab"
          }
        ],
        "category": [
          {
            "coding": [
              {
                "system": "http://terminology.hl7.org/CodeSystem/observation-category",
                "code": "laboratory"
              }
            ]
          }
        ],
        "code": {
          "coding": [
            {
              "code": "5769-5",
              "system": "http://loinc.org",
              "display": "Bacteria [#/area] in Urine sediment by Microscopy high power field"
            }
          ],
          "text": "Bacteria [#/area] in Urine sediment by Microscopy high power field"
        },
        "text": {
          "status": "generated",
          "div": "<div xmlns=\"http://www.w3.org/1999/xhtml\"><table class=\"hl7__eu__lab__report\"><tr><th>Test</th><th>02-Nov-2021</th><th>Reference&#xA0;Range</th><th>Unit</th></tr><tr><td>Bacteria [#/area] in Urine sediment by Microscopy high power field</td></tr></table></div>"
        },
        "status": "final",
        "subject": {
          "reference": "urn:uuid:402d9f84-3ff2-4697-aa3d-6eca086a65ab",
          "display": "Russell Khan"
        },
        "effectiveDateTime": "2021-11-02T06:32:15Z",
        "specimen": {
          "reference": "urn:uuid:d2b34bcd-f1e5-4acd-a5da-2952f6d8ee22"
        }
      }
    },
    {
      "fullUrl": "urn:uuid:4fb9403f-ab1a-4459-a81c-e1a81a3a2f7f",
      "resource": {
        "resourceType": "Observation",
        "id": "4fb9403f-ab1a-4459-a81c-e1a81a3a2f7f",
        "meta": {
          "profile": [
            "http://hl7.eu/fhir/laboratory/StructureDefinition/Observation-resultslab-eu-lab"
          ]
        },
        "performer": [
          {
            "display": "The Central European Lab"
          }
        ],
        "category": [
          {
            "coding": [
              {
                "system": "http://terminology.hl7.org/CodeSystem/observation-category",
                "code": "laboratory"
              }
            ]
          }
        ],
        "code": {
          "coding": [
            {
              "code": "630-4",
              "system": "http://loinc.org",
              "display": "Bacteria identified in Urine by Culture"
            }
          ],
          "text": "Bacteria identified in Urine by Culture"
        },
        "text": {
          "status": "generated",
          "div": "<div xmlns=\"http://www.w3.org/1999/xhtml\"><table class=\"hl7__eu__lab__report\"><tr><th>Test</th><th>02-Nov-2021</th><th>Reference&#xA0;Range</th><th>Unit</th></tr><tr><td>Bacteria identified in Urine by Culture</td></tr></table></div>"
        },
        "status": "final",
        "subject": {
          "reference": "urn:uuid:402d9f84-3ff2-4697-aa3d-6eca086a65ab",
          "display": "Russell Khan"
        },
        "effectiveDateTime": "2021-11-02T06:32:15Z",
        "specimen": {
          "reference": "urn:uuid:684eada9-dce1-44da-b85e-e5e7d4cbdbcd"
        }
      }
    },
    {
      "fullUrl": "urn:uuid:515a7ad7-e241-4a1f-b568-9a7d91c1b095",
      "resource": {
        "resourceType": "Device",
        "id": "515a7ad7-e241-4a1f-b568-9a7d91c1b095",
        "deviceName": [
          {
            "name": "SYNDERAI Synthetic Generator",
            "type": "manufacturer-name"
          }
        ],
        "version": [
          {
            "value": "5.0"
          }
        ],
        "text": {
          "status": "generated",
          "div": "<div xmlns=\"http://www.w3.org/1999/xhtml\">SYNDERAI Synthetic Generator v5.0</div>"
        },
        "status": "active\"",
        "distinctIdentifier": "synderai-generator-50",
        "manufacturer": "SYNDERAI Project"
      }
    },
    {
      "fullUrl": "urn:uuid:4631f3ca-2bae-4b57-a0df-b66d04eb3e40",
      "resource": {
        "resourceType": "Provenance",
        "id": "4631f3ca-2bae-4b57-a0df-b66d04eb3e40",
        "target": [
          {
            "reference": "Patient/402d9f84-3ff2-4697-aa3d-6eca086a65ab"
          },
          {
            "reference": "Bundle/c3e3ef99-37cd-4ffd-ae32-d21736dcf852"
          },
          {
            "reference": "Composition/68de35d1-1355-467b-935f-6fbe2d7d54c3"
          },
          {
            "reference": "PractitionerRole/d4b996de-ebdc-44cf-95b8-826848c5c033"
          },
          {
            "reference": "Practitioner/cd611a54-39f2-4096-b8c7-16cc7e2300b4"
          },
          {
            "reference": "PractitionerRole/16ab6c3f-c122-4fd9-b456-15fec437aaab"
          },
          {
            "reference": "Organization/eaeb0e78-1a1f-4900-89e8-10ac9f409deb"
          }
        ],
        "activity": {
          "text": "Synthetic Example Data Generation"
        },
        "policy": [
          "https://synderai.net/synderai-synthetic-data-policy"
        ],
        "agent": [
          {
            "type": {
              "text": "author"
            },
            "who": {
              "reference": "Device/515a7ad7-e241-4a1f-b568-9a7d91c1b095"
            }
          }
        ],
        "reason": [
          {
            "text": "Interoperability Testing and Training (non-clinical use)"
          }
        ],
        "text": {
          "status": "generated",
          "div": "<div xmlns=\"http://www.w3.org/1999/xhtml\">Provenance for SYNDERAI Synthetic Example Data Resource</div>"
        },
        "recorded": "2021-11-02T07:32:15Z"
      }
    },
    {
      "fullUrl": "urn:uuid:d4b996de-ebdc-44cf-95b8-826848c5c033",
      "resource": {
        "resourceType": "PractitionerRole",
        "id": "d4b996de-ebdc-44cf-95b8-826848c5c033",
        "meta": {
          "profile": [
            "http://hl7.eu/fhir/base/StructureDefinition/practitionerRole-eu"
          ]
        },
        "text": {
          "status": "generated",
          "div": "<div xmlns=\"http://www.w3.org/1999/xhtml\">Laboratory Role Id: d4b996de-ebdc-44cf-95b8-826848c5c033</div>"
        },
        "practitioner": {
          "reference": "urn:uuid:cd611a54-39f2-4096-b8c7-16cc7e2300b4"
        }
      }
    },
    {
      "fullUrl": "urn:uuid:cd611a54-39f2-4096-b8c7-16cc7e2300b4",
      "resource": {
        "resourceType": "Practitioner",
        "id": "cd611a54-39f2-4096-b8c7-16cc7e2300b4",
        "meta": {
          "profile": [
            "http://hl7.eu/fhir/base/StructureDefinition/practitioner-eu"
          ]
        },
        "identifier": [
          {
            "assigner": {
              "display": "HL7 Europe"
            },
            "system": "urn:oid:2.16.840.1.113883.2.51.999",
            "value": "a872a143-66a4-4525-9863-a22daccad6ff"
          }
        ],
        "name": [
          {
            "prefix": [
              "dr"
            ],
            "given": [
              "Ex"
            ],
            "family": "Ample"
          }
        ],
        "address": [
          {
            "line": [
              "Laboratoire Central Européenne",
              "Boulevard du Jardin Botanique 32"
            ],
            "postalCode": "1000",
            "city": "Brussels",
            "country": "Belgium"
          }
        ],
        "text": {
          "status": "generated",
          "div": "<div xmlns=\"http://www.w3.org/1999/xhtml\">Laboratory: Laboratoire Central Européenne, 1000 Brussels, Belgium</div>"
        }
      }
    }
  ],
  "type": "document",
  "timestamp": "2021-11-02T07:32:15Z"
}
