{
  "resourceType": "Bundle",
  "id": "dc3f0c1c-b4ed-4d3b-9dc9-e82036f496be",
  "meta": {
    "profile": [
      "http://hl7.eu/fhir/laboratory/StructureDefinition/Bundle-eu-lab"
    ]
  },
  "identifier": {
    "assigner": {
      "display": "HL7 Europe"
    },
    "system": "urn:oid:2.16.840.1.113883.2.51.999",
    "value": "780a34d8-1cef-4a8b-b6b6-78c214351d8c"
  },
  "entry": [
    {
      "fullUrl": "urn:uuid:6f9da3a8-ddb1-4f0c-ae8b-176c9bd12a3d",
      "resource": {
        "resourceType": "Composition",
        "id": "6f9da3a8-ddb1-4f0c-ae8b-176c9bd12a3d",
        "meta": {
          "profile": [
            "http://hl7.eu/fhir/laboratory/StructureDefinition/Composition-eu-lab"
          ]
        },
        "identifier": {
          "assigner": {
            "display": "HL7 Europe"
          },
          "system": "urn:oid:2.16.840.1.113883.2.51.999",
          "value": "c4b61c40-28f4-49a2-b00c-06fc54d49fbd"
        },
        "author": [
          {
            "reference": "urn:uuid:3063b8ff-c226-4fc3-9ee4-268dd245bb0b"
          }
        ],
        "category": [
          {
            "coding": [
              {
                "code": "26436-6",
                "system": "http://loinc.org",
                "display": "Laboratory studies (set)"
              }
            ]
          }
        ],
        "type": {
          "coding": [
            {
              "code": "11502-2",
              "system": "http://loinc.org",
              "display": "Laboratory report"
            }
          ],
          "text": "Laboratory Report"
        },
        "section": [
          {
            "code": {
              "coding": [
                {
                  "code": "26436-6",
                  "system": "http://loinc.org",
                  "display": "Laboratory studies (set)"
                }
              ],
              "text": "Laboratory studies"
            },
            "section": [
              {
                "code": {
                  "coding": [
                    {
                      "code": "$18719-5",
                      "system": "http://loinc.org",
                      "display": "Chemistry studies (set)"
                    }
                  ],
                  "text": "Chemistry"
                },
                "entry": [
                  {
                    "reference": "urn:uuid:11f9b743-5aa4-49d6-b1f3-74e923a16968"
                  },
                  {
                    "reference": "urn:uuid:dff6eb42-ff86-4e6a-b096-b086c3dd2ddf"
                  },
                  {
                    "reference": "urn:uuid:e91e2183-e2c9-4fca-a2c4-c28617cdfa85"
                  },
                  {
                    "reference": "urn:uuid:e6589654-0f10-4896-927e-389add0c924f"
                  },
                  {
                    "reference": "urn:uuid:f8356175-c4f1-487b-8da7-87ac703e0681"
                  },
                  {
                    "reference": "urn:uuid:57d12dc2-d056-4fcc-a10e-91e7db51b751"
                  },
                  {
                    "reference": "urn:uuid:8cec7ce5-8d9a-4223-a07b-cf530fba369c"
                  },
                  {
                    "reference": "urn:uuid:c996f6be-de5a-41fd-a44b-14a6d8bfc148"
                  },
                  {
                    "reference": "urn:uuid:e1a4daed-59f3-4681-8ab6-504c7577c9e2"
                  }
                ],
                "text": {
                  "status": "generated",
                  "div": "<div xmlns=\"http://www.w3.org/1999/xhtml\"><h3>Chemistry</h3><table class=\"hl7__eu__lab__report\"><thead><tr><th>Test</th><th>17-NOV-2020</th><th>Reference&#xA0;Range</th><th>Unit</th></tr></thead><tbody><tr><td>Hemoglobin A1c/Hemoglobin.total in Blood</td><td>6.0</td><td>4.5 - 6.4</td><td>%</td></tr><tr><td>Glucose [Mass/volume] in Blood</td><td>85.8</td><td>70 - 140</td><td>mg/dL</td></tr><tr><td>Urea nitrogen [Mass/volume] in Blood</td><td>14.8</td><td>7 - 43</td><td>mg/dL</td></tr><tr><td>Creatinine [Mass/volume] in Blood</td><td>1.1</td><td>0.7 - 1.1</td><td>mg/dL</td></tr><tr><td>Calcium [Mass/volume] in Blood</td><td>9.1</td><td>8.5 - 10.4</td><td>mg/dL</td></tr><tr><td>Sodium [Moles/volume] in Blood</td><td>143.8</td><td>135 - 145</td><td>mmol/L</td></tr><tr><td>Potassium [Moles/volume] in Blood</td><td>5.1</td><td>3.5 - 5.1</td><td>mmol/L</td></tr><tr><td>Chloride [Moles/volume] in Blood</td><td>103.6</td><td>98 - 107</td><td>mmol/L</td></tr><tr><td>Carbon dioxide, total [Moles/volume] in Blood</td><td>24.9</td><td>22 - 32</td><td>mmol/L</td></tr></tbody></table></div>"
                },
                "title": "Chemistry"
              }
            ],
            "title": "Laboratory Report"
          },
          {
            "text": {
              "status": "generated",
              "div": "<div xmlns=\"http://www.w3.org/1999/xhtml\"><h3>Annotation</h3><table class=\"hl7__eu__lab__report\"><tr><th>Conclusion and Recommendations based on this report and previous findings known to us</th></tr><tr><td>All measured parameters are within or at the upper limit of their respective reference ranges. Glycemic control (HbA1c, glucose) is adequate. Renal function (urea, creatinine) and electrolytes are normal, with potassium at the upper reference limit-monitor if clinically indicated. No acute laboratory abnormalities detected.</td></tr></table></div>"
            },
            "code": {
              "coding": [
                {
                  "system": "http://loinc.org",
                  "code": "48767-8",
                  "display": "Annotation comment"
                }
              ]
            },
            "title": "Annotation comment"
          }
        ],
        "status": "final",
        "subject": {
          "reference": "urn:uuid:b4bc7919-415c-44a4-91b3-ec42d7b597f3",
          "display": "Louise Köster"
        },
        "date": "2020-11-17T05:02:53Z",
        "title": "Laboratory Report",
        "confidentiality": "N"
      }
    },
    {
      "fullUrl": "urn:uuid:b1416a82-7ddc-40a2-9758-f7fc1f05ca53",
      "resource": {
        "resourceType": "DiagnosticReport",
        "id": "b1416a82-7ddc-40a2-9758-f7fc1f05ca53",
        "meta": {
          "profile": [
            "http://hl7.eu/fhir/laboratory/StructureDefinition/DiagnosticReport-eu-lab"
          ]
        },
        "identifier": [
          {
            "assigner": {
              "display": "HL7 Europe"
            },
            "system": "urn:oid:2.16.840.1.113883.2.51.999",
            "value": "0b5b9863-52c7-4898-a8b4-d9018baedd15"
          }
        ],
        "extension": [
          {
            "url": "http://hl7.org/fhir/5.0/StructureDefinition/extension-DiagnosticReport.composition",
            "valueReference": {
              "reference": "urn:uuid:c4b61c40-28f4-49a2-b00c-06fc54d49fbd"
            }
          }
        ],
        "category": [
          {
            "coding": [
              {
                "code": "26436-6",
                "system": "http://loinc.org",
                "display": "Laboratory studies (set)"
              }
            ]
          }
        ],
        "specimen": [
          {
            "reference": "urn:uuid:83328673-84a6-4124-af0f-7bbf5be12b37"
          }
        ],
        "result": [
          {
            "reference": "urn:uuid:11f9b743-5aa4-49d6-b1f3-74e923a16968"
          },
          {
            "reference": "urn:uuid:dff6eb42-ff86-4e6a-b096-b086c3dd2ddf"
          },
          {
            "reference": "urn:uuid:e91e2183-e2c9-4fca-a2c4-c28617cdfa85"
          },
          {
            "reference": "urn:uuid:e6589654-0f10-4896-927e-389add0c924f"
          },
          {
            "reference": "urn:uuid:f8356175-c4f1-487b-8da7-87ac703e0681"
          },
          {
            "reference": "urn:uuid:57d12dc2-d056-4fcc-a10e-91e7db51b751"
          },
          {
            "reference": "urn:uuid:8cec7ce5-8d9a-4223-a07b-cf530fba369c"
          },
          {
            "reference": "urn:uuid:c996f6be-de5a-41fd-a44b-14a6d8bfc148"
          },
          {
            "reference": "urn:uuid:e1a4daed-59f3-4681-8ab6-504c7577c9e2"
          }
        ],
        "status": "registered",
        "code": {
          "coding": [
            {
              "code": "11502-2",
              "system": "http://loinc.org",
              "display": "Laboratory report"
            }
          ]
        },
        "subject": {
          "reference": "urn:uuid:b4bc7919-415c-44a4-91b3-ec42d7b597f3",
          "display": "Louise Köster"
        }
      }
    },
    {
      "fullUrl": "urn:uuid:b4bc7919-415c-44a4-91b3-ec42d7b597f3",
      "resource": {
        "resourceType": "Patient",
        "id": "b4bc7919-415c-44a4-91b3-ec42d7b597f3",
        "meta": {
          "security": [
            {
              "system": "http://terminology.hl7.org/CodeSystem/v3-ActReason",
              "code": "HTEST"
            },
            {
              "system": "http://terminology.hl7.org/CodeSystem/v3-ActReason",
              "code": "TRAIN"
            }
          ],
          "tag": [
            {
              "system": "https://synderai.net/fhir/CodeSystem/tags",
              "code": "synthetic",
              "display": "SYNDERAI Synthetic data"
            }
          ],
          "profile": [
            "http://hl7.eu/fhir/base/StructureDefinition/patient-eu-core"
          ]
        },
        "identifier": [
          {
            "type": {
              "coding": [
                {
                  "code": "PT",
                  "system": "http://terminology.hl7.org/CodeSystem/v2-0203"
                }
              ]
            },
            "system": "http://ec.europa.eu/identifier/eci",
            "value": "1053-167357-1"
          },
          {
            "type": {
              "coding": [
                {
                  "code": "MR",
                  "system": "http://terminology.hl7.org/CodeSystem/v2-0203"
                }
              ]
            },
            "system": "http://local.setting.eu/identifier",
            "value": "706b1a23-528f-0ed7-639f-1dc54e8ecc5d"
          }
        ],
        "name": [
          {
            "family": "Köster"
          },
          {
            "given": [
              "Louise"
            ]
          },
          {
            "text": "Louise Köster"
          }
        ],
        "address": [
          {
            "line": [
              "Regina-Butte-Ring 737"
            ],
            "use": "home",
            "type": "physical",
            "postalCode": "88348",
            "city": "Saulgau",
            "country": "Germany"
          }
        ],
        "telecom": [
          {
            "system": "phone",
            "value": "+49(0)2075293938"
          }
        ],
        "extension": [
          {
            "url": "http://hl7.org/fhir/StructureDefinition/patient-nationality",
            "valueCodeableConcept": {
              "coding": [
                {
                  "code": "DE",
                  "system": "http://hl7.org/fhir/ValueSet/country"
                }
              ]
            }
          }
        ],
        "text": {
          "status": "generated",
          "div": "<div xmlns=\"http://www.w3.org/1999/xhtml\"><table class=\"hl7__ips\"><tr><td>Louise Köster</td><td>female</td><td>01-Jul-1957</td></tr></table></div>"
        },
        "gender": "female",
        "birthDate": "1957-07-01"
      }
    },
    {
      "fullUrl": "urn:uuid:7667ccbb-1700-41a5-bbcc-b40efe4c79a6",
      "resource": {
        "resourceType": "ServiceRequest",
        "id": "7667ccbb-1700-41a5-bbcc-b40efe4c79a6",
        "meta": {
          "profile": [
            "http://hl7.eu/fhir/laboratory/StructureDefinition/ServiceRequest-eu-lab"
          ]
        },
        "identifier": [
          {
            "system": "http://example.org",
            "value": "606ffffa-4b74-4365-8fdf-7df4171af3f4"
          }
        ],
        "specimen": [
          {
            "reference": "urn:uuid:83328673-84a6-4124-af0f-7bbf5be12b37"
          }
        ],
        "reasonCode": [
          {
            "coding": [
              {
                "code": "15777000",
                "system": "http://snomed.info/sct",
                "display": "Prediabetes"
              }
            ]
          },
          {
            "coding": [
              {
                "code": "237602007",
                "system": "http://snomed.info/sct",
                "display": "Metabolic syndrome X"
              }
            ]
          },
          {
            "coding": [
              {
                "code": "414545008",
                "system": "http://snomed.info/sct",
                "display": "Ischemic heart disease"
              }
            ]
          },
          {
            "coding": [
              {
                "code": "59621000",
                "system": "http://snomed.info/sct",
                "display": "Essential hypertension"
              }
            ]
          }
        ],
        "status": "active",
        "intent": "order",
        "code": {
          "coding": [
            {
              "code": "108252007",
              "system": "http://snomed.info/sct",
              "display": "Laboratory procedure"
            }
          ]
        },
        "subject": {
          "reference": "urn:uuid:b4bc7919-415c-44a4-91b3-ec42d7b597f3",
          "display": "Louise Köster"
        },
        "requester": {
          "reference": "urn:uuid:414b9eaf-4c32-42e1-acb5-fa5af6735b7b"
        }
      }
    },
    {
      "fullUrl": "urn:uuid:414b9eaf-4c32-42e1-acb5-fa5af6735b7b",
      "resource": {
        "resourceType": "PractitionerRole",
        "id": "414b9eaf-4c32-42e1-acb5-fa5af6735b7b",
        "meta": {
          "profile": [
            "http://hl7.eu/fhir/base/StructureDefinition/practitionerRole-eu"
          ]
        },
        "text": {
          "status": "generated",
          "div": "<div xmlns=\"http://www.w3.org/1999/xhtml\">Provider Role Id: 414b9eaf-4c32-42e1-acb5-fa5af6735b7b</div>"
        },
        "organization": {
          "reference": "urn:uuid:0abdddec-f6ff-476c-a680-816eafa271de"
        }
      }
    },
    {
      "fullUrl": "urn:uuid:0abdddec-f6ff-476c-a680-816eafa271de",
      "resource": {
        "resourceType": "Organization",
        "id": "0abdddec-f6ff-476c-a680-816eafa271de",
        "meta": {
          "profile": [
            "http://hl7.eu/fhir/base/StructureDefinition/organization-eu"
          ]
        },
        "identifier": [
          {
            "assigner": {
              "display": "HL7 Europe"
            },
            "system": "urn:oid:2.16.840.1.113883.2.51.999",
            "value": "8e4211ed-61c4-4450-a47c-6906bdd97a41"
          }
        ],
        "address": [
          {
            "line": [
              "Am Schönen Moos 7"
            ],
            "city": "Bad Saulgau",
            "postalCode": "88348",
            "country": "Germany"
          }
        ],
        "text": {
          "status": "generated",
          "div": "<div xmlns=\"http://www.w3.org/1999/xhtml\">Provider Organization: Klinik am schönen Moos</div>"
        },
        "name": "Klinik am schönen Moos"
      }
    },
    {
      "fullUrl": "urn:uuid:83328673-84a6-4124-af0f-7bbf5be12b37",
      "resource": {
        "resourceType": "Specimen",
        "id": "83328673-84a6-4124-af0f-7bbf5be12b37",
        "meta": {
          "profile": [
            "http://hl7.eu/fhir/laboratory/StructureDefinition/Specimen-eu-lab"
          ]
        },
        "collection": {
          "collectedDateTime": "2020-11-17"
        },
        "text": {
          "status": "generated",
          "div": "<div xmlns=\"http://www.w3.org/1999/xhtml\"><table class=\"hl7__eu__lab__report\"><tr><th>Specimen</th><th>Collection Date</th></tr><tr><td>Whole blood specimen (specimen)</td><td><span class=\"nb\">17-Nov-2020</span></td></tr></table></div>"
        },
        "type": {
          "coding": [
            {
              "code": "258580003",
              "system": "http://snomed.info/sct",
              "display": "Whole blood specimen (specimen)"
            }
          ]
        }
      }
    },
    {
      "fullUrl": "urn:uuid:11f9b743-5aa4-49d6-b1f3-74e923a16968",
      "resource": {
        "resourceType": "Observation",
        "id": "11f9b743-5aa4-49d6-b1f3-74e923a16968",
        "meta": {
          "profile": [
            "http://hl7.eu/fhir/laboratory/StructureDefinition/Observation-resultslab-eu-lab"
          ]
        },
        "performer": [
          {
            "display": "The Central European Lab"
          }
        ],
        "category": [
          {
            "coding": [
              {
                "system": "http://terminology.hl7.org/CodeSystem/observation-category",
                "code": "laboratory"
              }
            ]
          }
        ],
        "code": {
          "coding": [
            {
              "code": "4548-4",
              "system": "http://loinc.org",
              "display": "Hemoglobin A1c/Hemoglobin.total in Blood"
            }
          ],
          "text": "Hemoglobin A1c/Hemoglobin.total in Blood"
        },
        "valueQuantity": {
          "system": "http://unitsofmeasure.org",
          "value": 6,
          "unit": "%",
          "code": "%"
        },
        "referenceRange": [
          {
            "low": {
              "value": 4.5,
              "code": "%",
              "system": "http://unitsofmeasure.org"
            }
          },
          {
            "high": {
              "value": 6.4,
              "code": "%",
              "system": "http://unitsofmeasure.org"
            }
          }
        ],
        "text": {
          "status": "generated",
          "div": "<div xmlns=\"http://www.w3.org/1999/xhtml\"><table class=\"hl7__eu__lab__report\"><tr><th>Test</th><th>17-Nov-2020</th><th>Reference&#xA0;Range</th><th>Unit</th></tr><tr><td>Hemoglobin A1c/Hemoglobin.total in Blood</td><td>6.0</td><td>4.5 - 6.4</td><td></td><td>%</td></tr></table></div>"
        },
        "status": "final",
        "subject": {
          "reference": "urn:uuid:b4bc7919-415c-44a4-91b3-ec42d7b597f3",
          "display": "Louise Köster"
        },
        "effectiveDateTime": "2020-11-17T04:02:53Z",
        "specimen": {
          "reference": "urn:uuid:83328673-84a6-4124-af0f-7bbf5be12b37"
        }
      }
    },
    {
      "fullUrl": "urn:uuid:dff6eb42-ff86-4e6a-b096-b086c3dd2ddf",
      "resource": {
        "resourceType": "Observation",
        "id": "dff6eb42-ff86-4e6a-b096-b086c3dd2ddf",
        "meta": {
          "profile": [
            "http://hl7.eu/fhir/laboratory/StructureDefinition/Observation-resultslab-eu-lab"
          ]
        },
        "performer": [
          {
            "display": "The Central European Lab"
          }
        ],
        "category": [
          {
            "coding": [
              {
                "system": "http://terminology.hl7.org/CodeSystem/observation-category",
                "code": "laboratory"
              }
            ]
          }
        ],
        "code": {
          "coding": [
            {
              "code": "2339-0",
              "system": "http://loinc.org",
              "display": "Glucose [Mass/volume] in Blood"
            }
          ],
          "text": "Glucose [Mass/volume] in Blood"
        },
        "valueQuantity": {
          "system": "http://unitsofmeasure.org",
          "value": 85.8,
          "unit": "mg/dL",
          "code": "mg/dL"
        },
        "referenceRange": [
          {
            "low": {
              "value": 70,
              "code": "mg/dL",
              "system": "http://unitsofmeasure.org"
            }
          },
          {
            "high": {
              "value": 140,
              "code": "mg/dL",
              "system": "http://unitsofmeasure.org"
            }
          }
        ],
        "text": {
          "status": "generated",
          "div": "<div xmlns=\"http://www.w3.org/1999/xhtml\"><table class=\"hl7__eu__lab__report\"><tr><th>Test</th><th>17-Nov-2020</th><th>Reference&#xA0;Range</th><th>Unit</th></tr><tr><td>Glucose [Mass/volume] in Blood</td><td>85.8</td><td>70 - 140</td><td></td><td>mg/dL</td></tr></table></div>"
        },
        "status": "final",
        "subject": {
          "reference": "urn:uuid:b4bc7919-415c-44a4-91b3-ec42d7b597f3",
          "display": "Louise Köster"
        },
        "effectiveDateTime": "2020-11-17T04:02:53Z",
        "specimen": {
          "reference": "urn:uuid:83328673-84a6-4124-af0f-7bbf5be12b37"
        }
      }
    },
    {
      "fullUrl": "urn:uuid:e91e2183-e2c9-4fca-a2c4-c28617cdfa85",
      "resource": {
        "resourceType": "Observation",
        "id": "e91e2183-e2c9-4fca-a2c4-c28617cdfa85",
        "meta": {
          "profile": [
            "http://hl7.eu/fhir/laboratory/StructureDefinition/Observation-resultslab-eu-lab"
          ]
        },
        "performer": [
          {
            "display": "The Central European Lab"
          }
        ],
        "category": [
          {
            "coding": [
              {
                "system": "http://terminology.hl7.org/CodeSystem/observation-category",
                "code": "laboratory"
              }
            ]
          }
        ],
        "code": {
          "coding": [
            {
              "code": "6299-2",
              "system": "http://loinc.org",
              "display": "Urea nitrogen [Mass/volume] in Blood"
            }
          ],
          "text": "Urea nitrogen [Mass/volume] in Blood"
        },
        "valueQuantity": {
          "system": "http://unitsofmeasure.org",
          "value": 14.8,
          "unit": "mg/dL",
          "code": "mg/dL"
        },
        "referenceRange": [
          {
            "low": {
              "value": 7,
              "code": "mg/dL",
              "system": "http://unitsofmeasure.org"
            }
          },
          {
            "high": {
              "value": 43,
              "code": "mg/dL",
              "system": "http://unitsofmeasure.org"
            }
          }
        ],
        "text": {
          "status": "generated",
          "div": "<div xmlns=\"http://www.w3.org/1999/xhtml\"><table class=\"hl7__eu__lab__report\"><tr><th>Test</th><th>17-Nov-2020</th><th>Reference&#xA0;Range</th><th>Unit</th></tr><tr><td>Urea nitrogen [Mass/volume] in Blood</td><td>14.8</td><td>7 - 43</td><td></td><td>mg/dL</td></tr></table></div>"
        },
        "status": "final",
        "subject": {
          "reference": "urn:uuid:b4bc7919-415c-44a4-91b3-ec42d7b597f3",
          "display": "Louise Köster"
        },
        "effectiveDateTime": "2020-11-17T04:02:53Z",
        "specimen": {
          "reference": "urn:uuid:83328673-84a6-4124-af0f-7bbf5be12b37"
        }
      }
    },
    {
      "fullUrl": "urn:uuid:e6589654-0f10-4896-927e-389add0c924f",
      "resource": {
        "resourceType": "Observation",
        "id": "e6589654-0f10-4896-927e-389add0c924f",
        "meta": {
          "profile": [
            "http://hl7.eu/fhir/laboratory/StructureDefinition/Observation-resultslab-eu-lab"
          ]
        },
        "performer": [
          {
            "display": "The Central European Lab"
          }
        ],
        "category": [
          {
            "coding": [
              {
                "system": "http://terminology.hl7.org/CodeSystem/observation-category",
                "code": "laboratory"
              }
            ]
          }
        ],
        "code": {
          "coding": [
            {
              "code": "38483-4",
              "system": "http://loinc.org",
              "display": "Creatinine [Mass/volume] in Blood"
            }
          ],
          "text": "Creatinine [Mass/volume] in Blood"
        },
        "valueQuantity": {
          "system": "http://unitsofmeasure.org",
          "value": 1.1,
          "unit": "mg/dL",
          "code": "mg/dL"
        },
        "referenceRange": [
          {
            "low": {
              "value": 0.7,
              "code": "mg/dL",
              "system": "http://unitsofmeasure.org"
            }
          },
          {
            "high": {
              "value": 1.1,
              "code": "mg/dL",
              "system": "http://unitsofmeasure.org"
            }
          }
        ],
        "text": {
          "status": "generated",
          "div": "<div xmlns=\"http://www.w3.org/1999/xhtml\"><table class=\"hl7__eu__lab__report\"><tr><th>Test</th><th>17-Nov-2020</th><th>Reference&#xA0;Range</th><th>Unit</th></tr><tr><td>Creatinine [Mass/volume] in Blood</td><td>1.1</td><td>0.7 - 1.1</td><td></td><td>mg/dL</td></tr></table></div>"
        },
        "status": "final",
        "subject": {
          "reference": "urn:uuid:b4bc7919-415c-44a4-91b3-ec42d7b597f3",
          "display": "Louise Köster"
        },
        "effectiveDateTime": "2020-11-17T04:02:53Z",
        "specimen": {
          "reference": "urn:uuid:83328673-84a6-4124-af0f-7bbf5be12b37"
        }
      }
    },
    {
      "fullUrl": "urn:uuid:f8356175-c4f1-487b-8da7-87ac703e0681",
      "resource": {
        "resourceType": "Observation",
        "id": "f8356175-c4f1-487b-8da7-87ac703e0681",
        "meta": {
          "profile": [
            "http://hl7.eu/fhir/laboratory/StructureDefinition/Observation-resultslab-eu-lab"
          ]
        },
        "performer": [
          {
            "display": "The Central European Lab"
          }
        ],
        "category": [
          {
            "coding": [
              {
                "system": "http://terminology.hl7.org/CodeSystem/observation-category",
                "code": "laboratory"
              }
            ]
          }
        ],
        "code": {
          "coding": [
            {
              "code": "49765-1",
              "system": "http://loinc.org",
              "display": "Calcium [Mass/volume] in Blood"
            }
          ],
          "text": "Calcium [Mass/volume] in Blood"
        },
        "valueQuantity": {
          "system": "http://unitsofmeasure.org",
          "value": 9.1,
          "unit": "mg/dL",
          "code": "mg/dL"
        },
        "referenceRange": [
          {
            "low": {
              "value": 8.5,
              "code": "mg/dL",
              "system": "http://unitsofmeasure.org"
            }
          },
          {
            "high": {
              "value": 10.4,
              "code": "mg/dL",
              "system": "http://unitsofmeasure.org"
            }
          }
        ],
        "text": {
          "status": "generated",
          "div": "<div xmlns=\"http://www.w3.org/1999/xhtml\"><table class=\"hl7__eu__lab__report\"><tr><th>Test</th><th>17-Nov-2020</th><th>Reference&#xA0;Range</th><th>Unit</th></tr><tr><td>Calcium [Mass/volume] in Blood</td><td>9.1</td><td>8.5 - 10.4</td><td></td><td>mg/dL</td></tr></table></div>"
        },
        "status": "final",
        "subject": {
          "reference": "urn:uuid:b4bc7919-415c-44a4-91b3-ec42d7b597f3",
          "display": "Louise Köster"
        },
        "effectiveDateTime": "2020-11-17T04:02:53Z",
        "specimen": {
          "reference": "urn:uuid:83328673-84a6-4124-af0f-7bbf5be12b37"
        }
      }
    },
    {
      "fullUrl": "urn:uuid:57d12dc2-d056-4fcc-a10e-91e7db51b751",
      "resource": {
        "resourceType": "Observation",
        "id": "57d12dc2-d056-4fcc-a10e-91e7db51b751",
        "meta": {
          "profile": [
            "http://hl7.eu/fhir/laboratory/StructureDefinition/Observation-resultslab-eu-lab"
          ]
        },
        "performer": [
          {
            "display": "The Central European Lab"
          }
        ],
        "category": [
          {
            "coding": [
              {
                "system": "http://terminology.hl7.org/CodeSystem/observation-category",
                "code": "laboratory"
              }
            ]
          }
        ],
        "code": {
          "coding": [
            {
              "code": "2947-0",
              "system": "http://loinc.org",
              "display": "Sodium [Moles/volume] in Blood"
            }
          ],
          "text": "Sodium [Moles/volume] in Blood"
        },
        "valueQuantity": {
          "system": "http://unitsofmeasure.org",
          "value": 143.8,
          "unit": "mmol/L",
          "code": "mmol/L"
        },
        "referenceRange": [
          {
            "low": {
              "value": 135,
              "code": "mmol/L",
              "system": "http://unitsofmeasure.org"
            }
          },
          {
            "high": {
              "value": 145,
              "code": "mmol/L",
              "system": "http://unitsofmeasure.org"
            }
          }
        ],
        "text": {
          "status": "generated",
          "div": "<div xmlns=\"http://www.w3.org/1999/xhtml\"><table class=\"hl7__eu__lab__report\"><tr><th>Test</th><th>17-Nov-2020</th><th>Reference&#xA0;Range</th><th>Unit</th></tr><tr><td>Sodium [Moles/volume] in Blood</td><td>143.8</td><td>135 - 145</td><td></td><td>mmol/L</td></tr></table></div>"
        },
        "status": "final",
        "subject": {
          "reference": "urn:uuid:b4bc7919-415c-44a4-91b3-ec42d7b597f3",
          "display": "Louise Köster"
        },
        "effectiveDateTime": "2020-11-17T04:02:53Z",
        "specimen": {
          "reference": "urn:uuid:83328673-84a6-4124-af0f-7bbf5be12b37"
        }
      }
    },
    {
      "fullUrl": "urn:uuid:8cec7ce5-8d9a-4223-a07b-cf530fba369c",
      "resource": {
        "resourceType": "Observation",
        "id": "8cec7ce5-8d9a-4223-a07b-cf530fba369c",
        "meta": {
          "profile": [
            "http://hl7.eu/fhir/laboratory/StructureDefinition/Observation-resultslab-eu-lab"
          ]
        },
        "performer": [
          {
            "display": "The Central European Lab"
          }
        ],
        "category": [
          {
            "coding": [
              {
                "system": "http://terminology.hl7.org/CodeSystem/observation-category",
                "code": "laboratory"
              }
            ]
          }
        ],
        "code": {
          "coding": [
            {
              "code": "6298-4",
              "system": "http://loinc.org",
              "display": "Potassium [Moles/volume] in Blood"
            }
          ],
          "text": "Potassium [Moles/volume] in Blood"
        },
        "valueQuantity": {
          "system": "http://unitsofmeasure.org",
          "value": 5.1,
          "unit": "mmol/L",
          "code": "mmol/L"
        },
        "referenceRange": [
          {
            "low": {
              "value": 3.5,
              "code": "mmol/L",
              "system": "http://unitsofmeasure.org"
            }
          },
          {
            "high": {
              "value": 5.1,
              "code": "mmol/L",
              "system": "http://unitsofmeasure.org"
            }
          }
        ],
        "text": {
          "status": "generated",
          "div": "<div xmlns=\"http://www.w3.org/1999/xhtml\"><table class=\"hl7__eu__lab__report\"><tr><th>Test</th><th>17-Nov-2020</th><th>Reference&#xA0;Range</th><th>Unit</th></tr><tr><td>Potassium [Moles/volume] in Blood</td><td>5.1</td><td>3.5 - 5.1</td><td></td><td>mmol/L</td></tr></table></div>"
        },
        "status": "final",
        "subject": {
          "reference": "urn:uuid:b4bc7919-415c-44a4-91b3-ec42d7b597f3",
          "display": "Louise Köster"
        },
        "effectiveDateTime": "2020-11-17T04:02:53Z",
        "specimen": {
          "reference": "urn:uuid:83328673-84a6-4124-af0f-7bbf5be12b37"
        }
      }
    },
    {
      "fullUrl": "urn:uuid:c996f6be-de5a-41fd-a44b-14a6d8bfc148",
      "resource": {
        "resourceType": "Observation",
        "id": "c996f6be-de5a-41fd-a44b-14a6d8bfc148",
        "meta": {
          "profile": [
            "http://hl7.eu/fhir/laboratory/StructureDefinition/Observation-resultslab-eu-lab"
          ]
        },
        "performer": [
          {
            "display": "The Central European Lab"
          }
        ],
        "category": [
          {
            "coding": [
              {
                "system": "http://terminology.hl7.org/CodeSystem/observation-category",
                "code": "laboratory"
              }
            ]
          }
        ],
        "code": {
          "coding": [
            {
              "code": "2069-3",
              "system": "http://loinc.org",
              "display": "Chloride [Moles/volume] in Blood"
            }
          ],
          "text": "Chloride [Moles/volume] in Blood"
        },
        "valueQuantity": {
          "system": "http://unitsofmeasure.org",
          "value": 103.6,
          "unit": "mmol/L",
          "code": "mmol/L"
        },
        "referenceRange": [
          {
            "low": {
              "value": 98,
              "code": "mmol/L",
              "system": "http://unitsofmeasure.org"
            }
          },
          {
            "high": {
              "value": 107,
              "code": "mmol/L",
              "system": "http://unitsofmeasure.org"
            }
          }
        ],
        "text": {
          "status": "generated",
          "div": "<div xmlns=\"http://www.w3.org/1999/xhtml\"><table class=\"hl7__eu__lab__report\"><tr><th>Test</th><th>17-Nov-2020</th><th>Reference&#xA0;Range</th><th>Unit</th></tr><tr><td>Chloride [Moles/volume] in Blood</td><td>103.6</td><td>98 - 107</td><td></td><td>mmol/L</td></tr></table></div>"
        },
        "status": "final",
        "subject": {
          "reference": "urn:uuid:b4bc7919-415c-44a4-91b3-ec42d7b597f3",
          "display": "Louise Köster"
        },
        "effectiveDateTime": "2020-11-17T04:02:53Z",
        "specimen": {
          "reference": "urn:uuid:83328673-84a6-4124-af0f-7bbf5be12b37"
        }
      }
    },
    {
      "fullUrl": "urn:uuid:e1a4daed-59f3-4681-8ab6-504c7577c9e2",
      "resource": {
        "resourceType": "Observation",
        "id": "e1a4daed-59f3-4681-8ab6-504c7577c9e2",
        "meta": {
          "profile": [
            "http://hl7.eu/fhir/laboratory/StructureDefinition/Observation-resultslab-eu-lab"
          ]
        },
        "performer": [
          {
            "display": "The Central European Lab"
          }
        ],
        "category": [
          {
            "coding": [
              {
                "system": "http://terminology.hl7.org/CodeSystem/observation-category",
                "code": "laboratory"
              }
            ]
          }
        ],
        "code": {
          "coding": [
            {
              "code": "20565-8",
              "system": "http://loinc.org",
              "display": "Carbon dioxide, total [Moles/volume] in Blood"
            }
          ],
          "text": "Carbon dioxide, total [Moles/volume] in Blood"
        },
        "valueQuantity": {
          "system": "http://unitsofmeasure.org",
          "value": 24.9,
          "unit": "mmol/L",
          "code": "mmol/L"
        },
        "referenceRange": [
          {
            "low": {
              "value": 22,
              "code": "mmol/L",
              "system": "http://unitsofmeasure.org"
            }
          },
          {
            "high": {
              "value": 32,
              "code": "mmol/L",
              "system": "http://unitsofmeasure.org"
            }
          }
        ],
        "text": {
          "status": "generated",
          "div": "<div xmlns=\"http://www.w3.org/1999/xhtml\"><table class=\"hl7__eu__lab__report\"><tr><th>Test</th><th>17-Nov-2020</th><th>Reference&#xA0;Range</th><th>Unit</th></tr><tr><td>Carbon dioxide, total [Moles/volume] in Blood</td><td>24.9</td><td>22 - 32</td><td></td><td>mmol/L</td></tr></table></div>"
        },
        "status": "final",
        "subject": {
          "reference": "urn:uuid:b4bc7919-415c-44a4-91b3-ec42d7b597f3",
          "display": "Louise Köster"
        },
        "effectiveDateTime": "2020-11-17T04:02:53Z",
        "specimen": {
          "reference": "urn:uuid:83328673-84a6-4124-af0f-7bbf5be12b37"
        }
      }
    },
    {
      "fullUrl": "urn:uuid:ff19d57e-93d2-423b-af05-382b86c125b6",
      "resource": {
        "resourceType": "Device",
        "id": "ff19d57e-93d2-423b-af05-382b86c125b6",
        "deviceName": [
          {
            "name": "SYNDERAI Synthetic Generator",
            "type": "manufacturer-name"
          }
        ],
        "version": [
          {
            "value": "5.0"
          }
        ],
        "text": {
          "status": "generated",
          "div": "<div xmlns=\"http://www.w3.org/1999/xhtml\">SYNDERAI Synthetic Generator v5.0</div>"
        },
        "status": "active\"",
        "distinctIdentifier": "synderai-generator-50",
        "manufacturer": "SYNDERAI Project"
      }
    },
    {
      "fullUrl": "urn:uuid:20b40d1d-2d5b-4106-a68b-890b349f311b",
      "resource": {
        "resourceType": "Provenance",
        "id": "20b40d1d-2d5b-4106-a68b-890b349f311b",
        "target": [
          {
            "reference": "Patient/b4bc7919-415c-44a4-91b3-ec42d7b597f3"
          },
          {
            "reference": "Bundle/dc3f0c1c-b4ed-4d3b-9dc9-e82036f496be"
          },
          {
            "reference": "Composition/6f9da3a8-ddb1-4f0c-ae8b-176c9bd12a3d"
          },
          {
            "reference": "PractitionerRole/3063b8ff-c226-4fc3-9ee4-268dd245bb0b"
          },
          {
            "reference": "Practitioner/f357f91a-4f2e-4f5b-98dc-d68a036ead6e"
          },
          {
            "reference": "PractitionerRole/414b9eaf-4c32-42e1-acb5-fa5af6735b7b"
          },
          {
            "reference": "Organization/0abdddec-f6ff-476c-a680-816eafa271de"
          }
        ],
        "activity": {
          "text": "Synthetic Example Data Generation"
        },
        "policy": [
          "https://synderai.net/synderai-synthetic-data-policy"
        ],
        "agent": [
          {
            "type": {
              "text": "author"
            },
            "who": {
              "reference": "Device/ff19d57e-93d2-423b-af05-382b86c125b6"
            }
          }
        ],
        "reason": [
          {
            "text": "Interoperability Testing and Training (non-clinical use)"
          }
        ],
        "text": {
          "status": "generated",
          "div": "<div xmlns=\"http://www.w3.org/1999/xhtml\">Provenance for SYNDERAI Synthetic Example Data Resource</div>"
        },
        "recorded": "2020-11-17T05:02:53Z"
      }
    },
    {
      "fullUrl": "urn:uuid:3063b8ff-c226-4fc3-9ee4-268dd245bb0b",
      "resource": {
        "resourceType": "PractitionerRole",
        "id": "3063b8ff-c226-4fc3-9ee4-268dd245bb0b",
        "meta": {
          "profile": [
            "http://hl7.eu/fhir/base/StructureDefinition/practitionerRole-eu"
          ]
        },
        "text": {
          "status": "generated",
          "div": "<div xmlns=\"http://www.w3.org/1999/xhtml\">Laboratory Role Id: 3063b8ff-c226-4fc3-9ee4-268dd245bb0b</div>"
        },
        "practitioner": {
          "reference": "urn:uuid:f357f91a-4f2e-4f5b-98dc-d68a036ead6e"
        }
      }
    },
    {
      "fullUrl": "urn:uuid:f357f91a-4f2e-4f5b-98dc-d68a036ead6e",
      "resource": {
        "resourceType": "Practitioner",
        "id": "f357f91a-4f2e-4f5b-98dc-d68a036ead6e",
        "meta": {
          "profile": [
            "http://hl7.eu/fhir/base/StructureDefinition/practitioner-eu"
          ]
        },
        "identifier": [
          {
            "assigner": {
              "display": "HL7 Europe"
            },
            "system": "urn:oid:2.16.840.1.113883.2.51.999",
            "value": "8b2283f3-6dec-44c6-9170-be383563f78a"
          }
        ],
        "name": [
          {
            "prefix": [
              "dr"
            ],
            "given": [
              "Ex"
            ],
            "family": "Ample"
          }
        ],
        "address": [
          {
            "line": [
              "Laboratoire Central Européenne",
              "Boulevard du Jardin Botanique 32"
            ],
            "postalCode": "1000",
            "city": "Brussels",
            "country": "Belgium"
          }
        ],
        "text": {
          "status": "generated",
          "div": "<div xmlns=\"http://www.w3.org/1999/xhtml\">Laboratory: Laboratoire Central Européenne, 1000 Brussels, Belgium</div>"
        }
      }
    }
  ],
  "type": "document",
  "timestamp": "2020-11-17T05:02:53Z"
}
