{
  "resourceType": "Bundle",
  "id": "09de0238-b9bf-44e6-a21f-8e6721ef4381",
  "meta": {
    "profile": [
      "http://hl7.eu/fhir/laboratory/StructureDefinition/Bundle-eu-lab"
    ]
  },
  "identifier": {
    "assigner": {
      "display": "HL7 Europe"
    },
    "system": "urn:oid:2.16.840.1.113883.2.51.999",
    "value": "607ed0ae-461b-445e-a191-7270fc27b45e"
  },
  "entry": [
    {
      "fullUrl": "urn:uuid:808defdb-af6c-4978-895e-b245e1b6e71b",
      "resource": {
        "resourceType": "Composition",
        "id": "808defdb-af6c-4978-895e-b245e1b6e71b",
        "meta": {
          "profile": [
            "http://hl7.eu/fhir/laboratory/StructureDefinition/Composition-eu-lab"
          ]
        },
        "identifier": {
          "assigner": {
            "display": "HL7 Europe"
          },
          "system": "urn:oid:2.16.840.1.113883.2.51.999",
          "value": "d4555165-1b35-4aec-8113-add10027efcc"
        },
        "author": [
          {
            "reference": "urn:uuid:1502a2e4-a005-4ba3-85ed-1157eed62031"
          }
        ],
        "category": [
          {
            "coding": [
              {
                "code": "26436-6",
                "system": "http://loinc.org",
                "display": "Laboratory studies (set)"
              }
            ]
          }
        ],
        "type": {
          "coding": [
            {
              "code": "11502-2",
              "system": "http://loinc.org",
              "display": "Laboratory report"
            }
          ],
          "text": "Laboratory Report"
        },
        "section": [
          {
            "code": {
              "coding": [
                {
                  "code": "26436-6",
                  "system": "http://loinc.org",
                  "display": "Laboratory studies (set)"
                }
              ],
              "text": "Laboratory studies"
            },
            "section": [
              {
                "code": {
                  "coding": [
                    {
                      "code": "$18719-5",
                      "system": "http://loinc.org",
                      "display": "Chemistry studies (set)"
                    }
                  ],
                  "text": "Chemistry"
                },
                "entry": [
                  {
                    "reference": "urn:uuid:a93fd132-b4cc-462b-958f-5fe0a4d42e54"
                  },
                  {
                    "reference": "urn:uuid:a268b1da-875a-48a0-a850-d138d493b0c5"
                  },
                  {
                    "reference": "urn:uuid:2cc1b83d-ab2a-478e-b89f-aefc31d6d838"
                  },
                  {
                    "reference": "urn:uuid:94c68f40-f3f5-4753-ba73-9822f8d9ee95"
                  },
                  {
                    "reference": "urn:uuid:ed111eb4-95de-42a7-87bb-82bcb7a97169"
                  },
                  {
                    "reference": "urn:uuid:9d550903-931d-481f-b370-01be165ea34c"
                  },
                  {
                    "reference": "urn:uuid:827c1e4f-0379-4085-81b3-d51421b37d5e"
                  },
                  {
                    "reference": "urn:uuid:cd214b0d-05f3-4ae5-bf93-e1e015ac4876"
                  },
                  {
                    "reference": "urn:uuid:21b2068a-d03f-4fc9-9b08-145260a23df4"
                  },
                  {
                    "reference": "urn:uuid:b58ad2c6-fe3e-420b-bef2-45ad1fbea114"
                  },
                  {
                    "reference": "urn:uuid:d002b567-42a3-4665-85d8-96890f3f589e"
                  },
                  {
                    "reference": "urn:uuid:171b5937-5ac9-4920-b29a-5b7e490d9413"
                  },
                  {
                    "reference": "urn:uuid:a7027e18-d18b-4264-ae27-eae1d9566b6f"
                  },
                  {
                    "reference": "urn:uuid:d875eeaf-fd0c-4323-971d-6d9f0fe541ff"
                  },
                  {
                    "reference": "urn:uuid:a44b90d5-cb5d-47e0-b61e-07be30c3c9c5"
                  },
                  {
                    "reference": "urn:uuid:2969eead-1ca0-45c6-8475-c75ffb100a89"
                  },
                  {
                    "reference": "urn:uuid:7981f502-f290-4032-8af8-56dec5a3b40b"
                  },
                  {
                    "reference": "urn:uuid:f3de686a-1f04-43c1-a43f-f5684fac0f9f"
                  }
                ],
                "text": {
                  "status": "generated",
                  "div": "<div xmlns=\"http://www.w3.org/1999/xhtml\"><h3>Chemistry</h3><table class=\"hl7__eu__lab__report\"><thead><tr><th>Test</th><th>13-JAN-2020</th><th>Reference&#xA0;Range</th><th>Unit</th></tr></thead><tbody><tr><td>Glucose [Mass/volume] in Serum or Plasma</td><td><strong>65.4 L</strong></td><td>70 - 99</td><td>mg/dL</td></tr><tr><td>Urea nitrogen [Mass/volume] in Serum or Plasma</td><td>16.0</td><td>7 - 50</td><td>mg/dL</td></tr><tr><td>Creatinine [Mass/volume] in Serum or Plasma</td><td><strong>2.1 H</strong></td><td>0.6 - 1.1</td><td>mg/dL</td></tr><tr><td>Calcium [Mass/volume] in Serum or Plasma</td><td>9.3</td><td>8.6 - 10.4</td><td>mg/dL</td></tr><tr><td>Sodium [Moles/volume] in Serum or Plasma</td><td>136.6</td><td>135 - 145</td><td>mmol/L</td></tr><tr><td>Potassium [Moles/volume] in Serum or Plasma</td><td>4.8</td><td>3.5 - 5.1</td><td>mmol/L</td></tr><tr><td>Chloride [Moles/volume] in Serum or Plasma</td><td>101.2</td><td>98 - 108</td><td>mmol/L</td></tr><tr><td>Carbon dioxide, total [Moles/volume] in Serum or Plasma</td><td>23.8</td><td>22 - 32</td><td>mmol/L</td></tr><tr><td>Ketones [Presence] in Urine by Test strip</td><td>Urine ketone test = ++</td><td></td><td></td></tr><tr><td>Hemoglobin A1c/Hemoglobin.total in Blood</td><td><strong>2.9 L</strong></td><td>4 - 6.4</td><td>%</td></tr><tr><td>Glucose [Mass/volume] in Blood</td><td><strong>65.4 L</strong></td><td>70 - 100</td><td>mg/dL</td></tr><tr><td>Urea nitrogen [Mass/volume] in Blood</td><td>16.0</td><td>7 - 43</td><td>mg/dL</td></tr><tr><td>Creatinine [Mass/volume] in Blood</td><td><strong>3.7 H</strong></td><td>0.6 - 1.1</td><td>mg/dL</td></tr><tr><td>Calcium [Mass/volume] in Blood</td><td>9.3</td><td>8.5 - 10.5</td><td>mg/dL</td></tr><tr><td>Sodium [Moles/volume] in Blood</td><td>136.6</td><td>135 - 145</td><td>mmol/L</td></tr><tr><td>Potassium [Moles/volume] in Blood</td><td>4.8</td><td>3.5 - 5.1</td><td>mmol/L</td></tr><tr><td>Chloride [Moles/volume] in Blood</td><td>101.2</td><td>98 - 108</td><td>mmol/L</td></tr><tr><td>Carbon dioxide, total [Moles/volume] in Blood</td><td>23.8</td><td>22 - 29</td><td>mmol/L</td></tr></tbody></table></div>"
                },
                "title": "Chemistry"
              },
              {
                "code": {
                  "coding": [
                    {
                      "code": "$18729-4",
                      "system": "http://loinc.org",
                      "display": "Urinalysis studies (set)"
                    }
                  ],
                  "text": "Urinalysis"
                },
                "entry": [
                  {
                    "reference": "urn:uuid:c21637a2-78eb-4c66-b436-78dc35e36f8f"
                  },
                  {
                    "reference": "urn:uuid:60334414-9272-4aeb-b5a3-165f6b782178"
                  },
                  {
                    "reference": "urn:uuid:d807e90a-25eb-4290-b0d2-46548bfc230b"
                  },
                  {
                    "reference": "urn:uuid:3b4aaedb-e08c-416b-b15c-5933001eab24"
                  },
                  {
                    "reference": "urn:uuid:a42d95c9-5455-4d4b-8943-64811dcb1a20"
                  },
                  {
                    "reference": "urn:uuid:0dd03c93-69d6-47e5-b0e4-6ab80ead665c"
                  },
                  {
                    "reference": "urn:uuid:42fa544b-48d5-4570-940e-5d0b680ebe7f"
                  },
                  {
                    "reference": "urn:uuid:c7705a4d-9689-4dcc-8656-5986ba829421"
                  },
                  {
                    "reference": "urn:uuid:375785ef-89f0-4e97-8c52-384698026e54"
                  },
                  {
                    "reference": "urn:uuid:f47b0dbd-cc8c-4e95-ade0-794d3e301e20"
                  },
                  {
                    "reference": "urn:uuid:afe2647a-0677-4c1f-86fb-68286fc0472b"
                  },
                  {
                    "reference": "urn:uuid:e0da7ec8-46c8-4db1-94f3-09f703dc86ff"
                  }
                ],
                "text": {
                  "status": "generated",
                  "div": "<div xmlns=\"http://www.w3.org/1999/xhtml\"><h3>Urinalysis</h3><table class=\"hl7__eu__lab__report\"><thead><tr><th>Test</th><th>13-JAN-2020</th><th>Reference&#xA0;Range</th><th>Unit</th></tr></thead><tbody><tr><td>Glucose [Mass/volume] in Urine by Test strip</td><td><strong>1.9 H</strong></td><td>0.8 - 0</td><td>mg/dL</td></tr><tr><td>Glucose [Presence] in Urine by Test strip</td><td>++</td><td></td><td></td></tr><tr><td>Bilirubin.total [Mass/volume] in Urine by Test strip</td><td>0.7</td><td>0 - 1</td><td>mg/dL</td></tr><tr><td>Bilirubin.total [Presence] in Urine by Test strip</td><td>Finding of bilirubin in urine</td><td></td><td></td></tr><tr><td>Ketones [Mass/volume] in Urine by Test strip</td><td><strong>5.0 H</strong></td><td>0 - 4</td><td>mg/dL</td></tr><tr><td>Specific gravity of Urine by Test strip</td><td><strong>1.0 L</strong></td><td>1.005 - 1.03</td><td>{nominal}</td></tr><tr><td>pH of Urine by Test strip</td><td>6.3</td><td>4.6 - 7</td><td>pH</td></tr><tr><td>Protein [Mass/volume] in Urine by Test strip</td><td><strong>390.5 H</strong></td><td>0 - 14</td><td>mg/dL</td></tr><tr><td>Protein [Presence] in Urine by Test strip</td><td>Urine protein test = ++</td><td></td><td></td></tr><tr><td>Nitrite [Presence] in Urine by Test strip</td><td>Urine nitrite negative</td><td></td><td></td></tr><tr><td>Hemoglobin [Presence] in Urine by Test strip</td><td>Urine blood test = negative</td><td></td><td></td></tr><tr><td>Leukocyte esterase [Presence] in Urine by Test strip</td><td>Urine leukocyte test negative</td><td></td><td></td></tr></tbody></table></div>"
                },
                "title": "Urinalysis"
              },
              {
                "code": {
                  "coding": [
                    {
                      "code": "$LP7846-1",
                      "system": "http://loinc.org",
                      "display": "Specimen information"
                    }
                  ],
                  "text": "Specimen information"
                },
                "entry": [
                  {
                    "reference": "urn:uuid:4ab48c5f-874d-4c3f-964c-5f78dba029be"
                  },
                  {
                    "reference": "urn:uuid:c94f54f7-28e5-4f61-b629-892d0533aaf1"
                  },
                  {
                    "reference": "urn:uuid:bbb1608b-a0ef-4c06-acfc-e30880859510"
                  },
                  {
                    "reference": "urn:uuid:9d37d774-96fc-4f86-ba84-54e2a6d12f87"
                  }
                ],
                "text": {
                  "status": "generated",
                  "div": "<div xmlns=\"http://www.w3.org/1999/xhtml\"><h3>Specimen information</h3><table class=\"hl7__eu__lab__report\"><thead><tr><th>Test</th><th>13-JAN-2020</th><th>Specimen</th><th></th></tr></thead><tbody><tr><td>Appearance of Urine</td><td>Cloudy urine</td><td>Urine</td><td></td></tr><tr><td>Odor of Urine</td><td>Urine smell ammoniacal</td><td>Urine</td><td></td></tr><tr><td>Clarity of Urine</td><td>Translucent</td><td>Urine</td><td></td></tr><tr><td>Color of Urine</td><td>Brown color</td><td>Urine</td><td></td></tr></tbody></table></div>"
                },
                "title": "Specimen information"
              }
            ],
            "title": "Laboratory Report"
          },
          {
            "text": {
              "status": "generated",
              "div": "<div xmlns=\"http://www.w3.org/1999/xhtml\"><h3>Annotation</h3><table class=\"hl7__eu__lab__report\"><tr><th>Conclusion and Recommendations based on this report and previous findings known to us</th></tr><tr><td>The patient shows elevated creatinine, significant proteinuria, and abnormal urine findings (cloudy, brown, low specific gravity), suggesting impaired renal function, possibly acute or chronic kidney disease. Hypoglycemia is present with low HbA1c, and there is glucosuria and ketonuria, which may indicate altered glucose metabolism or possible starvation/fasting state. No evidence of urinary tract infection (negative nitrites/leukocytes). Recommend urgent clinical correlation and nephrology evaluation.</td></tr></table></div>"
            },
            "code": {
              "coding": [
                {
                  "system": "http://loinc.org",
                  "code": "48767-8",
                  "display": "Annotation comment"
                }
              ]
            },
            "title": "Annotation comment"
          }
        ],
        "status": "final",
        "subject": {
          "reference": "urn:uuid:87457001-f4a3-4f10-845c-037e44070e79",
          "display": "Meaghan Neary"
        },
        "date": "2020-01-13T23:11:04Z",
        "title": "Laboratory Report",
        "confidentiality": "N"
      }
    },
    {
      "fullUrl": "urn:uuid:3086fe8c-6d19-4401-aa6a-a3b565b52611",
      "resource": {
        "resourceType": "DiagnosticReport",
        "id": "3086fe8c-6d19-4401-aa6a-a3b565b52611",
        "meta": {
          "profile": [
            "http://hl7.eu/fhir/laboratory/StructureDefinition/DiagnosticReport-eu-lab"
          ]
        },
        "identifier": [
          {
            "assigner": {
              "display": "HL7 Europe"
            },
            "system": "urn:oid:2.16.840.1.113883.2.51.999",
            "value": "763c4e66-cb33-4503-8bdc-ab2de62df821"
          }
        ],
        "extension": [
          {
            "url": "http://hl7.org/fhir/5.0/StructureDefinition/extension-DiagnosticReport.composition",
            "valueReference": {
              "reference": "urn:uuid:d4555165-1b35-4aec-8113-add10027efcc"
            }
          }
        ],
        "category": [
          {
            "coding": [
              {
                "code": "26436-6",
                "system": "http://loinc.org",
                "display": "Laboratory studies (set)"
              }
            ]
          }
        ],
        "specimen": [
          {
            "reference": "urn:uuid:4667e7e9-2ee5-4fba-afb4-f1733b3fb4a0"
          },
          {
            "reference": "urn:uuid:28166aeb-cd0d-4c93-baa9-f1bdccff2eef"
          },
          {
            "reference": "urn:uuid:64f6440b-7b8c-4434-9562-b3b431889433"
          }
        ],
        "result": [
          {
            "reference": "urn:uuid:a93fd132-b4cc-462b-958f-5fe0a4d42e54"
          },
          {
            "reference": "urn:uuid:a268b1da-875a-48a0-a850-d138d493b0c5"
          },
          {
            "reference": "urn:uuid:2cc1b83d-ab2a-478e-b89f-aefc31d6d838"
          },
          {
            "reference": "urn:uuid:94c68f40-f3f5-4753-ba73-9822f8d9ee95"
          },
          {
            "reference": "urn:uuid:ed111eb4-95de-42a7-87bb-82bcb7a97169"
          },
          {
            "reference": "urn:uuid:9d550903-931d-481f-b370-01be165ea34c"
          },
          {
            "reference": "urn:uuid:827c1e4f-0379-4085-81b3-d51421b37d5e"
          },
          {
            "reference": "urn:uuid:cd214b0d-05f3-4ae5-bf93-e1e015ac4876"
          },
          {
            "reference": "urn:uuid:4ab48c5f-874d-4c3f-964c-5f78dba029be"
          },
          {
            "reference": "urn:uuid:c94f54f7-28e5-4f61-b629-892d0533aaf1"
          },
          {
            "reference": "urn:uuid:bbb1608b-a0ef-4c06-acfc-e30880859510"
          },
          {
            "reference": "urn:uuid:9d37d774-96fc-4f86-ba84-54e2a6d12f87"
          },
          {
            "reference": "urn:uuid:c21637a2-78eb-4c66-b436-78dc35e36f8f"
          },
          {
            "reference": "urn:uuid:60334414-9272-4aeb-b5a3-165f6b782178"
          },
          {
            "reference": "urn:uuid:d807e90a-25eb-4290-b0d2-46548bfc230b"
          },
          {
            "reference": "urn:uuid:3b4aaedb-e08c-416b-b15c-5933001eab24"
          },
          {
            "reference": "urn:uuid:a42d95c9-5455-4d4b-8943-64811dcb1a20"
          },
          {
            "reference": "urn:uuid:21b2068a-d03f-4fc9-9b08-145260a23df4"
          },
          {
            "reference": "urn:uuid:0dd03c93-69d6-47e5-b0e4-6ab80ead665c"
          },
          {
            "reference": "urn:uuid:42fa544b-48d5-4570-940e-5d0b680ebe7f"
          },
          {
            "reference": "urn:uuid:c7705a4d-9689-4dcc-8656-5986ba829421"
          },
          {
            "reference": "urn:uuid:375785ef-89f0-4e97-8c52-384698026e54"
          },
          {
            "reference": "urn:uuid:f47b0dbd-cc8c-4e95-ade0-794d3e301e20"
          },
          {
            "reference": "urn:uuid:afe2647a-0677-4c1f-86fb-68286fc0472b"
          },
          {
            "reference": "urn:uuid:e0da7ec8-46c8-4db1-94f3-09f703dc86ff"
          },
          {
            "reference": "urn:uuid:b58ad2c6-fe3e-420b-bef2-45ad1fbea114"
          },
          {
            "reference": "urn:uuid:d002b567-42a3-4665-85d8-96890f3f589e"
          },
          {
            "reference": "urn:uuid:171b5937-5ac9-4920-b29a-5b7e490d9413"
          },
          {
            "reference": "urn:uuid:a7027e18-d18b-4264-ae27-eae1d9566b6f"
          },
          {
            "reference": "urn:uuid:d875eeaf-fd0c-4323-971d-6d9f0fe541ff"
          },
          {
            "reference": "urn:uuid:a44b90d5-cb5d-47e0-b61e-07be30c3c9c5"
          },
          {
            "reference": "urn:uuid:2969eead-1ca0-45c6-8475-c75ffb100a89"
          },
          {
            "reference": "urn:uuid:7981f502-f290-4032-8af8-56dec5a3b40b"
          },
          {
            "reference": "urn:uuid:f3de686a-1f04-43c1-a43f-f5684fac0f9f"
          }
        ],
        "status": "registered",
        "code": {
          "coding": [
            {
              "code": "11502-2",
              "system": "http://loinc.org",
              "display": "Laboratory report"
            }
          ]
        },
        "subject": {
          "reference": "urn:uuid:87457001-f4a3-4f10-845c-037e44070e79",
          "display": "Meaghan Neary"
        }
      }
    },
    {
      "fullUrl": "urn:uuid:87457001-f4a3-4f10-845c-037e44070e79",
      "resource": {
        "resourceType": "Patient",
        "id": "87457001-f4a3-4f10-845c-037e44070e79",
        "meta": {
          "security": [
            {
              "system": "http://terminology.hl7.org/CodeSystem/v3-ActReason",
              "code": "HTEST"
            },
            {
              "system": "http://terminology.hl7.org/CodeSystem/v3-ActReason",
              "code": "TRAIN"
            }
          ],
          "tag": [
            {
              "system": "https://synderai.net/fhir/CodeSystem/tags",
              "code": "synthetic",
              "display": "SYNDERAI Synthetic data"
            }
          ],
          "profile": [
            "http://hl7.eu/fhir/base/StructureDefinition/patient-eu-core"
          ]
        },
        "identifier": [
          {
            "type": {
              "coding": [
                {
                  "code": "PT",
                  "system": "http://terminology.hl7.org/CodeSystem/v2-0203"
                }
              ]
            },
            "system": "http://ec.europa.eu/identifier/eci",
            "value": "1586-567257-8"
          },
          {
            "type": {
              "coding": [
                {
                  "code": "MR",
                  "system": "http://terminology.hl7.org/CodeSystem/v2-0203"
                }
              ]
            },
            "system": "http://local.setting.eu/identifier",
            "value": "443e6379-f231-b364-3ccb-644740a1aa2a"
          }
        ],
        "name": [
          {
            "family": "Neary"
          },
          {
            "given": [
              "Meaghan"
            ]
          },
          {
            "text": "Meaghan Neary"
          }
        ],
        "address": [
          {
            "line": [
              "64 Linskey Street"
            ],
            "use": "home",
            "type": "physical",
            "postalCode": "D02",
            "city": "Dublin",
            "country": "Ireland"
          }
        ],
        "telecom": [
          {
            "system": "phone",
            "value": "001-967-573-0911x465"
          }
        ],
        "extension": [
          {
            "url": "http://hl7.org/fhir/StructureDefinition/patient-nationality",
            "valueCodeableConcept": {
              "coding": [
                {
                  "code": "IE",
                  "system": "http://hl7.org/fhir/ValueSet/country"
                }
              ]
            }
          }
        ],
        "text": {
          "status": "generated",
          "div": "<div xmlns=\"http://www.w3.org/1999/xhtml\"><table class=\"hl7__ips\"><tr><td>Meaghan Neary</td><td>female</td><td>19-Dec-1960</td></tr></table></div>"
        },
        "gender": "female",
        "birthDate": "1960-12-19"
      }
    },
    {
      "fullUrl": "urn:uuid:29377be5-81cb-43e8-9eb3-38c506a2356c",
      "resource": {
        "resourceType": "ServiceRequest",
        "id": "29377be5-81cb-43e8-9eb3-38c506a2356c",
        "meta": {
          "profile": [
            "http://hl7.eu/fhir/laboratory/StructureDefinition/ServiceRequest-eu-lab"
          ]
        },
        "identifier": [
          {
            "system": "http://example.org",
            "value": "b661ba6e-3266-4672-af4a-5ae036ed2bfa"
          }
        ],
        "specimen": [
          {
            "reference": "urn:uuid:4667e7e9-2ee5-4fba-afb4-f1733b3fb4a0"
          },
          {
            "reference": "urn:uuid:28166aeb-cd0d-4c93-baa9-f1bdccff2eef"
          },
          {
            "reference": "urn:uuid:64f6440b-7b8c-4434-9562-b3b431889433"
          }
        ],
        "reasonCode": [
          {
            "coding": [
              {
                "code": "55822004",
                "system": "http://snomed.info/sct",
                "display": "Hyperlipidemia"
              }
            ]
          },
          {
            "coding": [
              {
                "code": "433144002",
                "system": "http://snomed.info/sct",
                "display": "Chronic kidney disease stage 3"
              }
            ]
          },
          {
            "coding": [
              {
                "code": "157141000119108",
                "system": "http://snomed.info/sct",
                "display": "Proteinuria due to type 2 diabetes mellitus"
              }
            ]
          },
          {
            "coding": [
              {
                "code": "431856006",
                "system": "http://snomed.info/sct",
                "display": "Chronic kidney disease stage 2"
              }
            ]
          },
          {
            "coding": [
              {
                "code": "90781000119102",
                "system": "http://snomed.info/sct",
                "display": "Microalbuminuria due to type 2 diabetes mellitus"
              }
            ]
          },
          {
            "coding": [
              {
                "code": "127013003",
                "system": "http://snomed.info/sct",
                "display": "Disorder of kidney due to diabetes mellitus"
              }
            ]
          },
          {
            "coding": [
              {
                "code": "431855005",
                "system": "http://snomed.info/sct",
                "display": "Chronic kidney disease stage 1"
              }
            ]
          },
          {
            "coding": [
              {
                "code": "237602007",
                "system": "http://snomed.info/sct",
                "display": "Metabolic syndrome X"
              }
            ]
          },
          {
            "coding": [
              {
                "code": "271737000",
                "system": "http://snomed.info/sct",
                "display": "Anemia"
              }
            ]
          },
          {
            "coding": [
              {
                "code": "15777000",
                "system": "http://snomed.info/sct",
                "display": "Prediabetes"
              }
            ]
          },
          {
            "coding": [
              {
                "code": "59621000",
                "system": "http://snomed.info/sct",
                "display": "Essential hypertension"
              }
            ]
          }
        ],
        "status": "active",
        "intent": "order",
        "code": {
          "coding": [
            {
              "code": "108252007",
              "system": "http://snomed.info/sct",
              "display": "Laboratory procedure"
            }
          ]
        },
        "subject": {
          "reference": "urn:uuid:87457001-f4a3-4f10-845c-037e44070e79",
          "display": "Meaghan Neary"
        },
        "requester": {
          "reference": "urn:uuid:192014b6-efbe-4e08-bc4e-3ecf816180f6"
        }
      }
    },
    {
      "fullUrl": "urn:uuid:192014b6-efbe-4e08-bc4e-3ecf816180f6",
      "resource": {
        "resourceType": "PractitionerRole",
        "id": "192014b6-efbe-4e08-bc4e-3ecf816180f6",
        "meta": {
          "profile": [
            "http://hl7.eu/fhir/base/StructureDefinition/practitionerRole-eu"
          ]
        },
        "text": {
          "status": "generated",
          "div": "<div xmlns=\"http://www.w3.org/1999/xhtml\">Provider Role Id: 192014b6-efbe-4e08-bc4e-3ecf816180f6</div>"
        },
        "organization": {
          "reference": "urn:uuid:04577907-ce40-40f7-a003-15c3026440d0"
        }
      }
    },
    {
      "fullUrl": "urn:uuid:04577907-ce40-40f7-a003-15c3026440d0",
      "resource": {
        "resourceType": "Organization",
        "id": "04577907-ce40-40f7-a003-15c3026440d0",
        "meta": {
          "profile": [
            "http://hl7.eu/fhir/base/StructureDefinition/organization-eu"
          ]
        },
        "identifier": [
          {
            "assigner": {
              "display": "HL7 Europe"
            },
            "system": "urn:oid:2.16.840.1.113883.2.51.999",
            "value": "74a3d94e-d08c-4111-a364-4c5633884c3e"
          }
        ],
        "address": [
          {
            "line": [
              "Parnell Square West nan"
            ],
            "city": "Dublin",
            "postalCode": "D01",
            "country": "Ireland"
          }
        ],
        "text": {
          "status": "generated",
          "div": "<div xmlns=\"http://www.w3.org/1999/xhtml\">Provider Organization: Rotunda Hospital</div>"
        },
        "name": "Rotunda Hospital"
      }
    },
    {
      "fullUrl": "urn:uuid:4667e7e9-2ee5-4fba-afb4-f1733b3fb4a0",
      "resource": {
        "resourceType": "Specimen",
        "id": "4667e7e9-2ee5-4fba-afb4-f1733b3fb4a0",
        "meta": {
          "profile": [
            "http://hl7.eu/fhir/laboratory/StructureDefinition/Specimen-eu-lab"
          ]
        },
        "collection": {
          "collectedDateTime": "2020-01-13"
        },
        "text": {
          "status": "generated",
          "div": "<div xmlns=\"http://www.w3.org/1999/xhtml\"><table class=\"hl7__eu__lab__report\"><tr><th>Specimen</th><th>Collection Date</th></tr><tr><td>Acellular blood (serum or plasma) specimen</td><td><span class=\"nb\">13-Jan-2020</span></td></tr></table></div>"
        },
        "type": {
          "coding": [
            {
              "code": "122592007",
              "system": "http://snomed.info/sct",
              "display": "Acellular blood (serum or plasma) specimen"
            }
          ]
        }
      }
    },
    {
      "fullUrl": "urn:uuid:28166aeb-cd0d-4c93-baa9-f1bdccff2eef",
      "resource": {
        "resourceType": "Specimen",
        "id": "28166aeb-cd0d-4c93-baa9-f1bdccff2eef",
        "meta": {
          "profile": [
            "http://hl7.eu/fhir/laboratory/StructureDefinition/Specimen-eu-lab"
          ]
        },
        "collection": {
          "collectedDateTime": "2020-01-13"
        },
        "text": {
          "status": "generated",
          "div": "<div xmlns=\"http://www.w3.org/1999/xhtml\"><table class=\"hl7__eu__lab__report\"><tr><th>Specimen</th><th>Collection Date</th></tr><tr><td>Urine specimen</td><td><span class=\"nb\">13-Jan-2020</span></td></tr></table></div>"
        },
        "type": {
          "coding": [
            {
              "code": "122575003",
              "system": "http://snomed.info/sct",
              "display": "Urine specimen"
            }
          ]
        }
      }
    },
    {
      "fullUrl": "urn:uuid:64f6440b-7b8c-4434-9562-b3b431889433",
      "resource": {
        "resourceType": "Specimen",
        "id": "64f6440b-7b8c-4434-9562-b3b431889433",
        "meta": {
          "profile": [
            "http://hl7.eu/fhir/laboratory/StructureDefinition/Specimen-eu-lab"
          ]
        },
        "collection": {
          "collectedDateTime": "2020-01-13"
        },
        "text": {
          "status": "generated",
          "div": "<div xmlns=\"http://www.w3.org/1999/xhtml\"><table class=\"hl7__eu__lab__report\"><tr><th>Specimen</th><th>Collection Date</th></tr><tr><td>Whole blood specimen (specimen)</td><td><span class=\"nb\">13-Jan-2020</span></td></tr></table></div>"
        },
        "type": {
          "coding": [
            {
              "code": "258580003",
              "system": "http://snomed.info/sct",
              "display": "Whole blood specimen (specimen)"
            }
          ]
        }
      }
    },
    {
      "fullUrl": "urn:uuid:a93fd132-b4cc-462b-958f-5fe0a4d42e54",
      "resource": {
        "resourceType": "Observation",
        "id": "a93fd132-b4cc-462b-958f-5fe0a4d42e54",
        "meta": {
          "profile": [
            "http://hl7.eu/fhir/laboratory/StructureDefinition/Observation-resultslab-eu-lab"
          ]
        },
        "performer": [
          {
            "display": "The Central European Lab"
          }
        ],
        "category": [
          {
            "coding": [
              {
                "system": "http://terminology.hl7.org/CodeSystem/observation-category",
                "code": "laboratory"
              }
            ]
          }
        ],
        "code": {
          "coding": [
            {
              "code": "2345-7",
              "system": "http://loinc.org",
              "display": "Glucose [Mass/volume] in Serum or Plasma"
            }
          ],
          "text": "Glucose [Mass/volume] in Serum or Plasma"
        },
        "valueQuantity": {
          "system": "http://unitsofmeasure.org",
          "value": 65.4,
          "unit": "mg/dL",
          "code": "mg/dL"
        },
        "referenceRange": [
          {
            "low": {
              "value": 70,
              "code": "mg/dL",
              "system": "http://unitsofmeasure.org"
            }
          },
          {
            "high": {
              "value": 99,
              "code": "mg/dL",
              "system": "http://unitsofmeasure.org"
            }
          }
        ],
        "interpretation": [
          {
            "coding": [
              {
                "code": "L",
                "system": "http://terminology.hl7.org/CodeSystem/v3-ObservationInterpretation",
                "display": "Low"
              }
            ]
          }
        ],
        "text": {
          "status": "generated",
          "div": "<div xmlns=\"http://www.w3.org/1999/xhtml\"><table class=\"hl7__eu__lab__report\"><tr><th>Test</th><th>13-Jan-2020</th><th>Reference&#xA0;Range</th><th>Unit</th></tr><tr><td>Glucose [Mass/volume] in Serum or Plasma</td><td>65.4</td><td>70 - 99</td><td>L</td><td>mg/dL</td></tr></table></div>"
        },
        "status": "final",
        "subject": {
          "reference": "urn:uuid:87457001-f4a3-4f10-845c-037e44070e79",
          "display": "Meaghan Neary"
        },
        "effectiveDateTime": "2020-01-13T22:11:04Z",
        "specimen": {
          "reference": "urn:uuid:4667e7e9-2ee5-4fba-afb4-f1733b3fb4a0"
        }
      }
    },
    {
      "fullUrl": "urn:uuid:a268b1da-875a-48a0-a850-d138d493b0c5",
      "resource": {
        "resourceType": "Observation",
        "id": "a268b1da-875a-48a0-a850-d138d493b0c5",
        "meta": {
          "profile": [
            "http://hl7.eu/fhir/laboratory/StructureDefinition/Observation-resultslab-eu-lab"
          ]
        },
        "performer": [
          {
            "display": "The Central European Lab"
          }
        ],
        "category": [
          {
            "coding": [
              {
                "system": "http://terminology.hl7.org/CodeSystem/observation-category",
                "code": "laboratory"
              }
            ]
          }
        ],
        "code": {
          "coding": [
            {
              "code": "3094-0",
              "system": "http://loinc.org",
              "display": "Urea nitrogen [Mass/volume] in Serum or Plasma"
            }
          ],
          "text": "Urea nitrogen [Mass/volume] in Serum or Plasma"
        },
        "valueQuantity": {
          "system": "http://unitsofmeasure.org",
          "value": 16,
          "unit": "mg/dL",
          "code": "mg/dL"
        },
        "referenceRange": [
          {
            "low": {
              "value": 7,
              "code": "mg/dL",
              "system": "http://unitsofmeasure.org"
            }
          },
          {
            "high": {
              "value": 50,
              "code": "mg/dL",
              "system": "http://unitsofmeasure.org"
            }
          }
        ],
        "text": {
          "status": "generated",
          "div": "<div xmlns=\"http://www.w3.org/1999/xhtml\"><table class=\"hl7__eu__lab__report\"><tr><th>Test</th><th>13-Jan-2020</th><th>Reference&#xA0;Range</th><th>Unit</th></tr><tr><td>Urea nitrogen [Mass/volume] in Serum or Plasma</td><td>16.0</td><td>7 - 50</td><td></td><td>mg/dL</td></tr></table></div>"
        },
        "status": "final",
        "subject": {
          "reference": "urn:uuid:87457001-f4a3-4f10-845c-037e44070e79",
          "display": "Meaghan Neary"
        },
        "effectiveDateTime": "2020-01-13T22:11:04Z",
        "specimen": {
          "reference": "urn:uuid:4667e7e9-2ee5-4fba-afb4-f1733b3fb4a0"
        }
      }
    },
    {
      "fullUrl": "urn:uuid:2cc1b83d-ab2a-478e-b89f-aefc31d6d838",
      "resource": {
        "resourceType": "Observation",
        "id": "2cc1b83d-ab2a-478e-b89f-aefc31d6d838",
        "meta": {
          "profile": [
            "http://hl7.eu/fhir/laboratory/StructureDefinition/Observation-resultslab-eu-lab"
          ]
        },
        "performer": [
          {
            "display": "The Central European Lab"
          }
        ],
        "category": [
          {
            "coding": [
              {
                "system": "http://terminology.hl7.org/CodeSystem/observation-category",
                "code": "laboratory"
              }
            ]
          }
        ],
        "code": {
          "coding": [
            {
              "code": "2160-0",
              "system": "http://loinc.org",
              "display": "Creatinine [Mass/volume] in Serum or Plasma"
            }
          ],
          "text": "Creatinine [Mass/volume] in Serum or Plasma"
        },
        "valueQuantity": {
          "system": "http://unitsofmeasure.org",
          "value": 2.1,
          "unit": "mg/dL",
          "code": "mg/dL"
        },
        "referenceRange": [
          {
            "low": {
              "value": 0.6,
              "code": "mg/dL",
              "system": "http://unitsofmeasure.org"
            }
          },
          {
            "high": {
              "value": 1.1,
              "code": "mg/dL",
              "system": "http://unitsofmeasure.org"
            }
          }
        ],
        "interpretation": [
          {
            "coding": [
              {
                "code": "H",
                "system": "http://terminology.hl7.org/CodeSystem/v3-ObservationInterpretation",
                "display": "High"
              }
            ]
          }
        ],
        "text": {
          "status": "generated",
          "div": "<div xmlns=\"http://www.w3.org/1999/xhtml\"><table class=\"hl7__eu__lab__report\"><tr><th>Test</th><th>13-Jan-2020</th><th>Reference&#xA0;Range</th><th>Unit</th></tr><tr><td>Creatinine [Mass/volume] in Serum or Plasma</td><td>2.1</td><td>0.6 - 1.1</td><td>H</td><td>mg/dL</td></tr></table></div>"
        },
        "status": "final",
        "subject": {
          "reference": "urn:uuid:87457001-f4a3-4f10-845c-037e44070e79",
          "display": "Meaghan Neary"
        },
        "effectiveDateTime": "2020-01-13T22:11:04Z",
        "specimen": {
          "reference": "urn:uuid:4667e7e9-2ee5-4fba-afb4-f1733b3fb4a0"
        }
      }
    },
    {
      "fullUrl": "urn:uuid:94c68f40-f3f5-4753-ba73-9822f8d9ee95",
      "resource": {
        "resourceType": "Observation",
        "id": "94c68f40-f3f5-4753-ba73-9822f8d9ee95",
        "meta": {
          "profile": [
            "http://hl7.eu/fhir/laboratory/StructureDefinition/Observation-resultslab-eu-lab"
          ]
        },
        "performer": [
          {
            "display": "The Central European Lab"
          }
        ],
        "category": [
          {
            "coding": [
              {
                "system": "http://terminology.hl7.org/CodeSystem/observation-category",
                "code": "laboratory"
              }
            ]
          }
        ],
        "code": {
          "coding": [
            {
              "code": "17861-6",
              "system": "http://loinc.org",
              "display": "Calcium [Mass/volume] in Serum or Plasma"
            }
          ],
          "text": "Calcium [Mass/volume] in Serum or Plasma"
        },
        "valueQuantity": {
          "system": "http://unitsofmeasure.org",
          "value": 9.3,
          "unit": "mg/dL",
          "code": "mg/dL"
        },
        "referenceRange": [
          {
            "low": {
              "value": 8.6,
              "code": "mg/dL",
              "system": "http://unitsofmeasure.org"
            }
          },
          {
            "high": {
              "value": 10.4,
              "code": "mg/dL",
              "system": "http://unitsofmeasure.org"
            }
          }
        ],
        "text": {
          "status": "generated",
          "div": "<div xmlns=\"http://www.w3.org/1999/xhtml\"><table class=\"hl7__eu__lab__report\"><tr><th>Test</th><th>13-Jan-2020</th><th>Reference&#xA0;Range</th><th>Unit</th></tr><tr><td>Calcium [Mass/volume] in Serum or Plasma</td><td>9.3</td><td>8.6 - 10.4</td><td></td><td>mg/dL</td></tr></table></div>"
        },
        "status": "final",
        "subject": {
          "reference": "urn:uuid:87457001-f4a3-4f10-845c-037e44070e79",
          "display": "Meaghan Neary"
        },
        "effectiveDateTime": "2020-01-13T22:11:04Z",
        "specimen": {
          "reference": "urn:uuid:4667e7e9-2ee5-4fba-afb4-f1733b3fb4a0"
        }
      }
    },
    {
      "fullUrl": "urn:uuid:ed111eb4-95de-42a7-87bb-82bcb7a97169",
      "resource": {
        "resourceType": "Observation",
        "id": "ed111eb4-95de-42a7-87bb-82bcb7a97169",
        "meta": {
          "profile": [
            "http://hl7.eu/fhir/laboratory/StructureDefinition/Observation-resultslab-eu-lab"
          ]
        },
        "performer": [
          {
            "display": "The Central European Lab"
          }
        ],
        "category": [
          {
            "coding": [
              {
                "system": "http://terminology.hl7.org/CodeSystem/observation-category",
                "code": "laboratory"
              }
            ]
          }
        ],
        "code": {
          "coding": [
            {
              "code": "2951-2",
              "system": "http://loinc.org",
              "display": "Sodium [Moles/volume] in Serum or Plasma"
            }
          ],
          "text": "Sodium [Moles/volume] in Serum or Plasma"
        },
        "valueQuantity": {
          "system": "http://unitsofmeasure.org",
          "value": 136.6,
          "unit": "mmol/L",
          "code": "mmol/L"
        },
        "referenceRange": [
          {
            "low": {
              "value": 135,
              "code": "mmol/L",
              "system": "http://unitsofmeasure.org"
            }
          },
          {
            "high": {
              "value": 145,
              "code": "mmol/L",
              "system": "http://unitsofmeasure.org"
            }
          }
        ],
        "text": {
          "status": "generated",
          "div": "<div xmlns=\"http://www.w3.org/1999/xhtml\"><table class=\"hl7__eu__lab__report\"><tr><th>Test</th><th>13-Jan-2020</th><th>Reference&#xA0;Range</th><th>Unit</th></tr><tr><td>Sodium [Moles/volume] in Serum or Plasma</td><td>136.6</td><td>135 - 145</td><td></td><td>mmol/L</td></tr></table></div>"
        },
        "status": "final",
        "subject": {
          "reference": "urn:uuid:87457001-f4a3-4f10-845c-037e44070e79",
          "display": "Meaghan Neary"
        },
        "effectiveDateTime": "2020-01-13T22:11:04Z",
        "specimen": {
          "reference": "urn:uuid:4667e7e9-2ee5-4fba-afb4-f1733b3fb4a0"
        }
      }
    },
    {
      "fullUrl": "urn:uuid:9d550903-931d-481f-b370-01be165ea34c",
      "resource": {
        "resourceType": "Observation",
        "id": "9d550903-931d-481f-b370-01be165ea34c",
        "meta": {
          "profile": [
            "http://hl7.eu/fhir/laboratory/StructureDefinition/Observation-resultslab-eu-lab"
          ]
        },
        "performer": [
          {
            "display": "The Central European Lab"
          }
        ],
        "category": [
          {
            "coding": [
              {
                "system": "http://terminology.hl7.org/CodeSystem/observation-category",
                "code": "laboratory"
              }
            ]
          }
        ],
        "code": {
          "coding": [
            {
              "code": "2823-3",
              "system": "http://loinc.org",
              "display": "Potassium [Moles/volume] in Serum or Plasma"
            }
          ],
          "text": "Potassium [Moles/volume] in Serum or Plasma"
        },
        "valueQuantity": {
          "system": "http://unitsofmeasure.org",
          "value": 4.8,
          "unit": "mmol/L",
          "code": "mmol/L"
        },
        "referenceRange": [
          {
            "low": {
              "value": 3.5,
              "code": "mmol/L",
              "system": "http://unitsofmeasure.org"
            }
          },
          {
            "high": {
              "value": 5.1,
              "code": "mmol/L",
              "system": "http://unitsofmeasure.org"
            }
          }
        ],
        "text": {
          "status": "generated",
          "div": "<div xmlns=\"http://www.w3.org/1999/xhtml\"><table class=\"hl7__eu__lab__report\"><tr><th>Test</th><th>13-Jan-2020</th><th>Reference&#xA0;Range</th><th>Unit</th></tr><tr><td>Potassium [Moles/volume] in Serum or Plasma</td><td>4.8</td><td>3.5 - 5.1</td><td></td><td>mmol/L</td></tr></table></div>"
        },
        "status": "final",
        "subject": {
          "reference": "urn:uuid:87457001-f4a3-4f10-845c-037e44070e79",
          "display": "Meaghan Neary"
        },
        "effectiveDateTime": "2020-01-13T22:11:04Z",
        "specimen": {
          "reference": "urn:uuid:4667e7e9-2ee5-4fba-afb4-f1733b3fb4a0"
        }
      }
    },
    {
      "fullUrl": "urn:uuid:827c1e4f-0379-4085-81b3-d51421b37d5e",
      "resource": {
        "resourceType": "Observation",
        "id": "827c1e4f-0379-4085-81b3-d51421b37d5e",
        "meta": {
          "profile": [
            "http://hl7.eu/fhir/laboratory/StructureDefinition/Observation-resultslab-eu-lab"
          ]
        },
        "performer": [
          {
            "display": "The Central European Lab"
          }
        ],
        "category": [
          {
            "coding": [
              {
                "system": "http://terminology.hl7.org/CodeSystem/observation-category",
                "code": "laboratory"
              }
            ]
          }
        ],
        "code": {
          "coding": [
            {
              "code": "2075-0",
              "system": "http://loinc.org",
              "display": "Chloride [Moles/volume] in Serum or Plasma"
            }
          ],
          "text": "Chloride [Moles/volume] in Serum or Plasma"
        },
        "valueQuantity": {
          "system": "http://unitsofmeasure.org",
          "value": 101.2,
          "unit": "mmol/L",
          "code": "mmol/L"
        },
        "referenceRange": [
          {
            "low": {
              "value": 98,
              "code": "mmol/L",
              "system": "http://unitsofmeasure.org"
            }
          },
          {
            "high": {
              "value": 108,
              "code": "mmol/L",
              "system": "http://unitsofmeasure.org"
            }
          }
        ],
        "text": {
          "status": "generated",
          "div": "<div xmlns=\"http://www.w3.org/1999/xhtml\"><table class=\"hl7__eu__lab__report\"><tr><th>Test</th><th>13-Jan-2020</th><th>Reference&#xA0;Range</th><th>Unit</th></tr><tr><td>Chloride [Moles/volume] in Serum or Plasma</td><td>101.2</td><td>98 - 108</td><td></td><td>mmol/L</td></tr></table></div>"
        },
        "status": "final",
        "subject": {
          "reference": "urn:uuid:87457001-f4a3-4f10-845c-037e44070e79",
          "display": "Meaghan Neary"
        },
        "effectiveDateTime": "2020-01-13T22:11:04Z",
        "specimen": {
          "reference": "urn:uuid:4667e7e9-2ee5-4fba-afb4-f1733b3fb4a0"
        }
      }
    },
    {
      "fullUrl": "urn:uuid:cd214b0d-05f3-4ae5-bf93-e1e015ac4876",
      "resource": {
        "resourceType": "Observation",
        "id": "cd214b0d-05f3-4ae5-bf93-e1e015ac4876",
        "meta": {
          "profile": [
            "http://hl7.eu/fhir/laboratory/StructureDefinition/Observation-resultslab-eu-lab"
          ]
        },
        "performer": [
          {
            "display": "The Central European Lab"
          }
        ],
        "category": [
          {
            "coding": [
              {
                "system": "http://terminology.hl7.org/CodeSystem/observation-category",
                "code": "laboratory"
              }
            ]
          }
        ],
        "code": {
          "coding": [
            {
              "code": "2028-9",
              "system": "http://loinc.org",
              "display": "Carbon dioxide, total [Moles/volume] in Serum or Plasma"
            }
          ],
          "text": "Carbon dioxide, total [Moles/volume] in Serum or Plasma"
        },
        "valueQuantity": {
          "system": "http://unitsofmeasure.org",
          "value": 23.8,
          "unit": "mmol/L",
          "code": "mmol/L"
        },
        "referenceRange": [
          {
            "low": {
              "value": 22,
              "code": "mmol/L",
              "system": "http://unitsofmeasure.org"
            }
          },
          {
            "high": {
              "value": 32,
              "code": "mmol/L",
              "system": "http://unitsofmeasure.org"
            }
          }
        ],
        "text": {
          "status": "generated",
          "div": "<div xmlns=\"http://www.w3.org/1999/xhtml\"><table class=\"hl7__eu__lab__report\"><tr><th>Test</th><th>13-Jan-2020</th><th>Reference&#xA0;Range</th><th>Unit</th></tr><tr><td>Carbon dioxide, total [Moles/volume] in Serum or Plasma</td><td>23.8</td><td>22 - 32</td><td></td><td>mmol/L</td></tr></table></div>"
        },
        "status": "final",
        "subject": {
          "reference": "urn:uuid:87457001-f4a3-4f10-845c-037e44070e79",
          "display": "Meaghan Neary"
        },
        "effectiveDateTime": "2020-01-13T22:11:04Z",
        "specimen": {
          "reference": "urn:uuid:4667e7e9-2ee5-4fba-afb4-f1733b3fb4a0"
        }
      }
    },
    {
      "fullUrl": "urn:uuid:4ab48c5f-874d-4c3f-964c-5f78dba029be",
      "resource": {
        "resourceType": "Observation",
        "id": "4ab48c5f-874d-4c3f-964c-5f78dba029be",
        "meta": {
          "profile": [
            "http://hl7.eu/fhir/laboratory/StructureDefinition/Observation-resultslab-eu-lab"
          ]
        },
        "performer": [
          {
            "display": "The Central European Lab"
          }
        ],
        "category": [
          {
            "coding": [
              {
                "system": "http://terminology.hl7.org/CodeSystem/observation-category",
                "code": "laboratory"
              }
            ]
          }
        ],
        "code": {
          "coding": [
            {
              "code": "5767-9",
              "system": "http://loinc.org",
              "display": "Appearance of Urine"
            }
          ],
          "text": "Appearance of Urine"
        },
        "text": {
          "status": "generated",
          "div": "<div xmlns=\"http://www.w3.org/1999/xhtml\"><table class=\"hl7__eu__lab__report\"><tr><th>Test</th><th>13-Jan-2020</th><th>Reference&#xA0;Range</th><th>Unit</th></tr><tr><td>Appearance of Urine</td></tr></table></div>"
        },
        "status": "final",
        "subject": {
          "reference": "urn:uuid:87457001-f4a3-4f10-845c-037e44070e79",
          "display": "Meaghan Neary"
        },
        "effectiveDateTime": "2020-01-13T22:11:04Z",
        "specimen": {
          "reference": "urn:uuid:28166aeb-cd0d-4c93-baa9-f1bdccff2eef"
        }
      }
    },
    {
      "fullUrl": "urn:uuid:c94f54f7-28e5-4f61-b629-892d0533aaf1",
      "resource": {
        "resourceType": "Observation",
        "id": "c94f54f7-28e5-4f61-b629-892d0533aaf1",
        "meta": {
          "profile": [
            "http://hl7.eu/fhir/laboratory/StructureDefinition/Observation-resultslab-eu-lab"
          ]
        },
        "performer": [
          {
            "display": "The Central European Lab"
          }
        ],
        "category": [
          {
            "coding": [
              {
                "system": "http://terminology.hl7.org/CodeSystem/observation-category",
                "code": "laboratory"
              }
            ]
          }
        ],
        "code": {
          "coding": [
            {
              "code": "34533-0",
              "system": "http://loinc.org",
              "display": "Odor of Urine"
            }
          ],
          "text": "Odor of Urine"
        },
        "text": {
          "status": "generated",
          "div": "<div xmlns=\"http://www.w3.org/1999/xhtml\"><table class=\"hl7__eu__lab__report\"><tr><th>Test</th><th>13-Jan-2020</th><th>Reference&#xA0;Range</th><th>Unit</th></tr><tr><td>Odor of Urine</td></tr></table></div>"
        },
        "status": "final",
        "subject": {
          "reference": "urn:uuid:87457001-f4a3-4f10-845c-037e44070e79",
          "display": "Meaghan Neary"
        },
        "effectiveDateTime": "2020-01-13T22:11:04Z",
        "specimen": {
          "reference": "urn:uuid:28166aeb-cd0d-4c93-baa9-f1bdccff2eef"
        }
      }
    },
    {
      "fullUrl": "urn:uuid:bbb1608b-a0ef-4c06-acfc-e30880859510",
      "resource": {
        "resourceType": "Observation",
        "id": "bbb1608b-a0ef-4c06-acfc-e30880859510",
        "meta": {
          "profile": [
            "http://hl7.eu/fhir/laboratory/StructureDefinition/Observation-resultslab-eu-lab"
          ]
        },
        "performer": [
          {
            "display": "The Central European Lab"
          }
        ],
        "category": [
          {
            "coding": [
              {
                "system": "http://terminology.hl7.org/CodeSystem/observation-category",
                "code": "laboratory"
              }
            ]
          }
        ],
        "code": {
          "coding": [
            {
              "code": "32167-9",
              "system": "http://loinc.org",
              "display": "Clarity of Urine"
            }
          ],
          "text": "Clarity of Urine"
        },
        "text": {
          "status": "generated",
          "div": "<div xmlns=\"http://www.w3.org/1999/xhtml\"><table class=\"hl7__eu__lab__report\"><tr><th>Test</th><th>13-Jan-2020</th><th>Reference&#xA0;Range</th><th>Unit</th></tr><tr><td>Clarity of Urine</td></tr></table></div>"
        },
        "status": "final",
        "subject": {
          "reference": "urn:uuid:87457001-f4a3-4f10-845c-037e44070e79",
          "display": "Meaghan Neary"
        },
        "effectiveDateTime": "2020-01-13T22:11:04Z",
        "specimen": {
          "reference": "urn:uuid:28166aeb-cd0d-4c93-baa9-f1bdccff2eef"
        }
      }
    },
    {
      "fullUrl": "urn:uuid:9d37d774-96fc-4f86-ba84-54e2a6d12f87",
      "resource": {
        "resourceType": "Observation",
        "id": "9d37d774-96fc-4f86-ba84-54e2a6d12f87",
        "meta": {
          "profile": [
            "http://hl7.eu/fhir/laboratory/StructureDefinition/Observation-resultslab-eu-lab"
          ]
        },
        "performer": [
          {
            "display": "The Central European Lab"
          }
        ],
        "category": [
          {
            "coding": [
              {
                "system": "http://terminology.hl7.org/CodeSystem/observation-category",
                "code": "laboratory"
              }
            ]
          }
        ],
        "code": {
          "coding": [
            {
              "code": "5778-6",
              "system": "http://loinc.org",
              "display": "Color of Urine"
            }
          ],
          "text": "Color of Urine"
        },
        "text": {
          "status": "generated",
          "div": "<div xmlns=\"http://www.w3.org/1999/xhtml\"><table class=\"hl7__eu__lab__report\"><tr><th>Test</th><th>13-Jan-2020</th><th>Reference&#xA0;Range</th><th>Unit</th></tr><tr><td>Color of Urine</td></tr></table></div>"
        },
        "status": "final",
        "subject": {
          "reference": "urn:uuid:87457001-f4a3-4f10-845c-037e44070e79",
          "display": "Meaghan Neary"
        },
        "effectiveDateTime": "2020-01-13T22:11:04Z",
        "specimen": {
          "reference": "urn:uuid:28166aeb-cd0d-4c93-baa9-f1bdccff2eef"
        }
      }
    },
    {
      "fullUrl": "urn:uuid:c21637a2-78eb-4c66-b436-78dc35e36f8f",
      "resource": {
        "resourceType": "Observation",
        "id": "c21637a2-78eb-4c66-b436-78dc35e36f8f",
        "meta": {
          "profile": [
            "http://hl7.eu/fhir/laboratory/StructureDefinition/Observation-resultslab-eu-lab"
          ]
        },
        "performer": [
          {
            "display": "The Central European Lab"
          }
        ],
        "category": [
          {
            "coding": [
              {
                "system": "http://terminology.hl7.org/CodeSystem/observation-category",
                "code": "laboratory"
              }
            ]
          }
        ],
        "code": {
          "coding": [
            {
              "code": "5792-7",
              "system": "http://loinc.org",
              "display": "Glucose [Mass/volume] in Urine by Test strip"
            }
          ],
          "text": "Glucose [Mass/volume] in Urine by Test strip"
        },
        "valueQuantity": {
          "system": "http://unitsofmeasure.org",
          "value": 1.9,
          "unit": "mg/dL",
          "code": "mg/dL"
        },
        "referenceRange": [
          {
            "low": {
              "value": 0.8,
              "code": "mg/dL",
              "system": "http://unitsofmeasure.org"
            }
          },
          {
            "high": {
              "value": 0,
              "code": "mg/dL",
              "system": "http://unitsofmeasure.org"
            }
          }
        ],
        "interpretation": [
          {
            "coding": [
              {
                "code": "H",
                "system": "http://terminology.hl7.org/CodeSystem/v3-ObservationInterpretation",
                "display": "High"
              }
            ]
          }
        ],
        "text": {
          "status": "generated",
          "div": "<div xmlns=\"http://www.w3.org/1999/xhtml\"><table class=\"hl7__eu__lab__report\"><tr><th>Test</th><th>13-Jan-2020</th><th>Reference&#xA0;Range</th><th>Unit</th></tr><tr><td>Glucose [Mass/volume] in Urine by Test strip</td><td>1.9</td><td>0.8 - 0</td><td>H</td><td>mg/dL</td></tr></table></div>"
        },
        "status": "final",
        "subject": {
          "reference": "urn:uuid:87457001-f4a3-4f10-845c-037e44070e79",
          "display": "Meaghan Neary"
        },
        "effectiveDateTime": "2020-01-13T22:11:04Z",
        "specimen": {
          "reference": "urn:uuid:28166aeb-cd0d-4c93-baa9-f1bdccff2eef"
        }
      }
    },
    {
      "fullUrl": "urn:uuid:60334414-9272-4aeb-b5a3-165f6b782178",
      "resource": {
        "resourceType": "Observation",
        "id": "60334414-9272-4aeb-b5a3-165f6b782178",
        "meta": {
          "profile": [
            "http://hl7.eu/fhir/laboratory/StructureDefinition/Observation-resultslab-eu-lab"
          ]
        },
        "performer": [
          {
            "display": "The Central European Lab"
          }
        ],
        "category": [
          {
            "coding": [
              {
                "system": "http://terminology.hl7.org/CodeSystem/observation-category",
                "code": "laboratory"
              }
            ]
          }
        ],
        "code": {
          "coding": [
            {
              "code": "25428-4",
              "system": "http://loinc.org",
              "display": "Glucose [Presence] in Urine by Test strip"
            }
          ],
          "text": "Glucose [Presence] in Urine by Test strip"
        },
        "text": {
          "status": "generated",
          "div": "<div xmlns=\"http://www.w3.org/1999/xhtml\"><table class=\"hl7__eu__lab__report\"><tr><th>Test</th><th>13-Jan-2020</th><th>Reference&#xA0;Range</th><th>Unit</th></tr><tr><td>Glucose [Presence] in Urine by Test strip</td></tr></table></div>"
        },
        "status": "final",
        "subject": {
          "reference": "urn:uuid:87457001-f4a3-4f10-845c-037e44070e79",
          "display": "Meaghan Neary"
        },
        "effectiveDateTime": "2020-01-13T22:11:04Z",
        "specimen": {
          "reference": "urn:uuid:28166aeb-cd0d-4c93-baa9-f1bdccff2eef"
        }
      }
    },
    {
      "fullUrl": "urn:uuid:d807e90a-25eb-4290-b0d2-46548bfc230b",
      "resource": {
        "resourceType": "Observation",
        "id": "d807e90a-25eb-4290-b0d2-46548bfc230b",
        "meta": {
          "profile": [
            "http://hl7.eu/fhir/laboratory/StructureDefinition/Observation-resultslab-eu-lab"
          ]
        },
        "performer": [
          {
            "display": "The Central European Lab"
          }
        ],
        "category": [
          {
            "coding": [
              {
                "system": "http://terminology.hl7.org/CodeSystem/observation-category",
                "code": "laboratory"
              }
            ]
          }
        ],
        "code": {
          "coding": [
            {
              "code": "20505-4",
              "system": "http://loinc.org",
              "display": "Bilirubin.total [Mass/volume] in Urine by Test strip"
            }
          ],
          "text": "Bilirubin.total [Mass/volume] in Urine by Test strip"
        },
        "valueQuantity": {
          "system": "http://unitsofmeasure.org",
          "value": 0.7,
          "unit": "mg/dL",
          "code": "mg/dL"
        },
        "referenceRange": [
          {
            "low": {
              "value": 0,
              "code": "mg/dL",
              "system": "http://unitsofmeasure.org"
            }
          },
          {
            "high": {
              "value": 1,
              "code": "mg/dL",
              "system": "http://unitsofmeasure.org"
            }
          }
        ],
        "text": {
          "status": "generated",
          "div": "<div xmlns=\"http://www.w3.org/1999/xhtml\"><table class=\"hl7__eu__lab__report\"><tr><th>Test</th><th>13-Jan-2020</th><th>Reference&#xA0;Range</th><th>Unit</th></tr><tr><td>Bilirubin.total [Mass/volume] in Urine by Test strip</td><td>0.7</td><td>0 - 1</td><td></td><td>mg/dL</td></tr></table></div>"
        },
        "status": "final",
        "subject": {
          "reference": "urn:uuid:87457001-f4a3-4f10-845c-037e44070e79",
          "display": "Meaghan Neary"
        },
        "effectiveDateTime": "2020-01-13T22:11:04Z",
        "specimen": {
          "reference": "urn:uuid:28166aeb-cd0d-4c93-baa9-f1bdccff2eef"
        }
      }
    },
    {
      "fullUrl": "urn:uuid:3b4aaedb-e08c-416b-b15c-5933001eab24",
      "resource": {
        "resourceType": "Observation",
        "id": "3b4aaedb-e08c-416b-b15c-5933001eab24",
        "meta": {
          "profile": [
            "http://hl7.eu/fhir/laboratory/StructureDefinition/Observation-resultslab-eu-lab"
          ]
        },
        "performer": [
          {
            "display": "The Central European Lab"
          }
        ],
        "category": [
          {
            "coding": [
              {
                "system": "http://terminology.hl7.org/CodeSystem/observation-category",
                "code": "laboratory"
              }
            ]
          }
        ],
        "code": {
          "coding": [
            {
              "code": "5770-3",
              "system": "http://loinc.org",
              "display": "Bilirubin.total [Presence] in Urine by Test strip"
            }
          ],
          "text": "Bilirubin.total [Presence] in Urine by Test strip"
        },
        "text": {
          "status": "generated",
          "div": "<div xmlns=\"http://www.w3.org/1999/xhtml\"><table class=\"hl7__eu__lab__report\"><tr><th>Test</th><th>13-Jan-2020</th><th>Reference&#xA0;Range</th><th>Unit</th></tr><tr><td>Bilirubin.total [Presence] in Urine by Test strip</td></tr></table></div>"
        },
        "status": "final",
        "subject": {
          "reference": "urn:uuid:87457001-f4a3-4f10-845c-037e44070e79",
          "display": "Meaghan Neary"
        },
        "effectiveDateTime": "2020-01-13T22:11:04Z",
        "specimen": {
          "reference": "urn:uuid:28166aeb-cd0d-4c93-baa9-f1bdccff2eef"
        }
      }
    },
    {
      "fullUrl": "urn:uuid:a42d95c9-5455-4d4b-8943-64811dcb1a20",
      "resource": {
        "resourceType": "Observation",
        "id": "a42d95c9-5455-4d4b-8943-64811dcb1a20",
        "meta": {
          "profile": [
            "http://hl7.eu/fhir/laboratory/StructureDefinition/Observation-resultslab-eu-lab"
          ]
        },
        "performer": [
          {
            "display": "The Central European Lab"
          }
        ],
        "category": [
          {
            "coding": [
              {
                "system": "http://terminology.hl7.org/CodeSystem/observation-category",
                "code": "laboratory"
              }
            ]
          }
        ],
        "code": {
          "coding": [
            {
              "code": "5797-6",
              "system": "http://loinc.org",
              "display": "Ketones [Mass/volume] in Urine by Test strip"
            }
          ],
          "text": "Ketones [Mass/volume] in Urine by Test strip"
        },
        "valueQuantity": {
          "system": "http://unitsofmeasure.org",
          "value": 5,
          "unit": "mg/dL",
          "code": "mg/dL"
        },
        "referenceRange": [
          {
            "low": {
              "value": 0,
              "code": "mg/dL",
              "system": "http://unitsofmeasure.org"
            }
          },
          {
            "high": {
              "value": 4,
              "code": "mg/dL",
              "system": "http://unitsofmeasure.org"
            }
          }
        ],
        "interpretation": [
          {
            "coding": [
              {
                "code": "H",
                "system": "http://terminology.hl7.org/CodeSystem/v3-ObservationInterpretation",
                "display": "High"
              }
            ]
          }
        ],
        "text": {
          "status": "generated",
          "div": "<div xmlns=\"http://www.w3.org/1999/xhtml\"><table class=\"hl7__eu__lab__report\"><tr><th>Test</th><th>13-Jan-2020</th><th>Reference&#xA0;Range</th><th>Unit</th></tr><tr><td>Ketones [Mass/volume] in Urine by Test strip</td><td>5.0</td><td>0 - 4</td><td>H</td><td>mg/dL</td></tr></table></div>"
        },
        "status": "final",
        "subject": {
          "reference": "urn:uuid:87457001-f4a3-4f10-845c-037e44070e79",
          "display": "Meaghan Neary"
        },
        "effectiveDateTime": "2020-01-13T22:11:04Z",
        "specimen": {
          "reference": "urn:uuid:28166aeb-cd0d-4c93-baa9-f1bdccff2eef"
        }
      }
    },
    {
      "fullUrl": "urn:uuid:21b2068a-d03f-4fc9-9b08-145260a23df4",
      "resource": {
        "resourceType": "Observation",
        "id": "21b2068a-d03f-4fc9-9b08-145260a23df4",
        "meta": {
          "profile": [
            "http://hl7.eu/fhir/laboratory/StructureDefinition/Observation-resultslab-eu-lab"
          ]
        },
        "performer": [
          {
            "display": "The Central European Lab"
          }
        ],
        "category": [
          {
            "coding": [
              {
                "system": "http://terminology.hl7.org/CodeSystem/observation-category",
                "code": "laboratory"
              }
            ]
          }
        ],
        "code": {
          "coding": [
            {
              "code": "2514-8",
              "system": "http://loinc.org",
              "display": "Ketones [Presence] in Urine by Test strip"
            }
          ],
          "text": "Ketones [Presence] in Urine by Test strip"
        },
        "text": {
          "status": "generated",
          "div": "<div xmlns=\"http://www.w3.org/1999/xhtml\"><table class=\"hl7__eu__lab__report\"><tr><th>Test</th><th>13-Jan-2020</th><th>Reference&#xA0;Range</th><th>Unit</th></tr><tr><td>Ketones [Presence] in Urine by Test strip</td></tr></table></div>"
        },
        "status": "final",
        "subject": {
          "reference": "urn:uuid:87457001-f4a3-4f10-845c-037e44070e79",
          "display": "Meaghan Neary"
        },
        "effectiveDateTime": "2020-01-13T22:11:04Z",
        "specimen": {
          "reference": "urn:uuid:28166aeb-cd0d-4c93-baa9-f1bdccff2eef"
        }
      }
    },
    {
      "fullUrl": "urn:uuid:0dd03c93-69d6-47e5-b0e4-6ab80ead665c",
      "resource": {
        "resourceType": "Observation",
        "id": "0dd03c93-69d6-47e5-b0e4-6ab80ead665c",
        "meta": {
          "profile": [
            "http://hl7.eu/fhir/laboratory/StructureDefinition/Observation-resultslab-eu-lab"
          ]
        },
        "performer": [
          {
            "display": "The Central European Lab"
          }
        ],
        "category": [
          {
            "coding": [
              {
                "system": "http://terminology.hl7.org/CodeSystem/observation-category",
                "code": "laboratory"
              }
            ]
          }
        ],
        "code": {
          "coding": [
            {
              "code": "5811-5",
              "system": "http://loinc.org",
              "display": "Specific gravity of Urine by Test strip"
            }
          ],
          "text": "Specific gravity of Urine by Test strip"
        },
        "valueQuantity": {
          "system": "http://unitsofmeasure.org",
          "value": 1,
          "unit": "{nominal}",
          "code": "{nominal}"
        },
        "referenceRange": [
          {
            "low": {
              "value": 1.005,
              "code": "g/mL",
              "system": "http://unitsofmeasure.org"
            }
          },
          {
            "high": {
              "value": 1.03,
              "code": "g/mL",
              "system": "http://unitsofmeasure.org"
            }
          }
        ],
        "interpretation": [
          {
            "coding": [
              {
                "code": "L",
                "system": "http://terminology.hl7.org/CodeSystem/v3-ObservationInterpretation",
                "display": "Low"
              }
            ]
          }
        ],
        "text": {
          "status": "generated",
          "div": "<div xmlns=\"http://www.w3.org/1999/xhtml\"><table class=\"hl7__eu__lab__report\"><tr><th>Test</th><th>13-Jan-2020</th><th>Reference&#xA0;Range</th><th>Unit</th></tr><tr><td>Specific gravity of Urine by Test strip</td><td>1.0</td><td>1.005 - 1.03</td><td>L</td><td>{nominal}</td></tr></table></div>"
        },
        "status": "final",
        "subject": {
          "reference": "urn:uuid:87457001-f4a3-4f10-845c-037e44070e79",
          "display": "Meaghan Neary"
        },
        "effectiveDateTime": "2020-01-13T22:11:04Z",
        "specimen": {
          "reference": "urn:uuid:28166aeb-cd0d-4c93-baa9-f1bdccff2eef"
        }
      }
    },
    {
      "fullUrl": "urn:uuid:42fa544b-48d5-4570-940e-5d0b680ebe7f",
      "resource": {
        "resourceType": "Observation",
        "id": "42fa544b-48d5-4570-940e-5d0b680ebe7f",
        "meta": {
          "profile": [
            "http://hl7.eu/fhir/laboratory/StructureDefinition/Observation-resultslab-eu-lab"
          ]
        },
        "performer": [
          {
            "display": "The Central European Lab"
          }
        ],
        "category": [
          {
            "coding": [
              {
                "system": "http://terminology.hl7.org/CodeSystem/observation-category",
                "code": "laboratory"
              }
            ]
          }
        ],
        "code": {
          "coding": [
            {
              "code": "5803-2",
              "system": "http://loinc.org",
              "display": "pH of Urine by Test strip"
            }
          ],
          "text": "pH of Urine by Test strip"
        },
        "valueQuantity": {
          "system": "http://unitsofmeasure.org",
          "value": 6.3,
          "unit": "pH",
          "code": "pH"
        },
        "referenceRange": [
          {
            "low": {
              "value": 4.6,
              "code": "pH",
              "system": "http://unitsofmeasure.org"
            }
          },
          {
            "high": {
              "value": 7,
              "code": "pH",
              "system": "http://unitsofmeasure.org"
            }
          }
        ],
        "text": {
          "status": "generated",
          "div": "<div xmlns=\"http://www.w3.org/1999/xhtml\"><table class=\"hl7__eu__lab__report\"><tr><th>Test</th><th>13-Jan-2020</th><th>Reference&#xA0;Range</th><th>Unit</th></tr><tr><td>pH of Urine by Test strip</td><td>6.3</td><td>4.6 - 7</td><td></td><td>pH</td></tr></table></div>"
        },
        "status": "final",
        "subject": {
          "reference": "urn:uuid:87457001-f4a3-4f10-845c-037e44070e79",
          "display": "Meaghan Neary"
        },
        "effectiveDateTime": "2020-01-13T22:11:04Z",
        "specimen": {
          "reference": "urn:uuid:28166aeb-cd0d-4c93-baa9-f1bdccff2eef"
        }
      }
    },
    {
      "fullUrl": "urn:uuid:c7705a4d-9689-4dcc-8656-5986ba829421",
      "resource": {
        "resourceType": "Observation",
        "id": "c7705a4d-9689-4dcc-8656-5986ba829421",
        "meta": {
          "profile": [
            "http://hl7.eu/fhir/laboratory/StructureDefinition/Observation-resultslab-eu-lab"
          ]
        },
        "performer": [
          {
            "display": "The Central European Lab"
          }
        ],
        "category": [
          {
            "coding": [
              {
                "system": "http://terminology.hl7.org/CodeSystem/observation-category",
                "code": "laboratory"
              }
            ]
          }
        ],
        "code": {
          "coding": [
            {
              "code": "5804-0",
              "system": "http://loinc.org",
              "display": "Protein [Mass/volume] in Urine by Test strip"
            }
          ],
          "text": "Protein [Mass/volume] in Urine by Test strip"
        },
        "valueQuantity": {
          "system": "http://unitsofmeasure.org",
          "value": 390.5,
          "unit": "mg/dL",
          "code": "mg/dL"
        },
        "referenceRange": [
          {
            "low": {
              "value": 0,
              "code": "mg/dL",
              "system": "http://unitsofmeasure.org"
            }
          },
          {
            "high": {
              "value": 14,
              "code": "mg/dL",
              "system": "http://unitsofmeasure.org"
            }
          }
        ],
        "interpretation": [
          {
            "coding": [
              {
                "code": "H",
                "system": "http://terminology.hl7.org/CodeSystem/v3-ObservationInterpretation",
                "display": "High"
              }
            ]
          }
        ],
        "text": {
          "status": "generated",
          "div": "<div xmlns=\"http://www.w3.org/1999/xhtml\"><table class=\"hl7__eu__lab__report\"><tr><th>Test</th><th>13-Jan-2020</th><th>Reference&#xA0;Range</th><th>Unit</th></tr><tr><td>Protein [Mass/volume] in Urine by Test strip</td><td>390.5</td><td>0 - 14</td><td>H</td><td>mg/dL</td></tr></table></div>"
        },
        "status": "final",
        "subject": {
          "reference": "urn:uuid:87457001-f4a3-4f10-845c-037e44070e79",
          "display": "Meaghan Neary"
        },
        "effectiveDateTime": "2020-01-13T22:11:04Z",
        "specimen": {
          "reference": "urn:uuid:28166aeb-cd0d-4c93-baa9-f1bdccff2eef"
        }
      }
    },
    {
      "fullUrl": "urn:uuid:375785ef-89f0-4e97-8c52-384698026e54",
      "resource": {
        "resourceType": "Observation",
        "id": "375785ef-89f0-4e97-8c52-384698026e54",
        "meta": {
          "profile": [
            "http://hl7.eu/fhir/laboratory/StructureDefinition/Observation-resultslab-eu-lab"
          ]
        },
        "performer": [
          {
            "display": "The Central European Lab"
          }
        ],
        "category": [
          {
            "coding": [
              {
                "system": "http://terminology.hl7.org/CodeSystem/observation-category",
                "code": "laboratory"
              }
            ]
          }
        ],
        "code": {
          "coding": [
            {
              "code": "20454-5",
              "system": "http://loinc.org",
              "display": "Protein [Presence] in Urine by Test strip"
            }
          ],
          "text": "Protein [Presence] in Urine by Test strip"
        },
        "text": {
          "status": "generated",
          "div": "<div xmlns=\"http://www.w3.org/1999/xhtml\"><table class=\"hl7__eu__lab__report\"><tr><th>Test</th><th>13-Jan-2020</th><th>Reference&#xA0;Range</th><th>Unit</th></tr><tr><td>Protein [Presence] in Urine by Test strip</td></tr></table></div>"
        },
        "status": "final",
        "subject": {
          "reference": "urn:uuid:87457001-f4a3-4f10-845c-037e44070e79",
          "display": "Meaghan Neary"
        },
        "effectiveDateTime": "2020-01-13T22:11:04Z",
        "specimen": {
          "reference": "urn:uuid:28166aeb-cd0d-4c93-baa9-f1bdccff2eef"
        }
      }
    },
    {
      "fullUrl": "urn:uuid:f47b0dbd-cc8c-4e95-ade0-794d3e301e20",
      "resource": {
        "resourceType": "Observation",
        "id": "f47b0dbd-cc8c-4e95-ade0-794d3e301e20",
        "meta": {
          "profile": [
            "http://hl7.eu/fhir/laboratory/StructureDefinition/Observation-resultslab-eu-lab"
          ]
        },
        "performer": [
          {
            "display": "The Central European Lab"
          }
        ],
        "category": [
          {
            "coding": [
              {
                "system": "http://terminology.hl7.org/CodeSystem/observation-category",
                "code": "laboratory"
              }
            ]
          }
        ],
        "code": {
          "coding": [
            {
              "code": "5802-4",
              "system": "http://loinc.org",
              "display": "Nitrite [Presence] in Urine by Test strip"
            }
          ],
          "text": "Nitrite [Presence] in Urine by Test strip"
        },
        "text": {
          "status": "generated",
          "div": "<div xmlns=\"http://www.w3.org/1999/xhtml\"><table class=\"hl7__eu__lab__report\"><tr><th>Test</th><th>13-Jan-2020</th><th>Reference&#xA0;Range</th><th>Unit</th></tr><tr><td>Nitrite [Presence] in Urine by Test strip</td></tr></table></div>"
        },
        "status": "final",
        "subject": {
          "reference": "urn:uuid:87457001-f4a3-4f10-845c-037e44070e79",
          "display": "Meaghan Neary"
        },
        "effectiveDateTime": "2020-01-13T22:11:04Z",
        "specimen": {
          "reference": "urn:uuid:28166aeb-cd0d-4c93-baa9-f1bdccff2eef"
        }
      }
    },
    {
      "fullUrl": "urn:uuid:afe2647a-0677-4c1f-86fb-68286fc0472b",
      "resource": {
        "resourceType": "Observation",
        "id": "afe2647a-0677-4c1f-86fb-68286fc0472b",
        "meta": {
          "profile": [
            "http://hl7.eu/fhir/laboratory/StructureDefinition/Observation-resultslab-eu-lab"
          ]
        },
        "performer": [
          {
            "display": "The Central European Lab"
          }
        ],
        "category": [
          {
            "coding": [
              {
                "system": "http://terminology.hl7.org/CodeSystem/observation-category",
                "code": "laboratory"
              }
            ]
          }
        ],
        "code": {
          "coding": [
            {
              "code": "5794-3",
              "system": "http://loinc.org",
              "display": "Hemoglobin [Presence] in Urine by Test strip"
            }
          ],
          "text": "Hemoglobin [Presence] in Urine by Test strip"
        },
        "text": {
          "status": "generated",
          "div": "<div xmlns=\"http://www.w3.org/1999/xhtml\"><table class=\"hl7__eu__lab__report\"><tr><th>Test</th><th>13-Jan-2020</th><th>Reference&#xA0;Range</th><th>Unit</th></tr><tr><td>Hemoglobin [Presence] in Urine by Test strip</td></tr></table></div>"
        },
        "status": "final",
        "subject": {
          "reference": "urn:uuid:87457001-f4a3-4f10-845c-037e44070e79",
          "display": "Meaghan Neary"
        },
        "effectiveDateTime": "2020-01-13T22:11:04Z",
        "specimen": {
          "reference": "urn:uuid:28166aeb-cd0d-4c93-baa9-f1bdccff2eef"
        }
      }
    },
    {
      "fullUrl": "urn:uuid:e0da7ec8-46c8-4db1-94f3-09f703dc86ff",
      "resource": {
        "resourceType": "Observation",
        "id": "e0da7ec8-46c8-4db1-94f3-09f703dc86ff",
        "meta": {
          "profile": [
            "http://hl7.eu/fhir/laboratory/StructureDefinition/Observation-resultslab-eu-lab"
          ]
        },
        "performer": [
          {
            "display": "The Central European Lab"
          }
        ],
        "category": [
          {
            "coding": [
              {
                "system": "http://terminology.hl7.org/CodeSystem/observation-category",
                "code": "laboratory"
              }
            ]
          }
        ],
        "code": {
          "coding": [
            {
              "code": "5799-2",
              "system": "http://loinc.org",
              "display": "Leukocyte esterase [Presence] in Urine by Test strip"
            }
          ],
          "text": "Leukocyte esterase [Presence] in Urine by Test strip"
        },
        "text": {
          "status": "generated",
          "div": "<div xmlns=\"http://www.w3.org/1999/xhtml\"><table class=\"hl7__eu__lab__report\"><tr><th>Test</th><th>13-Jan-2020</th><th>Reference&#xA0;Range</th><th>Unit</th></tr><tr><td>Leukocyte esterase [Presence] in Urine by Test strip</td></tr></table></div>"
        },
        "status": "final",
        "subject": {
          "reference": "urn:uuid:87457001-f4a3-4f10-845c-037e44070e79",
          "display": "Meaghan Neary"
        },
        "effectiveDateTime": "2020-01-13T22:11:04Z",
        "specimen": {
          "reference": "urn:uuid:28166aeb-cd0d-4c93-baa9-f1bdccff2eef"
        }
      }
    },
    {
      "fullUrl": "urn:uuid:b58ad2c6-fe3e-420b-bef2-45ad1fbea114",
      "resource": {
        "resourceType": "Observation",
        "id": "b58ad2c6-fe3e-420b-bef2-45ad1fbea114",
        "meta": {
          "profile": [
            "http://hl7.eu/fhir/laboratory/StructureDefinition/Observation-resultslab-eu-lab"
          ]
        },
        "performer": [
          {
            "display": "The Central European Lab"
          }
        ],
        "category": [
          {
            "coding": [
              {
                "system": "http://terminology.hl7.org/CodeSystem/observation-category",
                "code": "laboratory"
              }
            ]
          }
        ],
        "code": {
          "coding": [
            {
              "code": "4548-4",
              "system": "http://loinc.org",
              "display": "Hemoglobin A1c/Hemoglobin.total in Blood"
            }
          ],
          "text": "Hemoglobin A1c/Hemoglobin.total in Blood"
        },
        "valueQuantity": {
          "system": "http://unitsofmeasure.org",
          "value": 2.9,
          "unit": "%",
          "code": "%"
        },
        "referenceRange": [
          {
            "low": {
              "value": 4,
              "code": "%",
              "system": "http://unitsofmeasure.org"
            }
          },
          {
            "high": {
              "value": 6.4,
              "code": "%",
              "system": "http://unitsofmeasure.org"
            }
          }
        ],
        "interpretation": [
          {
            "coding": [
              {
                "code": "L",
                "system": "http://terminology.hl7.org/CodeSystem/v3-ObservationInterpretation",
                "display": "Low"
              }
            ]
          }
        ],
        "text": {
          "status": "generated",
          "div": "<div xmlns=\"http://www.w3.org/1999/xhtml\"><table class=\"hl7__eu__lab__report\"><tr><th>Test</th><th>13-Jan-2020</th><th>Reference&#xA0;Range</th><th>Unit</th></tr><tr><td>Hemoglobin A1c/Hemoglobin.total in Blood</td><td>2.9</td><td>4 - 6.4</td><td>L</td><td>%</td></tr></table></div>"
        },
        "status": "final",
        "subject": {
          "reference": "urn:uuid:87457001-f4a3-4f10-845c-037e44070e79",
          "display": "Meaghan Neary"
        },
        "effectiveDateTime": "2020-01-13T22:11:04Z",
        "specimen": {
          "reference": "urn:uuid:64f6440b-7b8c-4434-9562-b3b431889433"
        }
      }
    },
    {
      "fullUrl": "urn:uuid:d002b567-42a3-4665-85d8-96890f3f589e",
      "resource": {
        "resourceType": "Observation",
        "id": "d002b567-42a3-4665-85d8-96890f3f589e",
        "meta": {
          "profile": [
            "http://hl7.eu/fhir/laboratory/StructureDefinition/Observation-resultslab-eu-lab"
          ]
        },
        "performer": [
          {
            "display": "The Central European Lab"
          }
        ],
        "category": [
          {
            "coding": [
              {
                "system": "http://terminology.hl7.org/CodeSystem/observation-category",
                "code": "laboratory"
              }
            ]
          }
        ],
        "code": {
          "coding": [
            {
              "code": "2339-0",
              "system": "http://loinc.org",
              "display": "Glucose [Mass/volume] in Blood"
            }
          ],
          "text": "Glucose [Mass/volume] in Blood"
        },
        "valueQuantity": {
          "system": "http://unitsofmeasure.org",
          "value": 65.4,
          "unit": "mg/dL",
          "code": "mg/dL"
        },
        "referenceRange": [
          {
            "low": {
              "value": 70,
              "code": "mg/dL",
              "system": "http://unitsofmeasure.org"
            }
          },
          {
            "high": {
              "value": 100,
              "code": "mg/dL",
              "system": "http://unitsofmeasure.org"
            }
          }
        ],
        "interpretation": [
          {
            "coding": [
              {
                "code": "L",
                "system": "http://terminology.hl7.org/CodeSystem/v3-ObservationInterpretation",
                "display": "Low"
              }
            ]
          }
        ],
        "text": {
          "status": "generated",
          "div": "<div xmlns=\"http://www.w3.org/1999/xhtml\"><table class=\"hl7__eu__lab__report\"><tr><th>Test</th><th>13-Jan-2020</th><th>Reference&#xA0;Range</th><th>Unit</th></tr><tr><td>Glucose [Mass/volume] in Blood</td><td>65.4</td><td>70 - 100</td><td>L</td><td>mg/dL</td></tr></table></div>"
        },
        "status": "final",
        "subject": {
          "reference": "urn:uuid:87457001-f4a3-4f10-845c-037e44070e79",
          "display": "Meaghan Neary"
        },
        "effectiveDateTime": "2020-01-13T22:11:04Z",
        "specimen": {
          "reference": "urn:uuid:64f6440b-7b8c-4434-9562-b3b431889433"
        }
      }
    },
    {
      "fullUrl": "urn:uuid:171b5937-5ac9-4920-b29a-5b7e490d9413",
      "resource": {
        "resourceType": "Observation",
        "id": "171b5937-5ac9-4920-b29a-5b7e490d9413",
        "meta": {
          "profile": [
            "http://hl7.eu/fhir/laboratory/StructureDefinition/Observation-resultslab-eu-lab"
          ]
        },
        "performer": [
          {
            "display": "The Central European Lab"
          }
        ],
        "category": [
          {
            "coding": [
              {
                "system": "http://terminology.hl7.org/CodeSystem/observation-category",
                "code": "laboratory"
              }
            ]
          }
        ],
        "code": {
          "coding": [
            {
              "code": "6299-2",
              "system": "http://loinc.org",
              "display": "Urea nitrogen [Mass/volume] in Blood"
            }
          ],
          "text": "Urea nitrogen [Mass/volume] in Blood"
        },
        "valueQuantity": {
          "system": "http://unitsofmeasure.org",
          "value": 16,
          "unit": "mg/dL",
          "code": "mg/dL"
        },
        "referenceRange": [
          {
            "low": {
              "value": 7,
              "code": "mg/dL",
              "system": "http://unitsofmeasure.org"
            }
          },
          {
            "high": {
              "value": 43,
              "code": "mg/dL",
              "system": "http://unitsofmeasure.org"
            }
          }
        ],
        "text": {
          "status": "generated",
          "div": "<div xmlns=\"http://www.w3.org/1999/xhtml\"><table class=\"hl7__eu__lab__report\"><tr><th>Test</th><th>13-Jan-2020</th><th>Reference&#xA0;Range</th><th>Unit</th></tr><tr><td>Urea nitrogen [Mass/volume] in Blood</td><td>16.0</td><td>7 - 43</td><td></td><td>mg/dL</td></tr></table></div>"
        },
        "status": "final",
        "subject": {
          "reference": "urn:uuid:87457001-f4a3-4f10-845c-037e44070e79",
          "display": "Meaghan Neary"
        },
        "effectiveDateTime": "2020-01-13T22:11:04Z",
        "specimen": {
          "reference": "urn:uuid:64f6440b-7b8c-4434-9562-b3b431889433"
        }
      }
    },
    {
      "fullUrl": "urn:uuid:a7027e18-d18b-4264-ae27-eae1d9566b6f",
      "resource": {
        "resourceType": "Observation",
        "id": "a7027e18-d18b-4264-ae27-eae1d9566b6f",
        "meta": {
          "profile": [
            "http://hl7.eu/fhir/laboratory/StructureDefinition/Observation-resultslab-eu-lab"
          ]
        },
        "performer": [
          {
            "display": "The Central European Lab"
          }
        ],
        "category": [
          {
            "coding": [
              {
                "system": "http://terminology.hl7.org/CodeSystem/observation-category",
                "code": "laboratory"
              }
            ]
          }
        ],
        "code": {
          "coding": [
            {
              "code": "38483-4",
              "system": "http://loinc.org",
              "display": "Creatinine [Mass/volume] in Blood"
            }
          ],
          "text": "Creatinine [Mass/volume] in Blood"
        },
        "valueQuantity": {
          "system": "http://unitsofmeasure.org",
          "value": 3.7,
          "unit": "mg/dL",
          "code": "mg/dL"
        },
        "referenceRange": [
          {
            "low": {
              "value": 0.6,
              "code": "mg/dL",
              "system": "http://unitsofmeasure.org"
            }
          },
          {
            "high": {
              "value": 1.1,
              "code": "mg/dL",
              "system": "http://unitsofmeasure.org"
            }
          }
        ],
        "interpretation": [
          {
            "coding": [
              {
                "code": "H",
                "system": "http://terminology.hl7.org/CodeSystem/v3-ObservationInterpretation",
                "display": "High"
              }
            ]
          }
        ],
        "text": {
          "status": "generated",
          "div": "<div xmlns=\"http://www.w3.org/1999/xhtml\"><table class=\"hl7__eu__lab__report\"><tr><th>Test</th><th>13-Jan-2020</th><th>Reference&#xA0;Range</th><th>Unit</th></tr><tr><td>Creatinine [Mass/volume] in Blood</td><td>3.7</td><td>0.6 - 1.1</td><td>H</td><td>mg/dL</td></tr></table></div>"
        },
        "status": "final",
        "subject": {
          "reference": "urn:uuid:87457001-f4a3-4f10-845c-037e44070e79",
          "display": "Meaghan Neary"
        },
        "effectiveDateTime": "2020-01-13T22:11:04Z",
        "specimen": {
          "reference": "urn:uuid:64f6440b-7b8c-4434-9562-b3b431889433"
        }
      }
    },
    {
      "fullUrl": "urn:uuid:d875eeaf-fd0c-4323-971d-6d9f0fe541ff",
      "resource": {
        "resourceType": "Observation",
        "id": "d875eeaf-fd0c-4323-971d-6d9f0fe541ff",
        "meta": {
          "profile": [
            "http://hl7.eu/fhir/laboratory/StructureDefinition/Observation-resultslab-eu-lab"
          ]
        },
        "performer": [
          {
            "display": "The Central European Lab"
          }
        ],
        "category": [
          {
            "coding": [
              {
                "system": "http://terminology.hl7.org/CodeSystem/observation-category",
                "code": "laboratory"
              }
            ]
          }
        ],
        "code": {
          "coding": [
            {
              "code": "49765-1",
              "system": "http://loinc.org",
              "display": "Calcium [Mass/volume] in Blood"
            }
          ],
          "text": "Calcium [Mass/volume] in Blood"
        },
        "valueQuantity": {
          "system": "http://unitsofmeasure.org",
          "value": 9.3,
          "unit": "mg/dL",
          "code": "mg/dL"
        },
        "referenceRange": [
          {
            "low": {
              "value": 8.5,
              "code": "mg/dL",
              "system": "http://unitsofmeasure.org"
            }
          },
          {
            "high": {
              "value": 10.5,
              "code": "mg/dL",
              "system": "http://unitsofmeasure.org"
            }
          }
        ],
        "text": {
          "status": "generated",
          "div": "<div xmlns=\"http://www.w3.org/1999/xhtml\"><table class=\"hl7__eu__lab__report\"><tr><th>Test</th><th>13-Jan-2020</th><th>Reference&#xA0;Range</th><th>Unit</th></tr><tr><td>Calcium [Mass/volume] in Blood</td><td>9.3</td><td>8.5 - 10.5</td><td></td><td>mg/dL</td></tr></table></div>"
        },
        "status": "final",
        "subject": {
          "reference": "urn:uuid:87457001-f4a3-4f10-845c-037e44070e79",
          "display": "Meaghan Neary"
        },
        "effectiveDateTime": "2020-01-13T22:11:04Z",
        "specimen": {
          "reference": "urn:uuid:64f6440b-7b8c-4434-9562-b3b431889433"
        }
      }
    },
    {
      "fullUrl": "urn:uuid:a44b90d5-cb5d-47e0-b61e-07be30c3c9c5",
      "resource": {
        "resourceType": "Observation",
        "id": "a44b90d5-cb5d-47e0-b61e-07be30c3c9c5",
        "meta": {
          "profile": [
            "http://hl7.eu/fhir/laboratory/StructureDefinition/Observation-resultslab-eu-lab"
          ]
        },
        "performer": [
          {
            "display": "The Central European Lab"
          }
        ],
        "category": [
          {
            "coding": [
              {
                "system": "http://terminology.hl7.org/CodeSystem/observation-category",
                "code": "laboratory"
              }
            ]
          }
        ],
        "code": {
          "coding": [
            {
              "code": "2947-0",
              "system": "http://loinc.org",
              "display": "Sodium [Moles/volume] in Blood"
            }
          ],
          "text": "Sodium [Moles/volume] in Blood"
        },
        "valueQuantity": {
          "system": "http://unitsofmeasure.org",
          "value": 136.6,
          "unit": "mmol/L",
          "code": "mmol/L"
        },
        "referenceRange": [
          {
            "low": {
              "value": 135,
              "code": "mmol/L",
              "system": "http://unitsofmeasure.org"
            }
          },
          {
            "high": {
              "value": 145,
              "code": "mmol/L",
              "system": "http://unitsofmeasure.org"
            }
          }
        ],
        "text": {
          "status": "generated",
          "div": "<div xmlns=\"http://www.w3.org/1999/xhtml\"><table class=\"hl7__eu__lab__report\"><tr><th>Test</th><th>13-Jan-2020</th><th>Reference&#xA0;Range</th><th>Unit</th></tr><tr><td>Sodium [Moles/volume] in Blood</td><td>136.6</td><td>135 - 145</td><td></td><td>mmol/L</td></tr></table></div>"
        },
        "status": "final",
        "subject": {
          "reference": "urn:uuid:87457001-f4a3-4f10-845c-037e44070e79",
          "display": "Meaghan Neary"
        },
        "effectiveDateTime": "2020-01-13T22:11:04Z",
        "specimen": {
          "reference": "urn:uuid:64f6440b-7b8c-4434-9562-b3b431889433"
        }
      }
    },
    {
      "fullUrl": "urn:uuid:2969eead-1ca0-45c6-8475-c75ffb100a89",
      "resource": {
        "resourceType": "Observation",
        "id": "2969eead-1ca0-45c6-8475-c75ffb100a89",
        "meta": {
          "profile": [
            "http://hl7.eu/fhir/laboratory/StructureDefinition/Observation-resultslab-eu-lab"
          ]
        },
        "performer": [
          {
            "display": "The Central European Lab"
          }
        ],
        "category": [
          {
            "coding": [
              {
                "system": "http://terminology.hl7.org/CodeSystem/observation-category",
                "code": "laboratory"
              }
            ]
          }
        ],
        "code": {
          "coding": [
            {
              "code": "6298-4",
              "system": "http://loinc.org",
              "display": "Potassium [Moles/volume] in Blood"
            }
          ],
          "text": "Potassium [Moles/volume] in Blood"
        },
        "valueQuantity": {
          "system": "http://unitsofmeasure.org",
          "value": 4.8,
          "unit": "mmol/L",
          "code": "mmol/L"
        },
        "referenceRange": [
          {
            "low": {
              "value": 3.5,
              "code": "mmol/L",
              "system": "http://unitsofmeasure.org"
            }
          },
          {
            "high": {
              "value": 5.1,
              "code": "mmol/L",
              "system": "http://unitsofmeasure.org"
            }
          }
        ],
        "text": {
          "status": "generated",
          "div": "<div xmlns=\"http://www.w3.org/1999/xhtml\"><table class=\"hl7__eu__lab__report\"><tr><th>Test</th><th>13-Jan-2020</th><th>Reference&#xA0;Range</th><th>Unit</th></tr><tr><td>Potassium [Moles/volume] in Blood</td><td>4.8</td><td>3.5 - 5.1</td><td></td><td>mmol/L</td></tr></table></div>"
        },
        "status": "final",
        "subject": {
          "reference": "urn:uuid:87457001-f4a3-4f10-845c-037e44070e79",
          "display": "Meaghan Neary"
        },
        "effectiveDateTime": "2020-01-13T22:11:04Z",
        "specimen": {
          "reference": "urn:uuid:64f6440b-7b8c-4434-9562-b3b431889433"
        }
      }
    },
    {
      "fullUrl": "urn:uuid:7981f502-f290-4032-8af8-56dec5a3b40b",
      "resource": {
        "resourceType": "Observation",
        "id": "7981f502-f290-4032-8af8-56dec5a3b40b",
        "meta": {
          "profile": [
            "http://hl7.eu/fhir/laboratory/StructureDefinition/Observation-resultslab-eu-lab"
          ]
        },
        "performer": [
          {
            "display": "The Central European Lab"
          }
        ],
        "category": [
          {
            "coding": [
              {
                "system": "http://terminology.hl7.org/CodeSystem/observation-category",
                "code": "laboratory"
              }
            ]
          }
        ],
        "code": {
          "coding": [
            {
              "code": "2069-3",
              "system": "http://loinc.org",
              "display": "Chloride [Moles/volume] in Blood"
            }
          ],
          "text": "Chloride [Moles/volume] in Blood"
        },
        "valueQuantity": {
          "system": "http://unitsofmeasure.org",
          "value": 101.2,
          "unit": "mmol/L",
          "code": "mmol/L"
        },
        "referenceRange": [
          {
            "low": {
              "value": 98,
              "code": "mmol/L",
              "system": "http://unitsofmeasure.org"
            }
          },
          {
            "high": {
              "value": 108,
              "code": "mmol/L",
              "system": "http://unitsofmeasure.org"
            }
          }
        ],
        "text": {
          "status": "generated",
          "div": "<div xmlns=\"http://www.w3.org/1999/xhtml\"><table class=\"hl7__eu__lab__report\"><tr><th>Test</th><th>13-Jan-2020</th><th>Reference&#xA0;Range</th><th>Unit</th></tr><tr><td>Chloride [Moles/volume] in Blood</td><td>101.2</td><td>98 - 108</td><td></td><td>mmol/L</td></tr></table></div>"
        },
        "status": "final",
        "subject": {
          "reference": "urn:uuid:87457001-f4a3-4f10-845c-037e44070e79",
          "display": "Meaghan Neary"
        },
        "effectiveDateTime": "2020-01-13T22:11:04Z",
        "specimen": {
          "reference": "urn:uuid:64f6440b-7b8c-4434-9562-b3b431889433"
        }
      }
    },
    {
      "fullUrl": "urn:uuid:f3de686a-1f04-43c1-a43f-f5684fac0f9f",
      "resource": {
        "resourceType": "Observation",
        "id": "f3de686a-1f04-43c1-a43f-f5684fac0f9f",
        "meta": {
          "profile": [
            "http://hl7.eu/fhir/laboratory/StructureDefinition/Observation-resultslab-eu-lab"
          ]
        },
        "performer": [
          {
            "display": "The Central European Lab"
          }
        ],
        "category": [
          {
            "coding": [
              {
                "system": "http://terminology.hl7.org/CodeSystem/observation-category",
                "code": "laboratory"
              }
            ]
          }
        ],
        "code": {
          "coding": [
            {
              "code": "20565-8",
              "system": "http://loinc.org",
              "display": "Carbon dioxide, total [Moles/volume] in Blood"
            }
          ],
          "text": "Carbon dioxide, total [Moles/volume] in Blood"
        },
        "valueQuantity": {
          "system": "http://unitsofmeasure.org",
          "value": 23.8,
          "unit": "mmol/L",
          "code": "mmol/L"
        },
        "referenceRange": [
          {
            "low": {
              "value": 22,
              "code": "mmol/L",
              "system": "http://unitsofmeasure.org"
            }
          },
          {
            "high": {
              "value": 29,
              "code": "mmol/L",
              "system": "http://unitsofmeasure.org"
            }
          }
        ],
        "text": {
          "status": "generated",
          "div": "<div xmlns=\"http://www.w3.org/1999/xhtml\"><table class=\"hl7__eu__lab__report\"><tr><th>Test</th><th>13-Jan-2020</th><th>Reference&#xA0;Range</th><th>Unit</th></tr><tr><td>Carbon dioxide, total [Moles/volume] in Blood</td><td>23.8</td><td>22 - 29</td><td></td><td>mmol/L</td></tr></table></div>"
        },
        "status": "final",
        "subject": {
          "reference": "urn:uuid:87457001-f4a3-4f10-845c-037e44070e79",
          "display": "Meaghan Neary"
        },
        "effectiveDateTime": "2020-01-13T22:11:04Z",
        "specimen": {
          "reference": "urn:uuid:64f6440b-7b8c-4434-9562-b3b431889433"
        }
      }
    },
    {
      "fullUrl": "urn:uuid:255d2f74-ba48-4b0c-af44-8d2099ce95e5",
      "resource": {
        "resourceType": "Device",
        "id": "255d2f74-ba48-4b0c-af44-8d2099ce95e5",
        "deviceName": [
          {
            "name": "SYNDERAI Synthetic Generator",
            "type": "manufacturer-name"
          }
        ],
        "version": [
          {
            "value": "5.0"
          }
        ],
        "text": {
          "status": "generated",
          "div": "<div xmlns=\"http://www.w3.org/1999/xhtml\">SYNDERAI Synthetic Generator v5.0</div>"
        },
        "status": "active\"",
        "distinctIdentifier": "synderai-generator-50",
        "manufacturer": "SYNDERAI Project"
      }
    },
    {
      "fullUrl": "urn:uuid:3576861b-afec-4adb-b503-abaf1fc9c123",
      "resource": {
        "resourceType": "Provenance",
        "id": "3576861b-afec-4adb-b503-abaf1fc9c123",
        "target": [
          {
            "reference": "Patient/87457001-f4a3-4f10-845c-037e44070e79"
          },
          {
            "reference": "Bundle/09de0238-b9bf-44e6-a21f-8e6721ef4381"
          },
          {
            "reference": "Composition/808defdb-af6c-4978-895e-b245e1b6e71b"
          },
          {
            "reference": "PractitionerRole/1502a2e4-a005-4ba3-85ed-1157eed62031"
          },
          {
            "reference": "Practitioner/bf6f782f-c5e5-49c5-a2d7-569641436220"
          },
          {
            "reference": "PractitionerRole/192014b6-efbe-4e08-bc4e-3ecf816180f6"
          },
          {
            "reference": "Organization/04577907-ce40-40f7-a003-15c3026440d0"
          }
        ],
        "activity": {
          "text": "Synthetic Example Data Generation"
        },
        "policy": [
          "https://synderai.net/synderai-synthetic-data-policy"
        ],
        "agent": [
          {
            "type": {
              "text": "author"
            },
            "who": {
              "reference": "Device/255d2f74-ba48-4b0c-af44-8d2099ce95e5"
            }
          }
        ],
        "reason": [
          {
            "text": "Interoperability Testing and Training (non-clinical use)"
          }
        ],
        "text": {
          "status": "generated",
          "div": "<div xmlns=\"http://www.w3.org/1999/xhtml\">Provenance for SYNDERAI Synthetic Example Data Resource</div>"
        },
        "recorded": "2020-01-13T23:11:04Z"
      }
    },
    {
      "fullUrl": "urn:uuid:1502a2e4-a005-4ba3-85ed-1157eed62031",
      "resource": {
        "resourceType": "PractitionerRole",
        "id": "1502a2e4-a005-4ba3-85ed-1157eed62031",
        "meta": {
          "profile": [
            "http://hl7.eu/fhir/base/StructureDefinition/practitionerRole-eu"
          ]
        },
        "text": {
          "status": "generated",
          "div": "<div xmlns=\"http://www.w3.org/1999/xhtml\">Laboratory Role Id: 1502a2e4-a005-4ba3-85ed-1157eed62031</div>"
        },
        "practitioner": {
          "reference": "urn:uuid:bf6f782f-c5e5-49c5-a2d7-569641436220"
        }
      }
    },
    {
      "fullUrl": "urn:uuid:bf6f782f-c5e5-49c5-a2d7-569641436220",
      "resource": {
        "resourceType": "Practitioner",
        "id": "bf6f782f-c5e5-49c5-a2d7-569641436220",
        "meta": {
          "profile": [
            "http://hl7.eu/fhir/base/StructureDefinition/practitioner-eu"
          ]
        },
        "identifier": [
          {
            "assigner": {
              "display": "HL7 Europe"
            },
            "system": "urn:oid:2.16.840.1.113883.2.51.999",
            "value": "c76e0554-69a2-4cb2-b37c-7c2cfd044e58"
          }
        ],
        "name": [
          {
            "prefix": [
              "dr"
            ],
            "given": [
              "Ex"
            ],
            "family": "Ample"
          }
        ],
        "address": [
          {
            "line": [
              "Laboratoire Central Europenne",
              "Boulevard du Jardin Botanique 32"
            ],
            "postalCode": "1000",
            "city": "Brussels",
            "country": "Belgium"
          }
        ],
        "text": {
          "status": "generated",
          "div": "<div xmlns=\"http://www.w3.org/1999/xhtml\">Laboratory: Laboratoire Central Europenne, 1000 Brussels, Belgium</div>"
        }
      }
    }
  ],
  "type": "document",
  "timestamp": "2020-01-13T23:11:04Z"
}
