{
  "resourceType": "Bundle",
  "id": "a180cec0-0b8e-4bb0-a17f-83e0944ab362",
  "meta": {
    "profile": [
      "http://hl7.eu/fhir/laboratory/StructureDefinition/Bundle-eu-lab"
    ]
  },
  "identifier": {
    "assigner": {
      "display": "HL7 Europe"
    },
    "system": "urn:oid:2.16.840.1.113883.2.51.999",
    "value": "a429289e-a85f-4dac-9c39-a47571909df3"
  },
  "entry": [
    {
      "fullUrl": "urn:uuid:54284a26-bf69-45be-93ca-a180a88634d2",
      "resource": {
        "resourceType": "Composition",
        "id": "54284a26-bf69-45be-93ca-a180a88634d2",
        "meta": {
          "profile": [
            "http://hl7.eu/fhir/laboratory/StructureDefinition/Composition-eu-lab"
          ]
        },
        "identifier": {
          "assigner": {
            "display": "HL7 Europe"
          },
          "system": "urn:oid:2.16.840.1.113883.2.51.999",
          "value": "1b074743-feca-4e2f-b908-f833bd3044f6"
        },
        "author": [
          {
            "reference": "urn:uuid:b3a9cf4b-4e5e-4d8d-8ea8-d5871b613493"
          }
        ],
        "category": [
          {
            "coding": [
              {
                "code": "26436-6",
                "system": "http://loinc.org",
                "display": "Laboratory studies (set)"
              }
            ]
          }
        ],
        "type": {
          "coding": [
            {
              "code": "11502-2",
              "system": "http://loinc.org",
              "display": "Laboratory report"
            }
          ],
          "text": "Laboratory Report"
        },
        "section": [
          {
            "code": {
              "coding": [
                {
                  "code": "26436-6",
                  "system": "http://loinc.org",
                  "display": "Laboratory studies (set)"
                }
              ],
              "text": "Laboratory studies"
            },
            "section": [
              {
                "code": {
                  "coding": [
                    {
                      "code": "$18719-5",
                      "system": "http://loinc.org",
                      "display": "Chemistry studies (set)"
                    }
                  ],
                  "text": "Chemistry"
                },
                "entry": [
                  {
                    "reference": "urn:uuid:08481751-d9e3-4196-948a-b1dde988a6fe"
                  },
                  {
                    "reference": "urn:uuid:634c56c7-fbd9-4b63-b4e7-d9da36eb30b8"
                  },
                  {
                    "reference": "urn:uuid:a9e587bc-e3de-4e46-b2ba-fb7648220c9b"
                  },
                  {
                    "reference": "urn:uuid:46a7b1e8-a38c-47a0-b7af-0add1328e06c"
                  },
                  {
                    "reference": "urn:uuid:6908e109-228c-4b13-94eb-29e01d475f21"
                  },
                  {
                    "reference": "urn:uuid:1983854a-6e28-467d-9367-1edb76f4a5e2"
                  },
                  {
                    "reference": "urn:uuid:019aa41e-53c3-4a24-bef2-a050b112d6a7"
                  },
                  {
                    "reference": "urn:uuid:ee61e4d3-1778-4594-acce-ba445ad4133a"
                  },
                  {
                    "reference": "urn:uuid:26933375-af70-4953-9c26-ac323a6b2bfe"
                  },
                  {
                    "reference": "urn:uuid:841e1858-cc24-46f9-8606-82665e40652c"
                  },
                  {
                    "reference": "urn:uuid:b23286c6-c534-4851-bb60-d24bc943f137"
                  },
                  {
                    "reference": "urn:uuid:18381e7c-4474-4c36-81f9-31137dd44a57"
                  },
                  {
                    "reference": "urn:uuid:cd1edc21-37a6-4113-bb51-5ff30568a30f"
                  },
                  {
                    "reference": "urn:uuid:0282cb63-7842-42dd-8589-d354cd8be4b5"
                  },
                  {
                    "reference": "urn:uuid:b2d4c697-b80b-42e9-b4e5-3e09197c70ac"
                  },
                  {
                    "reference": "urn:uuid:afb41f64-2da7-48e3-8a1a-d64d99370a9e"
                  },
                  {
                    "reference": "urn:uuid:633ccc32-f474-4be7-8a03-f9b8848dd8b7"
                  },
                  {
                    "reference": "urn:uuid:cc5c9fc8-0e11-4d11-b5be-16b658cf692e"
                  }
                ],
                "text": {
                  "status": "generated",
                  "div": "<div xmlns=\"http://www.w3.org/1999/xhtml\"><h3>Chemistry</h3><table class=\"hl7__eu__lab__report\"><thead><tr><th>Test</th><th>05-MAY-2022</th><th>Reference&#xA0;Range</th><th>Unit</th></tr></thead><tbody><tr><td>Glucose [Mass/volume] in Serum or Plasma</td><td>92.8</td><td>70 - 139</td><td>mg/dL</td></tr><tr><td>Urea nitrogen [Mass/volume] in Serum or Plasma</td><td>19.4</td><td>7 - 20</td><td>mg/dL</td></tr><tr><td>Creatinine [Mass/volume] in Serum or Plasma</td><td><strong>2.1 H</strong></td><td>0.6 - 1.1</td><td>mg/dL</td></tr><tr><td>Calcium [Mass/volume] in Serum or Plasma</td><td>8.9</td><td>8.5 - 10.4</td><td>mg/dL</td></tr><tr><td>Sodium [Moles/volume] in Serum or Plasma</td><td>143.1</td><td>135 - 145</td><td>mmol/L</td></tr><tr><td>Potassium [Moles/volume] in Serum or Plasma</td><td>4.6</td><td>3.5 - 5.1</td><td>mmol/L</td></tr><tr><td>Chloride [Moles/volume] in Serum or Plasma</td><td>104.9</td><td>98 - 110</td><td>mmol/L</td></tr><tr><td>Carbon dioxide, total [Moles/volume] in Serum or Plasma</td><td><strong>20.2 L</strong></td><td>22 - 32</td><td>mmol/L</td></tr><tr><td>Ketones [Presence] in Urine by Test strip</td><td>Urine ketone test = +</td><td></td><td></td></tr><tr><td>Hemoglobin A1c/Hemoglobin.total in Blood</td><td><strong>3.3 L</strong></td><td>4 - 6</td><td>%</td></tr><tr><td>Glucose [Mass/volume] in Blood</td><td>92.8</td><td>70 - 100</td><td>mg/dL</td></tr><tr><td>Urea nitrogen [Mass/volume] in Blood</td><td>19.4</td><td>7 - 20</td><td>mg/dL</td></tr><tr><td>Creatinine [Mass/volume] in Blood</td><td><strong>1.4 H</strong></td><td>0.6 - 1.3</td><td>mg/dL</td></tr><tr><td>Calcium [Mass/volume] in Blood</td><td>8.9</td><td>8.6 - 10.4</td><td>mg/dL</td></tr><tr><td>Sodium [Moles/volume] in Blood</td><td>143.1</td><td>135 - 145</td><td>mmol/L</td></tr><tr><td>Potassium [Moles/volume] in Blood</td><td>4.6</td><td>3.5 - 5.1</td><td>mmol/L</td></tr><tr><td>Chloride [Moles/volume] in Blood</td><td>104.9</td><td>98 - 110</td><td>mmol/L</td></tr><tr><td>Carbon dioxide, total [Moles/volume] in Blood</td><td><strong>20.2 L</strong></td><td>22 - 29</td><td>mmol/L</td></tr></tbody></table></div>"
                },
                "title": "Chemistry"
              },
              {
                "code": {
                  "coding": [
                    {
                      "code": "$18729-4",
                      "system": "http://loinc.org",
                      "display": "Urinalysis studies (set)"
                    }
                  ],
                  "text": "Urinalysis"
                },
                "entry": [
                  {
                    "reference": "urn:uuid:2356645d-65bd-4e2c-9740-fa7add50c459"
                  },
                  {
                    "reference": "urn:uuid:b6a86e55-a89b-4868-93a2-9b1f0e7e8f1b"
                  },
                  {
                    "reference": "urn:uuid:8fc0a050-d367-4b5c-a413-8c348eb645fc"
                  },
                  {
                    "reference": "urn:uuid:7407dc82-c6cc-4839-b5a5-0c605f157334"
                  },
                  {
                    "reference": "urn:uuid:2e752551-071b-48d5-9d8c-e78e9647ca97"
                  },
                  {
                    "reference": "urn:uuid:8fa4e792-e1f1-4a5f-a1ed-ca838abb5a61"
                  },
                  {
                    "reference": "urn:uuid:0e0b3b56-ab1e-4865-9ace-c1d3fcd75467"
                  },
                  {
                    "reference": "urn:uuid:461a2ef1-ae92-458d-91ad-6129086ab3f2"
                  },
                  {
                    "reference": "urn:uuid:72d44fd5-c4ce-49a8-97d4-86a5fbaded5e"
                  },
                  {
                    "reference": "urn:uuid:40f770cc-d0a1-4c33-8382-77f329013dd0"
                  },
                  {
                    "reference": "urn:uuid:a263c018-911f-4640-8b06-6cd7642683f2"
                  },
                  {
                    "reference": "urn:uuid:2b5d6435-94bb-4c6c-b30b-70e7388563b3"
                  }
                ],
                "text": {
                  "status": "generated",
                  "div": "<div xmlns=\"http://www.w3.org/1999/xhtml\"><h3>Urinalysis</h3><table class=\"hl7__eu__lab__report\"><thead><tr><th>Test</th><th>05-MAY-2022</th><th>Reference&#xA0;Range</th><th>Unit</th></tr></thead><tbody><tr><td>Glucose [Mass/volume] in Urine by Test strip</td><td><strong>0.8 H</strong></td><td>0 - 0</td><td>mg/dL</td></tr><tr><td>Glucose [Presence] in Urine by Test strip</td><td>++</td><td></td><td></td></tr><tr><td>Bilirubin.total [Mass/volume] in Urine by Test strip</td><td>1.3</td><td>0 - 1.6</td><td>mg/dL</td></tr><tr><td>Bilirubin.total [Presence] in Urine by Test strip</td><td>Finding of bilirubin in urine</td><td></td><td></td></tr><tr><td>Ketones [Mass/volume] in Urine by Test strip</td><td><strong>13.4 H</strong></td><td>0 - 0.5</td><td>mg/dL</td></tr><tr><td>Specific gravity of Urine by Test strip</td><td><strong>1.0 L</strong></td><td>1.005 - 1.03</td><td>{nominal}</td></tr><tr><td>pH of Urine by Test strip</td><td>6.0</td><td>4.5 - 7.5</td><td>pH</td></tr><tr><td>Protein [Mass/volume] in Urine by Test strip</td><td><strong>301.9 H</strong></td><td>0 - 15</td><td>mg/dL</td></tr><tr><td>Protein [Presence] in Urine by Test strip</td><td>Urine protein test = ++</td><td></td><td></td></tr><tr><td>Nitrite [Presence] in Urine by Test strip</td><td>Urine nitrite negative</td><td></td><td></td></tr><tr><td>Hemoglobin [Presence] in Urine by Test strip</td><td>Urine blood test = negative</td><td></td><td></td></tr><tr><td>Leukocyte esterase [Presence] in Urine by Test strip</td><td>Urine leukocyte test negative</td><td></td><td></td></tr></tbody></table></div>"
                },
                "title": "Urinalysis"
              },
              {
                "code": {
                  "coding": [
                    {
                      "code": "$LP7846-1",
                      "system": "http://loinc.org",
                      "display": "Specimen information"
                    }
                  ],
                  "text": "Specimen information"
                },
                "entry": [
                  {
                    "reference": "urn:uuid:31321f43-4089-4ad3-abc0-1d052e8563a7"
                  },
                  {
                    "reference": "urn:uuid:84e93a07-38b5-49fe-a5b2-6781fc7601a4"
                  },
                  {
                    "reference": "urn:uuid:e63dca8e-1769-495f-bc8b-1ca74a0cdbf9"
                  },
                  {
                    "reference": "urn:uuid:5016b192-38a2-4f43-800c-9949b816dce2"
                  }
                ],
                "text": {
                  "status": "generated",
                  "div": "<div xmlns=\"http://www.w3.org/1999/xhtml\"><h3>Specimen information</h3><table class=\"hl7__eu__lab__report\"><thead><tr><th>Test</th><th>05-MAY-2022</th><th>Specimen</th><th></th></tr></thead><tbody><tr><td>Appearance of Urine</td><td>Cloudy urine</td><td>Urine</td><td></td></tr><tr><td>Odor of Urine</td><td>Urine smell ammoniacal</td><td>Urine</td><td></td></tr><tr><td>Clarity of Urine</td><td>Translucent</td><td>Urine</td><td></td></tr><tr><td>Color of Urine</td><td>Brown color</td><td>Urine</td><td></td></tr></tbody></table></div>"
                },
                "title": "Specimen information"
              }
            ],
            "title": "Laboratory Report"
          },
          {
            "text": {
              "status": "generated",
              "div": "<div xmlns=\"http://www.w3.org/1999/xhtml\"><h3>Annotation</h3><table class=\"hl7__eu__lab__report\"><tr><th>Conclusion and Recommendations based on this report and previous findings known to us</th></tr><tr><td>The patient shows elevated creatinine, low total CO₂, significant proteinuria, glucosuria, and ketonuria, with abnormal urine appearance and color. These findings suggest impaired renal function, possible metabolic acidosis, and likely nephrotic-range proteinuria. The presence of glucose and ketones in urine with low HbA1c is unusual and may indicate acute metabolic disturbance. Further nephrological and metabolic evaluation is recommended.</td></tr></table></div>"
            },
            "code": {
              "coding": [
                {
                  "system": "http://loinc.org",
                  "code": "48767-8",
                  "display": "Annotation comment"
                }
              ]
            },
            "title": "Annotation comment"
          }
        ],
        "status": "final",
        "subject": {
          "reference": "urn:uuid:c4604690-6b9c-4f96-9664-db08b124e367",
          "display": "Molly Jenkins"
        },
        "date": "2022-05-05T16:42:11Z",
        "title": "Laboratory Report",
        "confidentiality": "N"
      }
    },
    {
      "fullUrl": "urn:uuid:2d6e00e7-c518-48a7-a35f-a0ead2be98e4",
      "resource": {
        "resourceType": "DiagnosticReport",
        "id": "2d6e00e7-c518-48a7-a35f-a0ead2be98e4",
        "meta": {
          "profile": [
            "http://hl7.eu/fhir/laboratory/StructureDefinition/DiagnosticReport-eu-lab"
          ]
        },
        "identifier": [
          {
            "assigner": {
              "display": "HL7 Europe"
            },
            "system": "urn:oid:2.16.840.1.113883.2.51.999",
            "value": "55548fe8-abd1-4d20-ba6d-e8d726e96bfb"
          }
        ],
        "extension": [
          {
            "url": "http://hl7.org/fhir/5.0/StructureDefinition/extension-DiagnosticReport.composition",
            "valueReference": {
              "reference": "urn:uuid:1b074743-feca-4e2f-b908-f833bd3044f6"
            }
          }
        ],
        "category": [
          {
            "coding": [
              {
                "code": "26436-6",
                "system": "http://loinc.org",
                "display": "Laboratory studies (set)"
              }
            ]
          }
        ],
        "specimen": [
          {
            "reference": "urn:uuid:c49b2836-dec9-48bf-b597-c2a75757af2a"
          },
          {
            "reference": "urn:uuid:badbf804-a15d-4a44-b988-a8b7ed22be75"
          },
          {
            "reference": "urn:uuid:fa855da6-28e2-4661-b308-5259c7ce7cf1"
          }
        ],
        "result": [
          {
            "reference": "urn:uuid:08481751-d9e3-4196-948a-b1dde988a6fe"
          },
          {
            "reference": "urn:uuid:634c56c7-fbd9-4b63-b4e7-d9da36eb30b8"
          },
          {
            "reference": "urn:uuid:a9e587bc-e3de-4e46-b2ba-fb7648220c9b"
          },
          {
            "reference": "urn:uuid:46a7b1e8-a38c-47a0-b7af-0add1328e06c"
          },
          {
            "reference": "urn:uuid:6908e109-228c-4b13-94eb-29e01d475f21"
          },
          {
            "reference": "urn:uuid:1983854a-6e28-467d-9367-1edb76f4a5e2"
          },
          {
            "reference": "urn:uuid:019aa41e-53c3-4a24-bef2-a050b112d6a7"
          },
          {
            "reference": "urn:uuid:ee61e4d3-1778-4594-acce-ba445ad4133a"
          },
          {
            "reference": "urn:uuid:31321f43-4089-4ad3-abc0-1d052e8563a7"
          },
          {
            "reference": "urn:uuid:84e93a07-38b5-49fe-a5b2-6781fc7601a4"
          },
          {
            "reference": "urn:uuid:e63dca8e-1769-495f-bc8b-1ca74a0cdbf9"
          },
          {
            "reference": "urn:uuid:5016b192-38a2-4f43-800c-9949b816dce2"
          },
          {
            "reference": "urn:uuid:2356645d-65bd-4e2c-9740-fa7add50c459"
          },
          {
            "reference": "urn:uuid:b6a86e55-a89b-4868-93a2-9b1f0e7e8f1b"
          },
          {
            "reference": "urn:uuid:8fc0a050-d367-4b5c-a413-8c348eb645fc"
          },
          {
            "reference": "urn:uuid:7407dc82-c6cc-4839-b5a5-0c605f157334"
          },
          {
            "reference": "urn:uuid:2e752551-071b-48d5-9d8c-e78e9647ca97"
          },
          {
            "reference": "urn:uuid:26933375-af70-4953-9c26-ac323a6b2bfe"
          },
          {
            "reference": "urn:uuid:8fa4e792-e1f1-4a5f-a1ed-ca838abb5a61"
          },
          {
            "reference": "urn:uuid:0e0b3b56-ab1e-4865-9ace-c1d3fcd75467"
          },
          {
            "reference": "urn:uuid:461a2ef1-ae92-458d-91ad-6129086ab3f2"
          },
          {
            "reference": "urn:uuid:72d44fd5-c4ce-49a8-97d4-86a5fbaded5e"
          },
          {
            "reference": "urn:uuid:40f770cc-d0a1-4c33-8382-77f329013dd0"
          },
          {
            "reference": "urn:uuid:a263c018-911f-4640-8b06-6cd7642683f2"
          },
          {
            "reference": "urn:uuid:2b5d6435-94bb-4c6c-b30b-70e7388563b3"
          },
          {
            "reference": "urn:uuid:841e1858-cc24-46f9-8606-82665e40652c"
          },
          {
            "reference": "urn:uuid:b23286c6-c534-4851-bb60-d24bc943f137"
          },
          {
            "reference": "urn:uuid:18381e7c-4474-4c36-81f9-31137dd44a57"
          },
          {
            "reference": "urn:uuid:cd1edc21-37a6-4113-bb51-5ff30568a30f"
          },
          {
            "reference": "urn:uuid:0282cb63-7842-42dd-8589-d354cd8be4b5"
          },
          {
            "reference": "urn:uuid:b2d4c697-b80b-42e9-b4e5-3e09197c70ac"
          },
          {
            "reference": "urn:uuid:afb41f64-2da7-48e3-8a1a-d64d99370a9e"
          },
          {
            "reference": "urn:uuid:633ccc32-f474-4be7-8a03-f9b8848dd8b7"
          },
          {
            "reference": "urn:uuid:cc5c9fc8-0e11-4d11-b5be-16b658cf692e"
          }
        ],
        "status": "registered",
        "code": {
          "coding": [
            {
              "code": "11502-2",
              "system": "http://loinc.org",
              "display": "Laboratory report"
            }
          ]
        },
        "subject": {
          "reference": "urn:uuid:c4604690-6b9c-4f96-9664-db08b124e367",
          "display": "Molly Jenkins"
        }
      }
    },
    {
      "fullUrl": "urn:uuid:c4604690-6b9c-4f96-9664-db08b124e367",
      "resource": {
        "resourceType": "Patient",
        "id": "c4604690-6b9c-4f96-9664-db08b124e367",
        "meta": {
          "security": [
            {
              "system": "http://terminology.hl7.org/CodeSystem/v3-ActReason",
              "code": "HTEST"
            },
            {
              "system": "http://terminology.hl7.org/CodeSystem/v3-ActReason",
              "code": "TRAIN"
            }
          ],
          "tag": [
            {
              "system": "https://synderai.net/fhir/CodeSystem/tags",
              "code": "synthetic",
              "display": "SYNDERAI Synthetic data"
            }
          ],
          "profile": [
            "http://hl7.eu/fhir/base/StructureDefinition/patient-eu-core"
          ]
        },
        "identifier": [
          {
            "type": {
              "coding": [
                {
                  "code": "PT",
                  "system": "http://terminology.hl7.org/CodeSystem/v2-0203"
                }
              ]
            },
            "system": "http://ec.europa.eu/identifier/eci",
            "value": "7634-012682-0"
          },
          {
            "type": {
              "coding": [
                {
                  "code": "MR",
                  "system": "http://terminology.hl7.org/CodeSystem/v2-0203"
                }
              ]
            },
            "system": "http://local.setting.eu/identifier",
            "value": "9934a8eb-b6e1-34e1-edf5-57a0262d1bea"
          }
        ],
        "name": [
          {
            "family": "Jenkins"
          },
          {
            "given": [
              "Molly"
            ]
          },
          {
            "text": "Molly Jenkins"
          }
        ],
        "address": [
          {
            "line": [
              "98 Ali field"
            ],
            "use": "home",
            "type": "physical",
            "postalCode": "AB42",
            "city": "Port Jennamouth",
            "country": "United Kingdom"
          }
        ],
        "telecom": [
          {
            "system": "phone",
            "value": "(0118) 496 0334"
          }
        ],
        "extension": [
          {
            "url": "http://hl7.org/fhir/StructureDefinition/patient-nationality",
            "valueCodeableConcept": {
              "coding": [
                {
                  "code": "GB",
                  "system": "http://hl7.org/fhir/ValueSet/country"
                }
              ]
            }
          }
        ],
        "text": {
          "status": "generated",
          "div": "<div xmlns=\"http://www.w3.org/1999/xhtml\"><table class=\"hl7__ips\"><tr><td>Molly Jenkins</td><td>female</td><td>14-Aug-1967</td></tr></table></div>"
        },
        "gender": "female",
        "birthDate": "1967-08-14"
      }
    },
    {
      "fullUrl": "urn:uuid:65188e69-bf21-455f-8a8f-7e10fb13f5da",
      "resource": {
        "resourceType": "ServiceRequest",
        "id": "65188e69-bf21-455f-8a8f-7e10fb13f5da",
        "meta": {
          "profile": [
            "http://hl7.eu/fhir/laboratory/StructureDefinition/ServiceRequest-eu-lab"
          ]
        },
        "identifier": [
          {
            "system": "http://example.org",
            "value": "78bfb4b5-b224-4a2b-a511-c54dc2b12b49"
          }
        ],
        "specimen": [
          {
            "reference": "urn:uuid:c49b2836-dec9-48bf-b597-c2a75757af2a"
          },
          {
            "reference": "urn:uuid:badbf804-a15d-4a44-b988-a8b7ed22be75"
          },
          {
            "reference": "urn:uuid:fa855da6-28e2-4661-b308-5259c7ce7cf1"
          }
        ],
        "reasonCode": [
          {
            "coding": [
              {
                "code": "431856006",
                "system": "http://snomed.info/sct",
                "display": "Chronic kidney disease stage 2"
              }
            ]
          },
          {
            "coding": [
              {
                "code": "90781000119102",
                "system": "http://snomed.info/sct",
                "display": "Microalbuminuria due to type 2 diabetes mellitus"
              }
            ]
          },
          {
            "coding": [
              {
                "code": "127013003",
                "system": "http://snomed.info/sct",
                "display": "Disorder of kidney due to diabetes mellitus"
              }
            ]
          },
          {
            "coding": [
              {
                "code": "431855005",
                "system": "http://snomed.info/sct",
                "display": "Chronic kidney disease stage 1"
              }
            ]
          },
          {
            "coding": [
              {
                "code": "15777000",
                "system": "http://snomed.info/sct",
                "display": "Prediabetes"
              }
            ]
          },
          {
            "coding": [
              {
                "code": "59621000",
                "system": "http://snomed.info/sct",
                "display": "Essential hypertension"
              }
            ]
          },
          {
            "coding": [
              {
                "code": "53827007",
                "system": "http://snomed.info/sct",
                "display": "Excessive salivation"
              }
            ]
          },
          {
            "coding": [
              {
                "code": "64859006",
                "system": "http://snomed.info/sct",
                "display": "Osteoporosis"
              }
            ]
          },
          {
            "coding": [
              {
                "code": "128188000",
                "system": "http://snomed.info/sct",
                "display": "Cerebral palsy"
              }
            ]
          },
          {
            "coding": [
              {
                "code": "235595009",
                "system": "http://snomed.info/sct",
                "display": "Gastroesophageal reflux disease"
              }
            ]
          }
        ],
        "status": "active",
        "intent": "order",
        "code": {
          "coding": [
            {
              "code": "108252007",
              "system": "http://snomed.info/sct",
              "display": "Laboratory procedure"
            }
          ]
        },
        "subject": {
          "reference": "urn:uuid:c4604690-6b9c-4f96-9664-db08b124e367",
          "display": "Molly Jenkins"
        },
        "requester": {
          "reference": "urn:uuid:4f5cb22d-90f2-4b1e-a7b2-e5a9cc2fa8d9"
        }
      }
    },
    {
      "fullUrl": "urn:uuid:4f5cb22d-90f2-4b1e-a7b2-e5a9cc2fa8d9",
      "resource": {
        "resourceType": "PractitionerRole",
        "id": "4f5cb22d-90f2-4b1e-a7b2-e5a9cc2fa8d9",
        "meta": {
          "profile": [
            "http://hl7.eu/fhir/base/StructureDefinition/practitionerRole-eu"
          ]
        },
        "text": {
          "status": "generated",
          "div": "<div xmlns=\"http://www.w3.org/1999/xhtml\">Provider Role Id: 4f5cb22d-90f2-4b1e-a7b2-e5a9cc2fa8d9</div>"
        },
        "organization": {
          "reference": "urn:uuid:564ff6e1-b139-4ee4-bc33-cedaefacc641"
        }
      }
    },
    {
      "fullUrl": "urn:uuid:564ff6e1-b139-4ee4-bc33-cedaefacc641",
      "resource": {
        "resourceType": "Organization",
        "id": "564ff6e1-b139-4ee4-bc33-cedaefacc641",
        "meta": {
          "profile": [
            "http://hl7.eu/fhir/base/StructureDefinition/organization-eu"
          ]
        },
        "identifier": [
          {
            "assigner": {
              "display": "HL7 Europe"
            },
            "system": "urn:oid:2.16.840.1.113883.2.51.999",
            "value": "7309ad82-4294-4906-b09c-1ec05eb87fbd"
          }
        ],
        "address": [
          {
            "city": "Aberdeen",
            "postalCode": "AB11 6",
            "country": "United Kingdom"
          }
        ],
        "text": {
          "status": "generated",
          "div": "<div xmlns=\"http://www.w3.org/1999/xhtml\">Provider Organization: Aberdeen Community Health and Care Village</div>"
        },
        "name": "Aberdeen Community Health and Care Village"
      }
    },
    {
      "fullUrl": "urn:uuid:c49b2836-dec9-48bf-b597-c2a75757af2a",
      "resource": {
        "resourceType": "Specimen",
        "id": "c49b2836-dec9-48bf-b597-c2a75757af2a",
        "meta": {
          "profile": [
            "http://hl7.eu/fhir/laboratory/StructureDefinition/Specimen-eu-lab"
          ]
        },
        "collection": {
          "collectedDateTime": "2022-05-05"
        },
        "text": {
          "status": "generated",
          "div": "<div xmlns=\"http://www.w3.org/1999/xhtml\"><table class=\"hl7__eu__lab__report\"><tr><th>Specimen</th><th>Collection Date</th></tr><tr><td>Acellular blood (serum or plasma) specimen</td><td><span class=\"nb\">05-May-2022</span></td></tr></table></div>"
        },
        "type": {
          "coding": [
            {
              "code": "122592007",
              "system": "http://snomed.info/sct",
              "display": "Acellular blood (serum or plasma) specimen"
            }
          ]
        }
      }
    },
    {
      "fullUrl": "urn:uuid:badbf804-a15d-4a44-b988-a8b7ed22be75",
      "resource": {
        "resourceType": "Specimen",
        "id": "badbf804-a15d-4a44-b988-a8b7ed22be75",
        "meta": {
          "profile": [
            "http://hl7.eu/fhir/laboratory/StructureDefinition/Specimen-eu-lab"
          ]
        },
        "collection": {
          "collectedDateTime": "2022-05-05"
        },
        "text": {
          "status": "generated",
          "div": "<div xmlns=\"http://www.w3.org/1999/xhtml\"><table class=\"hl7__eu__lab__report\"><tr><th>Specimen</th><th>Collection Date</th></tr><tr><td>Urine specimen</td><td><span class=\"nb\">05-May-2022</span></td></tr></table></div>"
        },
        "type": {
          "coding": [
            {
              "code": "122575003",
              "system": "http://snomed.info/sct",
              "display": "Urine specimen"
            }
          ]
        }
      }
    },
    {
      "fullUrl": "urn:uuid:fa855da6-28e2-4661-b308-5259c7ce7cf1",
      "resource": {
        "resourceType": "Specimen",
        "id": "fa855da6-28e2-4661-b308-5259c7ce7cf1",
        "meta": {
          "profile": [
            "http://hl7.eu/fhir/laboratory/StructureDefinition/Specimen-eu-lab"
          ]
        },
        "collection": {
          "collectedDateTime": "2022-05-05"
        },
        "text": {
          "status": "generated",
          "div": "<div xmlns=\"http://www.w3.org/1999/xhtml\"><table class=\"hl7__eu__lab__report\"><tr><th>Specimen</th><th>Collection Date</th></tr><tr><td>Whole blood specimen (specimen)</td><td><span class=\"nb\">05-May-2022</span></td></tr></table></div>"
        },
        "type": {
          "coding": [
            {
              "code": "258580003",
              "system": "http://snomed.info/sct",
              "display": "Whole blood specimen (specimen)"
            }
          ]
        }
      }
    },
    {
      "fullUrl": "urn:uuid:08481751-d9e3-4196-948a-b1dde988a6fe",
      "resource": {
        "resourceType": "Observation",
        "id": "08481751-d9e3-4196-948a-b1dde988a6fe",
        "meta": {
          "profile": [
            "http://hl7.eu/fhir/laboratory/StructureDefinition/Observation-resultslab-eu-lab"
          ]
        },
        "performer": [
          {
            "display": "The Central European Lab"
          }
        ],
        "category": [
          {
            "coding": [
              {
                "system": "http://terminology.hl7.org/CodeSystem/observation-category",
                "code": "laboratory"
              }
            ]
          }
        ],
        "code": {
          "coding": [
            {
              "code": "2345-7",
              "system": "http://loinc.org",
              "display": "Glucose [Mass/volume] in Serum or Plasma"
            }
          ],
          "text": "Glucose [Mass/volume] in Serum or Plasma"
        },
        "valueQuantity": {
          "system": "http://unitsofmeasure.org",
          "value": 92.8,
          "unit": "mg/dL",
          "code": "mg/dL"
        },
        "referenceRange": [
          {
            "low": {
              "value": 70,
              "code": "mg/dL",
              "system": "http://unitsofmeasure.org"
            }
          },
          {
            "high": {
              "value": 139,
              "code": "mg/dL",
              "system": "http://unitsofmeasure.org"
            }
          }
        ],
        "text": {
          "status": "generated",
          "div": "<div xmlns=\"http://www.w3.org/1999/xhtml\"><table class=\"hl7__eu__lab__report\"><tr><th>Test</th><th>05-May-2022</th><th>Reference&#xA0;Range</th><th>Unit</th></tr><tr><td>Glucose [Mass/volume] in Serum or Plasma</td><td>92.8</td><td>70 - 139</td><td></td><td>mg/dL</td></tr></table></div>"
        },
        "status": "final",
        "subject": {
          "reference": "urn:uuid:c4604690-6b9c-4f96-9664-db08b124e367",
          "display": "Molly Jenkins"
        },
        "effectiveDateTime": "2022-05-05T14:42:11Z",
        "specimen": {
          "reference": "urn:uuid:c49b2836-dec9-48bf-b597-c2a75757af2a"
        }
      }
    },
    {
      "fullUrl": "urn:uuid:634c56c7-fbd9-4b63-b4e7-d9da36eb30b8",
      "resource": {
        "resourceType": "Observation",
        "id": "634c56c7-fbd9-4b63-b4e7-d9da36eb30b8",
        "meta": {
          "profile": [
            "http://hl7.eu/fhir/laboratory/StructureDefinition/Observation-resultslab-eu-lab"
          ]
        },
        "performer": [
          {
            "display": "The Central European Lab"
          }
        ],
        "category": [
          {
            "coding": [
              {
                "system": "http://terminology.hl7.org/CodeSystem/observation-category",
                "code": "laboratory"
              }
            ]
          }
        ],
        "code": {
          "coding": [
            {
              "code": "3094-0",
              "system": "http://loinc.org",
              "display": "Urea nitrogen [Mass/volume] in Serum or Plasma"
            }
          ],
          "text": "Urea nitrogen [Mass/volume] in Serum or Plasma"
        },
        "valueQuantity": {
          "system": "http://unitsofmeasure.org",
          "value": 19.4,
          "unit": "mg/dL",
          "code": "mg/dL"
        },
        "referenceRange": [
          {
            "low": {
              "value": 7,
              "code": "mg/dL",
              "system": "http://unitsofmeasure.org"
            }
          },
          {
            "high": {
              "value": 20,
              "code": "mg/dL",
              "system": "http://unitsofmeasure.org"
            }
          }
        ],
        "text": {
          "status": "generated",
          "div": "<div xmlns=\"http://www.w3.org/1999/xhtml\"><table class=\"hl7__eu__lab__report\"><tr><th>Test</th><th>05-May-2022</th><th>Reference&#xA0;Range</th><th>Unit</th></tr><tr><td>Urea nitrogen [Mass/volume] in Serum or Plasma</td><td>19.4</td><td>7 - 20</td><td></td><td>mg/dL</td></tr></table></div>"
        },
        "status": "final",
        "subject": {
          "reference": "urn:uuid:c4604690-6b9c-4f96-9664-db08b124e367",
          "display": "Molly Jenkins"
        },
        "effectiveDateTime": "2022-05-05T14:42:11Z",
        "specimen": {
          "reference": "urn:uuid:c49b2836-dec9-48bf-b597-c2a75757af2a"
        }
      }
    },
    {
      "fullUrl": "urn:uuid:a9e587bc-e3de-4e46-b2ba-fb7648220c9b",
      "resource": {
        "resourceType": "Observation",
        "id": "a9e587bc-e3de-4e46-b2ba-fb7648220c9b",
        "meta": {
          "profile": [
            "http://hl7.eu/fhir/laboratory/StructureDefinition/Observation-resultslab-eu-lab"
          ]
        },
        "performer": [
          {
            "display": "The Central European Lab"
          }
        ],
        "category": [
          {
            "coding": [
              {
                "system": "http://terminology.hl7.org/CodeSystem/observation-category",
                "code": "laboratory"
              }
            ]
          }
        ],
        "code": {
          "coding": [
            {
              "code": "2160-0",
              "system": "http://loinc.org",
              "display": "Creatinine [Mass/volume] in Serum or Plasma"
            }
          ],
          "text": "Creatinine [Mass/volume] in Serum or Plasma"
        },
        "valueQuantity": {
          "system": "http://unitsofmeasure.org",
          "value": 2.1,
          "unit": "mg/dL",
          "code": "mg/dL"
        },
        "referenceRange": [
          {
            "low": {
              "value": 0.6,
              "code": "mg/dL",
              "system": "http://unitsofmeasure.org"
            }
          },
          {
            "high": {
              "value": 1.1,
              "code": "mg/dL",
              "system": "http://unitsofmeasure.org"
            }
          }
        ],
        "interpretation": [
          {
            "coding": [
              {
                "code": "H",
                "system": "http://terminology.hl7.org/CodeSystem/v3-ObservationInterpretation",
                "display": "High"
              }
            ]
          }
        ],
        "text": {
          "status": "generated",
          "div": "<div xmlns=\"http://www.w3.org/1999/xhtml\"><table class=\"hl7__eu__lab__report\"><tr><th>Test</th><th>05-May-2022</th><th>Reference&#xA0;Range</th><th>Unit</th></tr><tr><td>Creatinine [Mass/volume] in Serum or Plasma</td><td>2.1</td><td>0.6 - 1.1</td><td>H</td><td>mg/dL</td></tr></table></div>"
        },
        "status": "final",
        "subject": {
          "reference": "urn:uuid:c4604690-6b9c-4f96-9664-db08b124e367",
          "display": "Molly Jenkins"
        },
        "effectiveDateTime": "2022-05-05T14:42:11Z",
        "specimen": {
          "reference": "urn:uuid:c49b2836-dec9-48bf-b597-c2a75757af2a"
        }
      }
    },
    {
      "fullUrl": "urn:uuid:46a7b1e8-a38c-47a0-b7af-0add1328e06c",
      "resource": {
        "resourceType": "Observation",
        "id": "46a7b1e8-a38c-47a0-b7af-0add1328e06c",
        "meta": {
          "profile": [
            "http://hl7.eu/fhir/laboratory/StructureDefinition/Observation-resultslab-eu-lab"
          ]
        },
        "performer": [
          {
            "display": "The Central European Lab"
          }
        ],
        "category": [
          {
            "coding": [
              {
                "system": "http://terminology.hl7.org/CodeSystem/observation-category",
                "code": "laboratory"
              }
            ]
          }
        ],
        "code": {
          "coding": [
            {
              "code": "17861-6",
              "system": "http://loinc.org",
              "display": "Calcium [Mass/volume] in Serum or Plasma"
            }
          ],
          "text": "Calcium [Mass/volume] in Serum or Plasma"
        },
        "valueQuantity": {
          "system": "http://unitsofmeasure.org",
          "value": 8.9,
          "unit": "mg/dL",
          "code": "mg/dL"
        },
        "referenceRange": [
          {
            "low": {
              "value": 8.5,
              "code": "mg/dL",
              "system": "http://unitsofmeasure.org"
            }
          },
          {
            "high": {
              "value": 10.4,
              "code": "mg/dL",
              "system": "http://unitsofmeasure.org"
            }
          }
        ],
        "text": {
          "status": "generated",
          "div": "<div xmlns=\"http://www.w3.org/1999/xhtml\"><table class=\"hl7__eu__lab__report\"><tr><th>Test</th><th>05-May-2022</th><th>Reference&#xA0;Range</th><th>Unit</th></tr><tr><td>Calcium [Mass/volume] in Serum or Plasma</td><td>8.9</td><td>8.5 - 10.4</td><td></td><td>mg/dL</td></tr></table></div>"
        },
        "status": "final",
        "subject": {
          "reference": "urn:uuid:c4604690-6b9c-4f96-9664-db08b124e367",
          "display": "Molly Jenkins"
        },
        "effectiveDateTime": "2022-05-05T14:42:11Z",
        "specimen": {
          "reference": "urn:uuid:c49b2836-dec9-48bf-b597-c2a75757af2a"
        }
      }
    },
    {
      "fullUrl": "urn:uuid:6908e109-228c-4b13-94eb-29e01d475f21",
      "resource": {
        "resourceType": "Observation",
        "id": "6908e109-228c-4b13-94eb-29e01d475f21",
        "meta": {
          "profile": [
            "http://hl7.eu/fhir/laboratory/StructureDefinition/Observation-resultslab-eu-lab"
          ]
        },
        "performer": [
          {
            "display": "The Central European Lab"
          }
        ],
        "category": [
          {
            "coding": [
              {
                "system": "http://terminology.hl7.org/CodeSystem/observation-category",
                "code": "laboratory"
              }
            ]
          }
        ],
        "code": {
          "coding": [
            {
              "code": "2951-2",
              "system": "http://loinc.org",
              "display": "Sodium [Moles/volume] in Serum or Plasma"
            }
          ],
          "text": "Sodium [Moles/volume] in Serum or Plasma"
        },
        "valueQuantity": {
          "system": "http://unitsofmeasure.org",
          "value": 143.1,
          "unit": "mmol/L",
          "code": "mmol/L"
        },
        "referenceRange": [
          {
            "low": {
              "value": 135,
              "code": "mmol/L",
              "system": "http://unitsofmeasure.org"
            }
          },
          {
            "high": {
              "value": 145,
              "code": "mmol/L",
              "system": "http://unitsofmeasure.org"
            }
          }
        ],
        "text": {
          "status": "generated",
          "div": "<div xmlns=\"http://www.w3.org/1999/xhtml\"><table class=\"hl7__eu__lab__report\"><tr><th>Test</th><th>05-May-2022</th><th>Reference&#xA0;Range</th><th>Unit</th></tr><tr><td>Sodium [Moles/volume] in Serum or Plasma</td><td>143.1</td><td>135 - 145</td><td></td><td>mmol/L</td></tr></table></div>"
        },
        "status": "final",
        "subject": {
          "reference": "urn:uuid:c4604690-6b9c-4f96-9664-db08b124e367",
          "display": "Molly Jenkins"
        },
        "effectiveDateTime": "2022-05-05T14:42:11Z",
        "specimen": {
          "reference": "urn:uuid:c49b2836-dec9-48bf-b597-c2a75757af2a"
        }
      }
    },
    {
      "fullUrl": "urn:uuid:1983854a-6e28-467d-9367-1edb76f4a5e2",
      "resource": {
        "resourceType": "Observation",
        "id": "1983854a-6e28-467d-9367-1edb76f4a5e2",
        "meta": {
          "profile": [
            "http://hl7.eu/fhir/laboratory/StructureDefinition/Observation-resultslab-eu-lab"
          ]
        },
        "performer": [
          {
            "display": "The Central European Lab"
          }
        ],
        "category": [
          {
            "coding": [
              {
                "system": "http://terminology.hl7.org/CodeSystem/observation-category",
                "code": "laboratory"
              }
            ]
          }
        ],
        "code": {
          "coding": [
            {
              "code": "2823-3",
              "system": "http://loinc.org",
              "display": "Potassium [Moles/volume] in Serum or Plasma"
            }
          ],
          "text": "Potassium [Moles/volume] in Serum or Plasma"
        },
        "valueQuantity": {
          "system": "http://unitsofmeasure.org",
          "value": 4.6,
          "unit": "mmol/L",
          "code": "mmol/L"
        },
        "referenceRange": [
          {
            "low": {
              "value": 3.5,
              "code": "mmol/L",
              "system": "http://unitsofmeasure.org"
            }
          },
          {
            "high": {
              "value": 5.1,
              "code": "mmol/L",
              "system": "http://unitsofmeasure.org"
            }
          }
        ],
        "text": {
          "status": "generated",
          "div": "<div xmlns=\"http://www.w3.org/1999/xhtml\"><table class=\"hl7__eu__lab__report\"><tr><th>Test</th><th>05-May-2022</th><th>Reference&#xA0;Range</th><th>Unit</th></tr><tr><td>Potassium [Moles/volume] in Serum or Plasma</td><td>4.6</td><td>3.5 - 5.1</td><td></td><td>mmol/L</td></tr></table></div>"
        },
        "status": "final",
        "subject": {
          "reference": "urn:uuid:c4604690-6b9c-4f96-9664-db08b124e367",
          "display": "Molly Jenkins"
        },
        "effectiveDateTime": "2022-05-05T14:42:11Z",
        "specimen": {
          "reference": "urn:uuid:c49b2836-dec9-48bf-b597-c2a75757af2a"
        }
      }
    },
    {
      "fullUrl": "urn:uuid:019aa41e-53c3-4a24-bef2-a050b112d6a7",
      "resource": {
        "resourceType": "Observation",
        "id": "019aa41e-53c3-4a24-bef2-a050b112d6a7",
        "meta": {
          "profile": [
            "http://hl7.eu/fhir/laboratory/StructureDefinition/Observation-resultslab-eu-lab"
          ]
        },
        "performer": [
          {
            "display": "The Central European Lab"
          }
        ],
        "category": [
          {
            "coding": [
              {
                "system": "http://terminology.hl7.org/CodeSystem/observation-category",
                "code": "laboratory"
              }
            ]
          }
        ],
        "code": {
          "coding": [
            {
              "code": "2075-0",
              "system": "http://loinc.org",
              "display": "Chloride [Moles/volume] in Serum or Plasma"
            }
          ],
          "text": "Chloride [Moles/volume] in Serum or Plasma"
        },
        "valueQuantity": {
          "system": "http://unitsofmeasure.org",
          "value": 104.9,
          "unit": "mmol/L",
          "code": "mmol/L"
        },
        "referenceRange": [
          {
            "low": {
              "value": 98,
              "code": "mmol/L",
              "system": "http://unitsofmeasure.org"
            }
          },
          {
            "high": {
              "value": 110,
              "code": "mmol/L",
              "system": "http://unitsofmeasure.org"
            }
          }
        ],
        "text": {
          "status": "generated",
          "div": "<div xmlns=\"http://www.w3.org/1999/xhtml\"><table class=\"hl7__eu__lab__report\"><tr><th>Test</th><th>05-May-2022</th><th>Reference&#xA0;Range</th><th>Unit</th></tr><tr><td>Chloride [Moles/volume] in Serum or Plasma</td><td>104.9</td><td>98 - 110</td><td></td><td>mmol/L</td></tr></table></div>"
        },
        "status": "final",
        "subject": {
          "reference": "urn:uuid:c4604690-6b9c-4f96-9664-db08b124e367",
          "display": "Molly Jenkins"
        },
        "effectiveDateTime": "2022-05-05T14:42:11Z",
        "specimen": {
          "reference": "urn:uuid:c49b2836-dec9-48bf-b597-c2a75757af2a"
        }
      }
    },
    {
      "fullUrl": "urn:uuid:ee61e4d3-1778-4594-acce-ba445ad4133a",
      "resource": {
        "resourceType": "Observation",
        "id": "ee61e4d3-1778-4594-acce-ba445ad4133a",
        "meta": {
          "profile": [
            "http://hl7.eu/fhir/laboratory/StructureDefinition/Observation-resultslab-eu-lab"
          ]
        },
        "performer": [
          {
            "display": "The Central European Lab"
          }
        ],
        "category": [
          {
            "coding": [
              {
                "system": "http://terminology.hl7.org/CodeSystem/observation-category",
                "code": "laboratory"
              }
            ]
          }
        ],
        "code": {
          "coding": [
            {
              "code": "2028-9",
              "system": "http://loinc.org",
              "display": "Carbon dioxide, total [Moles/volume] in Serum or Plasma"
            }
          ],
          "text": "Carbon dioxide, total [Moles/volume] in Serum or Plasma"
        },
        "valueQuantity": {
          "system": "http://unitsofmeasure.org",
          "value": 20.2,
          "unit": "mmol/L",
          "code": "mmol/L"
        },
        "referenceRange": [
          {
            "low": {
              "value": 22,
              "code": "mmol/L",
              "system": "http://unitsofmeasure.org"
            }
          },
          {
            "high": {
              "value": 32,
              "code": "mmol/L",
              "system": "http://unitsofmeasure.org"
            }
          }
        ],
        "interpretation": [
          {
            "coding": [
              {
                "code": "L",
                "system": "http://terminology.hl7.org/CodeSystem/v3-ObservationInterpretation",
                "display": "Low"
              }
            ]
          }
        ],
        "text": {
          "status": "generated",
          "div": "<div xmlns=\"http://www.w3.org/1999/xhtml\"><table class=\"hl7__eu__lab__report\"><tr><th>Test</th><th>05-May-2022</th><th>Reference&#xA0;Range</th><th>Unit</th></tr><tr><td>Carbon dioxide, total [Moles/volume] in Serum or Plasma</td><td>20.2</td><td>22 - 32</td><td>L</td><td>mmol/L</td></tr></table></div>"
        },
        "status": "final",
        "subject": {
          "reference": "urn:uuid:c4604690-6b9c-4f96-9664-db08b124e367",
          "display": "Molly Jenkins"
        },
        "effectiveDateTime": "2022-05-05T14:42:11Z",
        "specimen": {
          "reference": "urn:uuid:c49b2836-dec9-48bf-b597-c2a75757af2a"
        }
      }
    },
    {
      "fullUrl": "urn:uuid:31321f43-4089-4ad3-abc0-1d052e8563a7",
      "resource": {
        "resourceType": "Observation",
        "id": "31321f43-4089-4ad3-abc0-1d052e8563a7",
        "meta": {
          "profile": [
            "http://hl7.eu/fhir/laboratory/StructureDefinition/Observation-resultslab-eu-lab"
          ]
        },
        "performer": [
          {
            "display": "The Central European Lab"
          }
        ],
        "category": [
          {
            "coding": [
              {
                "system": "http://terminology.hl7.org/CodeSystem/observation-category",
                "code": "laboratory"
              }
            ]
          }
        ],
        "code": {
          "coding": [
            {
              "code": "5767-9",
              "system": "http://loinc.org",
              "display": "Appearance of Urine"
            }
          ],
          "text": "Appearance of Urine"
        },
        "text": {
          "status": "generated",
          "div": "<div xmlns=\"http://www.w3.org/1999/xhtml\"><table class=\"hl7__eu__lab__report\"><tr><th>Test</th><th>05-May-2022</th><th>Reference&#xA0;Range</th><th>Unit</th></tr><tr><td>Appearance of Urine</td></tr></table></div>"
        },
        "status": "final",
        "subject": {
          "reference": "urn:uuid:c4604690-6b9c-4f96-9664-db08b124e367",
          "display": "Molly Jenkins"
        },
        "effectiveDateTime": "2022-05-05T14:42:11Z",
        "specimen": {
          "reference": "urn:uuid:badbf804-a15d-4a44-b988-a8b7ed22be75"
        }
      }
    },
    {
      "fullUrl": "urn:uuid:84e93a07-38b5-49fe-a5b2-6781fc7601a4",
      "resource": {
        "resourceType": "Observation",
        "id": "84e93a07-38b5-49fe-a5b2-6781fc7601a4",
        "meta": {
          "profile": [
            "http://hl7.eu/fhir/laboratory/StructureDefinition/Observation-resultslab-eu-lab"
          ]
        },
        "performer": [
          {
            "display": "The Central European Lab"
          }
        ],
        "category": [
          {
            "coding": [
              {
                "system": "http://terminology.hl7.org/CodeSystem/observation-category",
                "code": "laboratory"
              }
            ]
          }
        ],
        "code": {
          "coding": [
            {
              "code": "34533-0",
              "system": "http://loinc.org",
              "display": "Odor of Urine"
            }
          ],
          "text": "Odor of Urine"
        },
        "text": {
          "status": "generated",
          "div": "<div xmlns=\"http://www.w3.org/1999/xhtml\"><table class=\"hl7__eu__lab__report\"><tr><th>Test</th><th>05-May-2022</th><th>Reference&#xA0;Range</th><th>Unit</th></tr><tr><td>Odor of Urine</td></tr></table></div>"
        },
        "status": "final",
        "subject": {
          "reference": "urn:uuid:c4604690-6b9c-4f96-9664-db08b124e367",
          "display": "Molly Jenkins"
        },
        "effectiveDateTime": "2022-05-05T14:42:11Z",
        "specimen": {
          "reference": "urn:uuid:badbf804-a15d-4a44-b988-a8b7ed22be75"
        }
      }
    },
    {
      "fullUrl": "urn:uuid:e63dca8e-1769-495f-bc8b-1ca74a0cdbf9",
      "resource": {
        "resourceType": "Observation",
        "id": "e63dca8e-1769-495f-bc8b-1ca74a0cdbf9",
        "meta": {
          "profile": [
            "http://hl7.eu/fhir/laboratory/StructureDefinition/Observation-resultslab-eu-lab"
          ]
        },
        "performer": [
          {
            "display": "The Central European Lab"
          }
        ],
        "category": [
          {
            "coding": [
              {
                "system": "http://terminology.hl7.org/CodeSystem/observation-category",
                "code": "laboratory"
              }
            ]
          }
        ],
        "code": {
          "coding": [
            {
              "code": "32167-9",
              "system": "http://loinc.org",
              "display": "Clarity of Urine"
            }
          ],
          "text": "Clarity of Urine"
        },
        "text": {
          "status": "generated",
          "div": "<div xmlns=\"http://www.w3.org/1999/xhtml\"><table class=\"hl7__eu__lab__report\"><tr><th>Test</th><th>05-May-2022</th><th>Reference&#xA0;Range</th><th>Unit</th></tr><tr><td>Clarity of Urine</td></tr></table></div>"
        },
        "status": "final",
        "subject": {
          "reference": "urn:uuid:c4604690-6b9c-4f96-9664-db08b124e367",
          "display": "Molly Jenkins"
        },
        "effectiveDateTime": "2022-05-05T14:42:11Z",
        "specimen": {
          "reference": "urn:uuid:badbf804-a15d-4a44-b988-a8b7ed22be75"
        }
      }
    },
    {
      "fullUrl": "urn:uuid:5016b192-38a2-4f43-800c-9949b816dce2",
      "resource": {
        "resourceType": "Observation",
        "id": "5016b192-38a2-4f43-800c-9949b816dce2",
        "meta": {
          "profile": [
            "http://hl7.eu/fhir/laboratory/StructureDefinition/Observation-resultslab-eu-lab"
          ]
        },
        "performer": [
          {
            "display": "The Central European Lab"
          }
        ],
        "category": [
          {
            "coding": [
              {
                "system": "http://terminology.hl7.org/CodeSystem/observation-category",
                "code": "laboratory"
              }
            ]
          }
        ],
        "code": {
          "coding": [
            {
              "code": "5778-6",
              "system": "http://loinc.org",
              "display": "Color of Urine"
            }
          ],
          "text": "Color of Urine"
        },
        "text": {
          "status": "generated",
          "div": "<div xmlns=\"http://www.w3.org/1999/xhtml\"><table class=\"hl7__eu__lab__report\"><tr><th>Test</th><th>05-May-2022</th><th>Reference&#xA0;Range</th><th>Unit</th></tr><tr><td>Color of Urine</td></tr></table></div>"
        },
        "status": "final",
        "subject": {
          "reference": "urn:uuid:c4604690-6b9c-4f96-9664-db08b124e367",
          "display": "Molly Jenkins"
        },
        "effectiveDateTime": "2022-05-05T14:42:11Z",
        "specimen": {
          "reference": "urn:uuid:badbf804-a15d-4a44-b988-a8b7ed22be75"
        }
      }
    },
    {
      "fullUrl": "urn:uuid:2356645d-65bd-4e2c-9740-fa7add50c459",
      "resource": {
        "resourceType": "Observation",
        "id": "2356645d-65bd-4e2c-9740-fa7add50c459",
        "meta": {
          "profile": [
            "http://hl7.eu/fhir/laboratory/StructureDefinition/Observation-resultslab-eu-lab"
          ]
        },
        "performer": [
          {
            "display": "The Central European Lab"
          }
        ],
        "category": [
          {
            "coding": [
              {
                "system": "http://terminology.hl7.org/CodeSystem/observation-category",
                "code": "laboratory"
              }
            ]
          }
        ],
        "code": {
          "coding": [
            {
              "code": "5792-7",
              "system": "http://loinc.org",
              "display": "Glucose [Mass/volume] in Urine by Test strip"
            }
          ],
          "text": "Glucose [Mass/volume] in Urine by Test strip"
        },
        "valueQuantity": {
          "system": "http://unitsofmeasure.org",
          "value": 0.8,
          "unit": "mg/dL",
          "code": "mg/dL"
        },
        "referenceRange": [
          {
            "low": {
              "value": 0,
              "code": "mg/dL",
              "system": "http://unitsofmeasure.org"
            }
          },
          {
            "high": {
              "value": 0,
              "code": "mg/dL",
              "system": "http://unitsofmeasure.org"
            }
          }
        ],
        "interpretation": [
          {
            "coding": [
              {
                "code": "H",
                "system": "http://terminology.hl7.org/CodeSystem/v3-ObservationInterpretation",
                "display": "High"
              }
            ]
          }
        ],
        "text": {
          "status": "generated",
          "div": "<div xmlns=\"http://www.w3.org/1999/xhtml\"><table class=\"hl7__eu__lab__report\"><tr><th>Test</th><th>05-May-2022</th><th>Reference&#xA0;Range</th><th>Unit</th></tr><tr><td>Glucose [Mass/volume] in Urine by Test strip</td><td>0.8</td><td>0 - 0</td><td>H</td><td>mg/dL</td></tr></table></div>"
        },
        "status": "final",
        "subject": {
          "reference": "urn:uuid:c4604690-6b9c-4f96-9664-db08b124e367",
          "display": "Molly Jenkins"
        },
        "effectiveDateTime": "2022-05-05T14:42:11Z",
        "specimen": {
          "reference": "urn:uuid:badbf804-a15d-4a44-b988-a8b7ed22be75"
        }
      }
    },
    {
      "fullUrl": "urn:uuid:b6a86e55-a89b-4868-93a2-9b1f0e7e8f1b",
      "resource": {
        "resourceType": "Observation",
        "id": "b6a86e55-a89b-4868-93a2-9b1f0e7e8f1b",
        "meta": {
          "profile": [
            "http://hl7.eu/fhir/laboratory/StructureDefinition/Observation-resultslab-eu-lab"
          ]
        },
        "performer": [
          {
            "display": "The Central European Lab"
          }
        ],
        "category": [
          {
            "coding": [
              {
                "system": "http://terminology.hl7.org/CodeSystem/observation-category",
                "code": "laboratory"
              }
            ]
          }
        ],
        "code": {
          "coding": [
            {
              "code": "25428-4",
              "system": "http://loinc.org",
              "display": "Glucose [Presence] in Urine by Test strip"
            }
          ],
          "text": "Glucose [Presence] in Urine by Test strip"
        },
        "text": {
          "status": "generated",
          "div": "<div xmlns=\"http://www.w3.org/1999/xhtml\"><table class=\"hl7__eu__lab__report\"><tr><th>Test</th><th>05-May-2022</th><th>Reference&#xA0;Range</th><th>Unit</th></tr><tr><td>Glucose [Presence] in Urine by Test strip</td></tr></table></div>"
        },
        "status": "final",
        "subject": {
          "reference": "urn:uuid:c4604690-6b9c-4f96-9664-db08b124e367",
          "display": "Molly Jenkins"
        },
        "effectiveDateTime": "2022-05-05T14:42:11Z",
        "specimen": {
          "reference": "urn:uuid:badbf804-a15d-4a44-b988-a8b7ed22be75"
        }
      }
    },
    {
      "fullUrl": "urn:uuid:8fc0a050-d367-4b5c-a413-8c348eb645fc",
      "resource": {
        "resourceType": "Observation",
        "id": "8fc0a050-d367-4b5c-a413-8c348eb645fc",
        "meta": {
          "profile": [
            "http://hl7.eu/fhir/laboratory/StructureDefinition/Observation-resultslab-eu-lab"
          ]
        },
        "performer": [
          {
            "display": "The Central European Lab"
          }
        ],
        "category": [
          {
            "coding": [
              {
                "system": "http://terminology.hl7.org/CodeSystem/observation-category",
                "code": "laboratory"
              }
            ]
          }
        ],
        "code": {
          "coding": [
            {
              "code": "20505-4",
              "system": "http://loinc.org",
              "display": "Bilirubin.total [Mass/volume] in Urine by Test strip"
            }
          ],
          "text": "Bilirubin.total [Mass/volume] in Urine by Test strip"
        },
        "valueQuantity": {
          "system": "http://unitsofmeasure.org",
          "value": 1.3,
          "unit": "mg/dL",
          "code": "mg/dL"
        },
        "referenceRange": [
          {
            "low": {
              "value": 0,
              "code": "mg/dL",
              "system": "http://unitsofmeasure.org"
            }
          },
          {
            "high": {
              "value": 1.6,
              "code": "mg/dL",
              "system": "http://unitsofmeasure.org"
            }
          }
        ],
        "text": {
          "status": "generated",
          "div": "<div xmlns=\"http://www.w3.org/1999/xhtml\"><table class=\"hl7__eu__lab__report\"><tr><th>Test</th><th>05-May-2022</th><th>Reference&#xA0;Range</th><th>Unit</th></tr><tr><td>Bilirubin.total [Mass/volume] in Urine by Test strip</td><td>1.3</td><td>0 - 1.6</td><td></td><td>mg/dL</td></tr></table></div>"
        },
        "status": "final",
        "subject": {
          "reference": "urn:uuid:c4604690-6b9c-4f96-9664-db08b124e367",
          "display": "Molly Jenkins"
        },
        "effectiveDateTime": "2022-05-05T14:42:11Z",
        "specimen": {
          "reference": "urn:uuid:badbf804-a15d-4a44-b988-a8b7ed22be75"
        }
      }
    },
    {
      "fullUrl": "urn:uuid:7407dc82-c6cc-4839-b5a5-0c605f157334",
      "resource": {
        "resourceType": "Observation",
        "id": "7407dc82-c6cc-4839-b5a5-0c605f157334",
        "meta": {
          "profile": [
            "http://hl7.eu/fhir/laboratory/StructureDefinition/Observation-resultslab-eu-lab"
          ]
        },
        "performer": [
          {
            "display": "The Central European Lab"
          }
        ],
        "category": [
          {
            "coding": [
              {
                "system": "http://terminology.hl7.org/CodeSystem/observation-category",
                "code": "laboratory"
              }
            ]
          }
        ],
        "code": {
          "coding": [
            {
              "code": "5770-3",
              "system": "http://loinc.org",
              "display": "Bilirubin.total [Presence] in Urine by Test strip"
            }
          ],
          "text": "Bilirubin.total [Presence] in Urine by Test strip"
        },
        "text": {
          "status": "generated",
          "div": "<div xmlns=\"http://www.w3.org/1999/xhtml\"><table class=\"hl7__eu__lab__report\"><tr><th>Test</th><th>05-May-2022</th><th>Reference&#xA0;Range</th><th>Unit</th></tr><tr><td>Bilirubin.total [Presence] in Urine by Test strip</td></tr></table></div>"
        },
        "status": "final",
        "subject": {
          "reference": "urn:uuid:c4604690-6b9c-4f96-9664-db08b124e367",
          "display": "Molly Jenkins"
        },
        "effectiveDateTime": "2022-05-05T14:42:11Z",
        "specimen": {
          "reference": "urn:uuid:badbf804-a15d-4a44-b988-a8b7ed22be75"
        }
      }
    },
    {
      "fullUrl": "urn:uuid:2e752551-071b-48d5-9d8c-e78e9647ca97",
      "resource": {
        "resourceType": "Observation",
        "id": "2e752551-071b-48d5-9d8c-e78e9647ca97",
        "meta": {
          "profile": [
            "http://hl7.eu/fhir/laboratory/StructureDefinition/Observation-resultslab-eu-lab"
          ]
        },
        "performer": [
          {
            "display": "The Central European Lab"
          }
        ],
        "category": [
          {
            "coding": [
              {
                "system": "http://terminology.hl7.org/CodeSystem/observation-category",
                "code": "laboratory"
              }
            ]
          }
        ],
        "code": {
          "coding": [
            {
              "code": "5797-6",
              "system": "http://loinc.org",
              "display": "Ketones [Mass/volume] in Urine by Test strip"
            }
          ],
          "text": "Ketones [Mass/volume] in Urine by Test strip"
        },
        "valueQuantity": {
          "system": "http://unitsofmeasure.org",
          "value": 13.4,
          "unit": "mg/dL",
          "code": "mg/dL"
        },
        "referenceRange": [
          {
            "low": {
              "value": 0,
              "code": "mg/dL",
              "system": "http://unitsofmeasure.org"
            }
          },
          {
            "high": {
              "value": 0.5,
              "code": "mg/dL",
              "system": "http://unitsofmeasure.org"
            }
          }
        ],
        "interpretation": [
          {
            "coding": [
              {
                "code": "H",
                "system": "http://terminology.hl7.org/CodeSystem/v3-ObservationInterpretation",
                "display": "High"
              }
            ]
          }
        ],
        "text": {
          "status": "generated",
          "div": "<div xmlns=\"http://www.w3.org/1999/xhtml\"><table class=\"hl7__eu__lab__report\"><tr><th>Test</th><th>05-May-2022</th><th>Reference&#xA0;Range</th><th>Unit</th></tr><tr><td>Ketones [Mass/volume] in Urine by Test strip</td><td>13.4</td><td>0 - 0.5</td><td>H</td><td>mg/dL</td></tr></table></div>"
        },
        "status": "final",
        "subject": {
          "reference": "urn:uuid:c4604690-6b9c-4f96-9664-db08b124e367",
          "display": "Molly Jenkins"
        },
        "effectiveDateTime": "2022-05-05T14:42:11Z",
        "specimen": {
          "reference": "urn:uuid:badbf804-a15d-4a44-b988-a8b7ed22be75"
        }
      }
    },
    {
      "fullUrl": "urn:uuid:26933375-af70-4953-9c26-ac323a6b2bfe",
      "resource": {
        "resourceType": "Observation",
        "id": "26933375-af70-4953-9c26-ac323a6b2bfe",
        "meta": {
          "profile": [
            "http://hl7.eu/fhir/laboratory/StructureDefinition/Observation-resultslab-eu-lab"
          ]
        },
        "performer": [
          {
            "display": "The Central European Lab"
          }
        ],
        "category": [
          {
            "coding": [
              {
                "system": "http://terminology.hl7.org/CodeSystem/observation-category",
                "code": "laboratory"
              }
            ]
          }
        ],
        "code": {
          "coding": [
            {
              "code": "2514-8",
              "system": "http://loinc.org",
              "display": "Ketones [Presence] in Urine by Test strip"
            }
          ],
          "text": "Ketones [Presence] in Urine by Test strip"
        },
        "text": {
          "status": "generated",
          "div": "<div xmlns=\"http://www.w3.org/1999/xhtml\"><table class=\"hl7__eu__lab__report\"><tr><th>Test</th><th>05-May-2022</th><th>Reference&#xA0;Range</th><th>Unit</th></tr><tr><td>Ketones [Presence] in Urine by Test strip</td></tr></table></div>"
        },
        "status": "final",
        "subject": {
          "reference": "urn:uuid:c4604690-6b9c-4f96-9664-db08b124e367",
          "display": "Molly Jenkins"
        },
        "effectiveDateTime": "2022-05-05T14:42:11Z",
        "specimen": {
          "reference": "urn:uuid:badbf804-a15d-4a44-b988-a8b7ed22be75"
        }
      }
    },
    {
      "fullUrl": "urn:uuid:8fa4e792-e1f1-4a5f-a1ed-ca838abb5a61",
      "resource": {
        "resourceType": "Observation",
        "id": "8fa4e792-e1f1-4a5f-a1ed-ca838abb5a61",
        "meta": {
          "profile": [
            "http://hl7.eu/fhir/laboratory/StructureDefinition/Observation-resultslab-eu-lab"
          ]
        },
        "performer": [
          {
            "display": "The Central European Lab"
          }
        ],
        "category": [
          {
            "coding": [
              {
                "system": "http://terminology.hl7.org/CodeSystem/observation-category",
                "code": "laboratory"
              }
            ]
          }
        ],
        "code": {
          "coding": [
            {
              "code": "5811-5",
              "system": "http://loinc.org",
              "display": "Specific gravity of Urine by Test strip"
            }
          ],
          "text": "Specific gravity of Urine by Test strip"
        },
        "valueQuantity": {
          "system": "http://unitsofmeasure.org",
          "value": 1,
          "unit": "{nominal}",
          "code": "{nominal}"
        },
        "referenceRange": [
          {
            "low": {
              "value": 1.005,
              "code": "g/mL",
              "system": "http://unitsofmeasure.org"
            }
          },
          {
            "high": {
              "value": 1.03,
              "code": "g/mL",
              "system": "http://unitsofmeasure.org"
            }
          }
        ],
        "interpretation": [
          {
            "coding": [
              {
                "code": "L",
                "system": "http://terminology.hl7.org/CodeSystem/v3-ObservationInterpretation",
                "display": "Low"
              }
            ]
          }
        ],
        "text": {
          "status": "generated",
          "div": "<div xmlns=\"http://www.w3.org/1999/xhtml\"><table class=\"hl7__eu__lab__report\"><tr><th>Test</th><th>05-May-2022</th><th>Reference&#xA0;Range</th><th>Unit</th></tr><tr><td>Specific gravity of Urine by Test strip</td><td>1.0</td><td>1.005 - 1.03</td><td>L</td><td>{nominal}</td></tr></table></div>"
        },
        "status": "final",
        "subject": {
          "reference": "urn:uuid:c4604690-6b9c-4f96-9664-db08b124e367",
          "display": "Molly Jenkins"
        },
        "effectiveDateTime": "2022-05-05T14:42:11Z",
        "specimen": {
          "reference": "urn:uuid:badbf804-a15d-4a44-b988-a8b7ed22be75"
        }
      }
    },
    {
      "fullUrl": "urn:uuid:0e0b3b56-ab1e-4865-9ace-c1d3fcd75467",
      "resource": {
        "resourceType": "Observation",
        "id": "0e0b3b56-ab1e-4865-9ace-c1d3fcd75467",
        "meta": {
          "profile": [
            "http://hl7.eu/fhir/laboratory/StructureDefinition/Observation-resultslab-eu-lab"
          ]
        },
        "performer": [
          {
            "display": "The Central European Lab"
          }
        ],
        "category": [
          {
            "coding": [
              {
                "system": "http://terminology.hl7.org/CodeSystem/observation-category",
                "code": "laboratory"
              }
            ]
          }
        ],
        "code": {
          "coding": [
            {
              "code": "5803-2",
              "system": "http://loinc.org",
              "display": "pH of Urine by Test strip"
            }
          ],
          "text": "pH of Urine by Test strip"
        },
        "valueQuantity": {
          "system": "http://unitsofmeasure.org",
          "value": 6,
          "unit": "pH",
          "code": "pH"
        },
        "referenceRange": [
          {
            "low": {
              "value": 4.5,
              "code": "pH",
              "system": "http://unitsofmeasure.org"
            }
          },
          {
            "high": {
              "value": 7.5,
              "code": "pH",
              "system": "http://unitsofmeasure.org"
            }
          }
        ],
        "text": {
          "status": "generated",
          "div": "<div xmlns=\"http://www.w3.org/1999/xhtml\"><table class=\"hl7__eu__lab__report\"><tr><th>Test</th><th>05-May-2022</th><th>Reference&#xA0;Range</th><th>Unit</th></tr><tr><td>pH of Urine by Test strip</td><td>6.0</td><td>4.5 - 7.5</td><td></td><td>pH</td></tr></table></div>"
        },
        "status": "final",
        "subject": {
          "reference": "urn:uuid:c4604690-6b9c-4f96-9664-db08b124e367",
          "display": "Molly Jenkins"
        },
        "effectiveDateTime": "2022-05-05T14:42:11Z",
        "specimen": {
          "reference": "urn:uuid:badbf804-a15d-4a44-b988-a8b7ed22be75"
        }
      }
    },
    {
      "fullUrl": "urn:uuid:461a2ef1-ae92-458d-91ad-6129086ab3f2",
      "resource": {
        "resourceType": "Observation",
        "id": "461a2ef1-ae92-458d-91ad-6129086ab3f2",
        "meta": {
          "profile": [
            "http://hl7.eu/fhir/laboratory/StructureDefinition/Observation-resultslab-eu-lab"
          ]
        },
        "performer": [
          {
            "display": "The Central European Lab"
          }
        ],
        "category": [
          {
            "coding": [
              {
                "system": "http://terminology.hl7.org/CodeSystem/observation-category",
                "code": "laboratory"
              }
            ]
          }
        ],
        "code": {
          "coding": [
            {
              "code": "5804-0",
              "system": "http://loinc.org",
              "display": "Protein [Mass/volume] in Urine by Test strip"
            }
          ],
          "text": "Protein [Mass/volume] in Urine by Test strip"
        },
        "valueQuantity": {
          "system": "http://unitsofmeasure.org",
          "value": 301.9,
          "unit": "mg/dL",
          "code": "mg/dL"
        },
        "referenceRange": [
          {
            "low": {
              "value": 0,
              "code": "mg/dL",
              "system": "http://unitsofmeasure.org"
            }
          },
          {
            "high": {
              "value": 15,
              "code": "mg/dL",
              "system": "http://unitsofmeasure.org"
            }
          }
        ],
        "interpretation": [
          {
            "coding": [
              {
                "code": "H",
                "system": "http://terminology.hl7.org/CodeSystem/v3-ObservationInterpretation",
                "display": "High"
              }
            ]
          }
        ],
        "text": {
          "status": "generated",
          "div": "<div xmlns=\"http://www.w3.org/1999/xhtml\"><table class=\"hl7__eu__lab__report\"><tr><th>Test</th><th>05-May-2022</th><th>Reference&#xA0;Range</th><th>Unit</th></tr><tr><td>Protein [Mass/volume] in Urine by Test strip</td><td>301.9</td><td>0 - 15</td><td>H</td><td>mg/dL</td></tr></table></div>"
        },
        "status": "final",
        "subject": {
          "reference": "urn:uuid:c4604690-6b9c-4f96-9664-db08b124e367",
          "display": "Molly Jenkins"
        },
        "effectiveDateTime": "2022-05-05T14:42:11Z",
        "specimen": {
          "reference": "urn:uuid:badbf804-a15d-4a44-b988-a8b7ed22be75"
        }
      }
    },
    {
      "fullUrl": "urn:uuid:72d44fd5-c4ce-49a8-97d4-86a5fbaded5e",
      "resource": {
        "resourceType": "Observation",
        "id": "72d44fd5-c4ce-49a8-97d4-86a5fbaded5e",
        "meta": {
          "profile": [
            "http://hl7.eu/fhir/laboratory/StructureDefinition/Observation-resultslab-eu-lab"
          ]
        },
        "performer": [
          {
            "display": "The Central European Lab"
          }
        ],
        "category": [
          {
            "coding": [
              {
                "system": "http://terminology.hl7.org/CodeSystem/observation-category",
                "code": "laboratory"
              }
            ]
          }
        ],
        "code": {
          "coding": [
            {
              "code": "20454-5",
              "system": "http://loinc.org",
              "display": "Protein [Presence] in Urine by Test strip"
            }
          ],
          "text": "Protein [Presence] in Urine by Test strip"
        },
        "text": {
          "status": "generated",
          "div": "<div xmlns=\"http://www.w3.org/1999/xhtml\"><table class=\"hl7__eu__lab__report\"><tr><th>Test</th><th>05-May-2022</th><th>Reference&#xA0;Range</th><th>Unit</th></tr><tr><td>Protein [Presence] in Urine by Test strip</td></tr></table></div>"
        },
        "status": "final",
        "subject": {
          "reference": "urn:uuid:c4604690-6b9c-4f96-9664-db08b124e367",
          "display": "Molly Jenkins"
        },
        "effectiveDateTime": "2022-05-05T14:42:11Z",
        "specimen": {
          "reference": "urn:uuid:badbf804-a15d-4a44-b988-a8b7ed22be75"
        }
      }
    },
    {
      "fullUrl": "urn:uuid:40f770cc-d0a1-4c33-8382-77f329013dd0",
      "resource": {
        "resourceType": "Observation",
        "id": "40f770cc-d0a1-4c33-8382-77f329013dd0",
        "meta": {
          "profile": [
            "http://hl7.eu/fhir/laboratory/StructureDefinition/Observation-resultslab-eu-lab"
          ]
        },
        "performer": [
          {
            "display": "The Central European Lab"
          }
        ],
        "category": [
          {
            "coding": [
              {
                "system": "http://terminology.hl7.org/CodeSystem/observation-category",
                "code": "laboratory"
              }
            ]
          }
        ],
        "code": {
          "coding": [
            {
              "code": "5802-4",
              "system": "http://loinc.org",
              "display": "Nitrite [Presence] in Urine by Test strip"
            }
          ],
          "text": "Nitrite [Presence] in Urine by Test strip"
        },
        "text": {
          "status": "generated",
          "div": "<div xmlns=\"http://www.w3.org/1999/xhtml\"><table class=\"hl7__eu__lab__report\"><tr><th>Test</th><th>05-May-2022</th><th>Reference&#xA0;Range</th><th>Unit</th></tr><tr><td>Nitrite [Presence] in Urine by Test strip</td></tr></table></div>"
        },
        "status": "final",
        "subject": {
          "reference": "urn:uuid:c4604690-6b9c-4f96-9664-db08b124e367",
          "display": "Molly Jenkins"
        },
        "effectiveDateTime": "2022-05-05T14:42:11Z",
        "specimen": {
          "reference": "urn:uuid:badbf804-a15d-4a44-b988-a8b7ed22be75"
        }
      }
    },
    {
      "fullUrl": "urn:uuid:a263c018-911f-4640-8b06-6cd7642683f2",
      "resource": {
        "resourceType": "Observation",
        "id": "a263c018-911f-4640-8b06-6cd7642683f2",
        "meta": {
          "profile": [
            "http://hl7.eu/fhir/laboratory/StructureDefinition/Observation-resultslab-eu-lab"
          ]
        },
        "performer": [
          {
            "display": "The Central European Lab"
          }
        ],
        "category": [
          {
            "coding": [
              {
                "system": "http://terminology.hl7.org/CodeSystem/observation-category",
                "code": "laboratory"
              }
            ]
          }
        ],
        "code": {
          "coding": [
            {
              "code": "5794-3",
              "system": "http://loinc.org",
              "display": "Hemoglobin [Presence] in Urine by Test strip"
            }
          ],
          "text": "Hemoglobin [Presence] in Urine by Test strip"
        },
        "text": {
          "status": "generated",
          "div": "<div xmlns=\"http://www.w3.org/1999/xhtml\"><table class=\"hl7__eu__lab__report\"><tr><th>Test</th><th>05-May-2022</th><th>Reference&#xA0;Range</th><th>Unit</th></tr><tr><td>Hemoglobin [Presence] in Urine by Test strip</td></tr></table></div>"
        },
        "status": "final",
        "subject": {
          "reference": "urn:uuid:c4604690-6b9c-4f96-9664-db08b124e367",
          "display": "Molly Jenkins"
        },
        "effectiveDateTime": "2022-05-05T14:42:11Z",
        "specimen": {
          "reference": "urn:uuid:badbf804-a15d-4a44-b988-a8b7ed22be75"
        }
      }
    },
    {
      "fullUrl": "urn:uuid:2b5d6435-94bb-4c6c-b30b-70e7388563b3",
      "resource": {
        "resourceType": "Observation",
        "id": "2b5d6435-94bb-4c6c-b30b-70e7388563b3",
        "meta": {
          "profile": [
            "http://hl7.eu/fhir/laboratory/StructureDefinition/Observation-resultslab-eu-lab"
          ]
        },
        "performer": [
          {
            "display": "The Central European Lab"
          }
        ],
        "category": [
          {
            "coding": [
              {
                "system": "http://terminology.hl7.org/CodeSystem/observation-category",
                "code": "laboratory"
              }
            ]
          }
        ],
        "code": {
          "coding": [
            {
              "code": "5799-2",
              "system": "http://loinc.org",
              "display": "Leukocyte esterase [Presence] in Urine by Test strip"
            }
          ],
          "text": "Leukocyte esterase [Presence] in Urine by Test strip"
        },
        "text": {
          "status": "generated",
          "div": "<div xmlns=\"http://www.w3.org/1999/xhtml\"><table class=\"hl7__eu__lab__report\"><tr><th>Test</th><th>05-May-2022</th><th>Reference&#xA0;Range</th><th>Unit</th></tr><tr><td>Leukocyte esterase [Presence] in Urine by Test strip</td></tr></table></div>"
        },
        "status": "final",
        "subject": {
          "reference": "urn:uuid:c4604690-6b9c-4f96-9664-db08b124e367",
          "display": "Molly Jenkins"
        },
        "effectiveDateTime": "2022-05-05T14:42:11Z",
        "specimen": {
          "reference": "urn:uuid:badbf804-a15d-4a44-b988-a8b7ed22be75"
        }
      }
    },
    {
      "fullUrl": "urn:uuid:841e1858-cc24-46f9-8606-82665e40652c",
      "resource": {
        "resourceType": "Observation",
        "id": "841e1858-cc24-46f9-8606-82665e40652c",
        "meta": {
          "profile": [
            "http://hl7.eu/fhir/laboratory/StructureDefinition/Observation-resultslab-eu-lab"
          ]
        },
        "performer": [
          {
            "display": "The Central European Lab"
          }
        ],
        "category": [
          {
            "coding": [
              {
                "system": "http://terminology.hl7.org/CodeSystem/observation-category",
                "code": "laboratory"
              }
            ]
          }
        ],
        "code": {
          "coding": [
            {
              "code": "4548-4",
              "system": "http://loinc.org",
              "display": "Hemoglobin A1c/Hemoglobin.total in Blood"
            }
          ],
          "text": "Hemoglobin A1c/Hemoglobin.total in Blood"
        },
        "valueQuantity": {
          "system": "http://unitsofmeasure.org",
          "value": 3.3,
          "unit": "%",
          "code": "%"
        },
        "referenceRange": [
          {
            "low": {
              "value": 4,
              "code": "%",
              "system": "http://unitsofmeasure.org"
            }
          },
          {
            "high": {
              "value": 6,
              "code": "%",
              "system": "http://unitsofmeasure.org"
            }
          }
        ],
        "interpretation": [
          {
            "coding": [
              {
                "code": "L",
                "system": "http://terminology.hl7.org/CodeSystem/v3-ObservationInterpretation",
                "display": "Low"
              }
            ]
          }
        ],
        "text": {
          "status": "generated",
          "div": "<div xmlns=\"http://www.w3.org/1999/xhtml\"><table class=\"hl7__eu__lab__report\"><tr><th>Test</th><th>05-May-2022</th><th>Reference&#xA0;Range</th><th>Unit</th></tr><tr><td>Hemoglobin A1c/Hemoglobin.total in Blood</td><td>3.3</td><td>4 - 6</td><td>L</td><td>%</td></tr></table></div>"
        },
        "status": "final",
        "subject": {
          "reference": "urn:uuid:c4604690-6b9c-4f96-9664-db08b124e367",
          "display": "Molly Jenkins"
        },
        "effectiveDateTime": "2022-05-05T14:42:11Z",
        "specimen": {
          "reference": "urn:uuid:fa855da6-28e2-4661-b308-5259c7ce7cf1"
        }
      }
    },
    {
      "fullUrl": "urn:uuid:b23286c6-c534-4851-bb60-d24bc943f137",
      "resource": {
        "resourceType": "Observation",
        "id": "b23286c6-c534-4851-bb60-d24bc943f137",
        "meta": {
          "profile": [
            "http://hl7.eu/fhir/laboratory/StructureDefinition/Observation-resultslab-eu-lab"
          ]
        },
        "performer": [
          {
            "display": "The Central European Lab"
          }
        ],
        "category": [
          {
            "coding": [
              {
                "system": "http://terminology.hl7.org/CodeSystem/observation-category",
                "code": "laboratory"
              }
            ]
          }
        ],
        "code": {
          "coding": [
            {
              "code": "2339-0",
              "system": "http://loinc.org",
              "display": "Glucose [Mass/volume] in Blood"
            }
          ],
          "text": "Glucose [Mass/volume] in Blood"
        },
        "valueQuantity": {
          "system": "http://unitsofmeasure.org",
          "value": 92.8,
          "unit": "mg/dL",
          "code": "mg/dL"
        },
        "referenceRange": [
          {
            "low": {
              "value": 70,
              "code": "mg/dL",
              "system": "http://unitsofmeasure.org"
            }
          },
          {
            "high": {
              "value": 100,
              "code": "mg/dL",
              "system": "http://unitsofmeasure.org"
            }
          }
        ],
        "text": {
          "status": "generated",
          "div": "<div xmlns=\"http://www.w3.org/1999/xhtml\"><table class=\"hl7__eu__lab__report\"><tr><th>Test</th><th>05-May-2022</th><th>Reference&#xA0;Range</th><th>Unit</th></tr><tr><td>Glucose [Mass/volume] in Blood</td><td>92.8</td><td>70 - 100</td><td></td><td>mg/dL</td></tr></table></div>"
        },
        "status": "final",
        "subject": {
          "reference": "urn:uuid:c4604690-6b9c-4f96-9664-db08b124e367",
          "display": "Molly Jenkins"
        },
        "effectiveDateTime": "2022-05-05T14:42:11Z",
        "specimen": {
          "reference": "urn:uuid:fa855da6-28e2-4661-b308-5259c7ce7cf1"
        }
      }
    },
    {
      "fullUrl": "urn:uuid:18381e7c-4474-4c36-81f9-31137dd44a57",
      "resource": {
        "resourceType": "Observation",
        "id": "18381e7c-4474-4c36-81f9-31137dd44a57",
        "meta": {
          "profile": [
            "http://hl7.eu/fhir/laboratory/StructureDefinition/Observation-resultslab-eu-lab"
          ]
        },
        "performer": [
          {
            "display": "The Central European Lab"
          }
        ],
        "category": [
          {
            "coding": [
              {
                "system": "http://terminology.hl7.org/CodeSystem/observation-category",
                "code": "laboratory"
              }
            ]
          }
        ],
        "code": {
          "coding": [
            {
              "code": "6299-2",
              "system": "http://loinc.org",
              "display": "Urea nitrogen [Mass/volume] in Blood"
            }
          ],
          "text": "Urea nitrogen [Mass/volume] in Blood"
        },
        "valueQuantity": {
          "system": "http://unitsofmeasure.org",
          "value": 19.4,
          "unit": "mg/dL",
          "code": "mg/dL"
        },
        "referenceRange": [
          {
            "low": {
              "value": 7,
              "code": "mg/dL",
              "system": "http://unitsofmeasure.org"
            }
          },
          {
            "high": {
              "value": 20,
              "code": "mg/dL",
              "system": "http://unitsofmeasure.org"
            }
          }
        ],
        "text": {
          "status": "generated",
          "div": "<div xmlns=\"http://www.w3.org/1999/xhtml\"><table class=\"hl7__eu__lab__report\"><tr><th>Test</th><th>05-May-2022</th><th>Reference&#xA0;Range</th><th>Unit</th></tr><tr><td>Urea nitrogen [Mass/volume] in Blood</td><td>19.4</td><td>7 - 20</td><td></td><td>mg/dL</td></tr></table></div>"
        },
        "status": "final",
        "subject": {
          "reference": "urn:uuid:c4604690-6b9c-4f96-9664-db08b124e367",
          "display": "Molly Jenkins"
        },
        "effectiveDateTime": "2022-05-05T14:42:11Z",
        "specimen": {
          "reference": "urn:uuid:fa855da6-28e2-4661-b308-5259c7ce7cf1"
        }
      }
    },
    {
      "fullUrl": "urn:uuid:cd1edc21-37a6-4113-bb51-5ff30568a30f",
      "resource": {
        "resourceType": "Observation",
        "id": "cd1edc21-37a6-4113-bb51-5ff30568a30f",
        "meta": {
          "profile": [
            "http://hl7.eu/fhir/laboratory/StructureDefinition/Observation-resultslab-eu-lab"
          ]
        },
        "performer": [
          {
            "display": "The Central European Lab"
          }
        ],
        "category": [
          {
            "coding": [
              {
                "system": "http://terminology.hl7.org/CodeSystem/observation-category",
                "code": "laboratory"
              }
            ]
          }
        ],
        "code": {
          "coding": [
            {
              "code": "38483-4",
              "system": "http://loinc.org",
              "display": "Creatinine [Mass/volume] in Blood"
            }
          ],
          "text": "Creatinine [Mass/volume] in Blood"
        },
        "valueQuantity": {
          "system": "http://unitsofmeasure.org",
          "value": 1.4,
          "unit": "mg/dL",
          "code": "mg/dL"
        },
        "referenceRange": [
          {
            "low": {
              "value": 0.6,
              "code": "mg/dL",
              "system": "http://unitsofmeasure.org"
            }
          },
          {
            "high": {
              "value": 1.3,
              "code": "mg/dL",
              "system": "http://unitsofmeasure.org"
            }
          }
        ],
        "interpretation": [
          {
            "coding": [
              {
                "code": "H",
                "system": "http://terminology.hl7.org/CodeSystem/v3-ObservationInterpretation",
                "display": "High"
              }
            ]
          }
        ],
        "text": {
          "status": "generated",
          "div": "<div xmlns=\"http://www.w3.org/1999/xhtml\"><table class=\"hl7__eu__lab__report\"><tr><th>Test</th><th>05-May-2022</th><th>Reference&#xA0;Range</th><th>Unit</th></tr><tr><td>Creatinine [Mass/volume] in Blood</td><td>1.4</td><td>0.6 - 1.3</td><td>H</td><td>mg/dL</td></tr></table></div>"
        },
        "status": "final",
        "subject": {
          "reference": "urn:uuid:c4604690-6b9c-4f96-9664-db08b124e367",
          "display": "Molly Jenkins"
        },
        "effectiveDateTime": "2022-05-05T14:42:11Z",
        "specimen": {
          "reference": "urn:uuid:fa855da6-28e2-4661-b308-5259c7ce7cf1"
        }
      }
    },
    {
      "fullUrl": "urn:uuid:0282cb63-7842-42dd-8589-d354cd8be4b5",
      "resource": {
        "resourceType": "Observation",
        "id": "0282cb63-7842-42dd-8589-d354cd8be4b5",
        "meta": {
          "profile": [
            "http://hl7.eu/fhir/laboratory/StructureDefinition/Observation-resultslab-eu-lab"
          ]
        },
        "performer": [
          {
            "display": "The Central European Lab"
          }
        ],
        "category": [
          {
            "coding": [
              {
                "system": "http://terminology.hl7.org/CodeSystem/observation-category",
                "code": "laboratory"
              }
            ]
          }
        ],
        "code": {
          "coding": [
            {
              "code": "49765-1",
              "system": "http://loinc.org",
              "display": "Calcium [Mass/volume] in Blood"
            }
          ],
          "text": "Calcium [Mass/volume] in Blood"
        },
        "valueQuantity": {
          "system": "http://unitsofmeasure.org",
          "value": 8.9,
          "unit": "mg/dL",
          "code": "mg/dL"
        },
        "referenceRange": [
          {
            "low": {
              "value": 8.6,
              "code": "mg/dL",
              "system": "http://unitsofmeasure.org"
            }
          },
          {
            "high": {
              "value": 10.4,
              "code": "mg/dL",
              "system": "http://unitsofmeasure.org"
            }
          }
        ],
        "text": {
          "status": "generated",
          "div": "<div xmlns=\"http://www.w3.org/1999/xhtml\"><table class=\"hl7__eu__lab__report\"><tr><th>Test</th><th>05-May-2022</th><th>Reference&#xA0;Range</th><th>Unit</th></tr><tr><td>Calcium [Mass/volume] in Blood</td><td>8.9</td><td>8.6 - 10.4</td><td></td><td>mg/dL</td></tr></table></div>"
        },
        "status": "final",
        "subject": {
          "reference": "urn:uuid:c4604690-6b9c-4f96-9664-db08b124e367",
          "display": "Molly Jenkins"
        },
        "effectiveDateTime": "2022-05-05T14:42:11Z",
        "specimen": {
          "reference": "urn:uuid:fa855da6-28e2-4661-b308-5259c7ce7cf1"
        }
      }
    },
    {
      "fullUrl": "urn:uuid:b2d4c697-b80b-42e9-b4e5-3e09197c70ac",
      "resource": {
        "resourceType": "Observation",
        "id": "b2d4c697-b80b-42e9-b4e5-3e09197c70ac",
        "meta": {
          "profile": [
            "http://hl7.eu/fhir/laboratory/StructureDefinition/Observation-resultslab-eu-lab"
          ]
        },
        "performer": [
          {
            "display": "The Central European Lab"
          }
        ],
        "category": [
          {
            "coding": [
              {
                "system": "http://terminology.hl7.org/CodeSystem/observation-category",
                "code": "laboratory"
              }
            ]
          }
        ],
        "code": {
          "coding": [
            {
              "code": "2947-0",
              "system": "http://loinc.org",
              "display": "Sodium [Moles/volume] in Blood"
            }
          ],
          "text": "Sodium [Moles/volume] in Blood"
        },
        "valueQuantity": {
          "system": "http://unitsofmeasure.org",
          "value": 143.1,
          "unit": "mmol/L",
          "code": "mmol/L"
        },
        "referenceRange": [
          {
            "low": {
              "value": 135,
              "code": "mmol/L",
              "system": "http://unitsofmeasure.org"
            }
          },
          {
            "high": {
              "value": 145,
              "code": "mmol/L",
              "system": "http://unitsofmeasure.org"
            }
          }
        ],
        "text": {
          "status": "generated",
          "div": "<div xmlns=\"http://www.w3.org/1999/xhtml\"><table class=\"hl7__eu__lab__report\"><tr><th>Test</th><th>05-May-2022</th><th>Reference&#xA0;Range</th><th>Unit</th></tr><tr><td>Sodium [Moles/volume] in Blood</td><td>143.1</td><td>135 - 145</td><td></td><td>mmol/L</td></tr></table></div>"
        },
        "status": "final",
        "subject": {
          "reference": "urn:uuid:c4604690-6b9c-4f96-9664-db08b124e367",
          "display": "Molly Jenkins"
        },
        "effectiveDateTime": "2022-05-05T14:42:11Z",
        "specimen": {
          "reference": "urn:uuid:fa855da6-28e2-4661-b308-5259c7ce7cf1"
        }
      }
    },
    {
      "fullUrl": "urn:uuid:afb41f64-2da7-48e3-8a1a-d64d99370a9e",
      "resource": {
        "resourceType": "Observation",
        "id": "afb41f64-2da7-48e3-8a1a-d64d99370a9e",
        "meta": {
          "profile": [
            "http://hl7.eu/fhir/laboratory/StructureDefinition/Observation-resultslab-eu-lab"
          ]
        },
        "performer": [
          {
            "display": "The Central European Lab"
          }
        ],
        "category": [
          {
            "coding": [
              {
                "system": "http://terminology.hl7.org/CodeSystem/observation-category",
                "code": "laboratory"
              }
            ]
          }
        ],
        "code": {
          "coding": [
            {
              "code": "6298-4",
              "system": "http://loinc.org",
              "display": "Potassium [Moles/volume] in Blood"
            }
          ],
          "text": "Potassium [Moles/volume] in Blood"
        },
        "valueQuantity": {
          "system": "http://unitsofmeasure.org",
          "value": 4.6,
          "unit": "mmol/L",
          "code": "mmol/L"
        },
        "referenceRange": [
          {
            "low": {
              "value": 3.5,
              "code": "mmol/L",
              "system": "http://unitsofmeasure.org"
            }
          },
          {
            "high": {
              "value": 5.1,
              "code": "mmol/L",
              "system": "http://unitsofmeasure.org"
            }
          }
        ],
        "text": {
          "status": "generated",
          "div": "<div xmlns=\"http://www.w3.org/1999/xhtml\"><table class=\"hl7__eu__lab__report\"><tr><th>Test</th><th>05-May-2022</th><th>Reference&#xA0;Range</th><th>Unit</th></tr><tr><td>Potassium [Moles/volume] in Blood</td><td>4.6</td><td>3.5 - 5.1</td><td></td><td>mmol/L</td></tr></table></div>"
        },
        "status": "final",
        "subject": {
          "reference": "urn:uuid:c4604690-6b9c-4f96-9664-db08b124e367",
          "display": "Molly Jenkins"
        },
        "effectiveDateTime": "2022-05-05T14:42:11Z",
        "specimen": {
          "reference": "urn:uuid:fa855da6-28e2-4661-b308-5259c7ce7cf1"
        }
      }
    },
    {
      "fullUrl": "urn:uuid:633ccc32-f474-4be7-8a03-f9b8848dd8b7",
      "resource": {
        "resourceType": "Observation",
        "id": "633ccc32-f474-4be7-8a03-f9b8848dd8b7",
        "meta": {
          "profile": [
            "http://hl7.eu/fhir/laboratory/StructureDefinition/Observation-resultslab-eu-lab"
          ]
        },
        "performer": [
          {
            "display": "The Central European Lab"
          }
        ],
        "category": [
          {
            "coding": [
              {
                "system": "http://terminology.hl7.org/CodeSystem/observation-category",
                "code": "laboratory"
              }
            ]
          }
        ],
        "code": {
          "coding": [
            {
              "code": "2069-3",
              "system": "http://loinc.org",
              "display": "Chloride [Moles/volume] in Blood"
            }
          ],
          "text": "Chloride [Moles/volume] in Blood"
        },
        "valueQuantity": {
          "system": "http://unitsofmeasure.org",
          "value": 104.9,
          "unit": "mmol/L",
          "code": "mmol/L"
        },
        "referenceRange": [
          {
            "low": {
              "value": 98,
              "code": "mmol/L",
              "system": "http://unitsofmeasure.org"
            }
          },
          {
            "high": {
              "value": 110,
              "code": "mmol/L",
              "system": "http://unitsofmeasure.org"
            }
          }
        ],
        "text": {
          "status": "generated",
          "div": "<div xmlns=\"http://www.w3.org/1999/xhtml\"><table class=\"hl7__eu__lab__report\"><tr><th>Test</th><th>05-May-2022</th><th>Reference&#xA0;Range</th><th>Unit</th></tr><tr><td>Chloride [Moles/volume] in Blood</td><td>104.9</td><td>98 - 110</td><td></td><td>mmol/L</td></tr></table></div>"
        },
        "status": "final",
        "subject": {
          "reference": "urn:uuid:c4604690-6b9c-4f96-9664-db08b124e367",
          "display": "Molly Jenkins"
        },
        "effectiveDateTime": "2022-05-05T14:42:11Z",
        "specimen": {
          "reference": "urn:uuid:fa855da6-28e2-4661-b308-5259c7ce7cf1"
        }
      }
    },
    {
      "fullUrl": "urn:uuid:cc5c9fc8-0e11-4d11-b5be-16b658cf692e",
      "resource": {
        "resourceType": "Observation",
        "id": "cc5c9fc8-0e11-4d11-b5be-16b658cf692e",
        "meta": {
          "profile": [
            "http://hl7.eu/fhir/laboratory/StructureDefinition/Observation-resultslab-eu-lab"
          ]
        },
        "performer": [
          {
            "display": "The Central European Lab"
          }
        ],
        "category": [
          {
            "coding": [
              {
                "system": "http://terminology.hl7.org/CodeSystem/observation-category",
                "code": "laboratory"
              }
            ]
          }
        ],
        "code": {
          "coding": [
            {
              "code": "20565-8",
              "system": "http://loinc.org",
              "display": "Carbon dioxide, total [Moles/volume] in Blood"
            }
          ],
          "text": "Carbon dioxide, total [Moles/volume] in Blood"
        },
        "valueQuantity": {
          "system": "http://unitsofmeasure.org",
          "value": 20.2,
          "unit": "mmol/L",
          "code": "mmol/L"
        },
        "referenceRange": [
          {
            "low": {
              "value": 22,
              "code": "mmol/L",
              "system": "http://unitsofmeasure.org"
            }
          },
          {
            "high": {
              "value": 29,
              "code": "mmol/L",
              "system": "http://unitsofmeasure.org"
            }
          }
        ],
        "interpretation": [
          {
            "coding": [
              {
                "code": "L",
                "system": "http://terminology.hl7.org/CodeSystem/v3-ObservationInterpretation",
                "display": "Low"
              }
            ]
          }
        ],
        "text": {
          "status": "generated",
          "div": "<div xmlns=\"http://www.w3.org/1999/xhtml\"><table class=\"hl7__eu__lab__report\"><tr><th>Test</th><th>05-May-2022</th><th>Reference&#xA0;Range</th><th>Unit</th></tr><tr><td>Carbon dioxide, total [Moles/volume] in Blood</td><td>20.2</td><td>22 - 29</td><td>L</td><td>mmol/L</td></tr></table></div>"
        },
        "status": "final",
        "subject": {
          "reference": "urn:uuid:c4604690-6b9c-4f96-9664-db08b124e367",
          "display": "Molly Jenkins"
        },
        "effectiveDateTime": "2022-05-05T14:42:11Z",
        "specimen": {
          "reference": "urn:uuid:fa855da6-28e2-4661-b308-5259c7ce7cf1"
        }
      }
    },
    {
      "fullUrl": "urn:uuid:029d429b-9360-4553-9e07-72c7472867f6",
      "resource": {
        "resourceType": "Device",
        "id": "029d429b-9360-4553-9e07-72c7472867f6",
        "deviceName": [
          {
            "name": "SYNDERAI Synthetic Generator",
            "type": "manufacturer-name"
          }
        ],
        "version": [
          {
            "value": "5.0"
          }
        ],
        "text": {
          "status": "generated",
          "div": "<div xmlns=\"http://www.w3.org/1999/xhtml\">SYNDERAI Synthetic Generator v5.0</div>"
        },
        "status": "active\"",
        "distinctIdentifier": "synderai-generator-50",
        "manufacturer": "SYNDERAI Project"
      }
    },
    {
      "fullUrl": "urn:uuid:9eeff47d-b1c1-427e-a35d-ee6ae88e866f",
      "resource": {
        "resourceType": "Provenance",
        "id": "9eeff47d-b1c1-427e-a35d-ee6ae88e866f",
        "target": [
          {
            "reference": "Patient/c4604690-6b9c-4f96-9664-db08b124e367"
          },
          {
            "reference": "Bundle/a180cec0-0b8e-4bb0-a17f-83e0944ab362"
          },
          {
            "reference": "Composition/54284a26-bf69-45be-93ca-a180a88634d2"
          },
          {
            "reference": "PractitionerRole/b3a9cf4b-4e5e-4d8d-8ea8-d5871b613493"
          },
          {
            "reference": "Practitioner/36fc5214-d6ef-4f5c-bb84-a9f566a1d922"
          },
          {
            "reference": "PractitionerRole/4f5cb22d-90f2-4b1e-a7b2-e5a9cc2fa8d9"
          },
          {
            "reference": "Organization/564ff6e1-b139-4ee4-bc33-cedaefacc641"
          }
        ],
        "activity": {
          "text": "Synthetic Example Data Generation"
        },
        "policy": [
          "https://synderai.net/synderai-synthetic-data-policy"
        ],
        "agent": [
          {
            "type": {
              "text": "author"
            },
            "who": {
              "reference": "Device/029d429b-9360-4553-9e07-72c7472867f6"
            }
          }
        ],
        "reason": [
          {
            "text": "Interoperability Testing and Training (non-clinical use)"
          }
        ],
        "text": {
          "status": "generated",
          "div": "<div xmlns=\"http://www.w3.org/1999/xhtml\">Provenance for SYNDERAI Synthetic Example Data Resource</div>"
        },
        "recorded": "2022-05-05T16:42:11Z"
      }
    },
    {
      "fullUrl": "urn:uuid:b3a9cf4b-4e5e-4d8d-8ea8-d5871b613493",
      "resource": {
        "resourceType": "PractitionerRole",
        "id": "b3a9cf4b-4e5e-4d8d-8ea8-d5871b613493",
        "meta": {
          "profile": [
            "http://hl7.eu/fhir/base/StructureDefinition/practitionerRole-eu"
          ]
        },
        "text": {
          "status": "generated",
          "div": "<div xmlns=\"http://www.w3.org/1999/xhtml\">Laboratory Role Id: b3a9cf4b-4e5e-4d8d-8ea8-d5871b613493</div>"
        },
        "practitioner": {
          "reference": "urn:uuid:36fc5214-d6ef-4f5c-bb84-a9f566a1d922"
        }
      }
    },
    {
      "fullUrl": "urn:uuid:36fc5214-d6ef-4f5c-bb84-a9f566a1d922",
      "resource": {
        "resourceType": "Practitioner",
        "id": "36fc5214-d6ef-4f5c-bb84-a9f566a1d922",
        "meta": {
          "profile": [
            "http://hl7.eu/fhir/base/StructureDefinition/practitioner-eu"
          ]
        },
        "identifier": [
          {
            "assigner": {
              "display": "HL7 Europe"
            },
            "system": "urn:oid:2.16.840.1.113883.2.51.999",
            "value": "ffd1e371-090b-4007-a2c5-d11a1e516ad9"
          }
        ],
        "name": [
          {
            "prefix": [
              "dr"
            ],
            "given": [
              "Ex"
            ],
            "family": "Ample"
          }
        ],
        "address": [
          {
            "line": [
              "Laboratoire Central Européenne",
              "Boulevard du Jardin Botanique 32"
            ],
            "postalCode": "1000",
            "city": "Brussels",
            "country": "Belgium"
          }
        ],
        "text": {
          "status": "generated",
          "div": "<div xmlns=\"http://www.w3.org/1999/xhtml\">Laboratory: Laboratoire Central Européenne, 1000 Brussels, Belgium</div>"
        }
      }
    }
  ],
  "type": "document",
  "timestamp": "2022-05-05T16:42:11Z"
}
