{
  "resourceType": "Bundle",
  "id": "acbc9e6e-dac4-4af7-8872-bf7f8b287148",
  "meta": {
    "profile": [
      "http://hl7.eu/fhir/laboratory/StructureDefinition/Bundle-eu-lab"
    ]
  },
  "identifier": {
    "assigner": {
      "display": "HL7 Europe"
    },
    "system": "urn:oid:2.16.840.1.113883.2.51.999",
    "value": "22cc7d75-b937-42ab-9d9d-cf65f1b194f9"
  },
  "entry": [
    {
      "fullUrl": "urn:uuid:a89372a0-acd1-49be-acd3-d35df9d795e6",
      "resource": {
        "resourceType": "Composition",
        "id": "a89372a0-acd1-49be-acd3-d35df9d795e6",
        "meta": {
          "profile": [
            "http://hl7.eu/fhir/laboratory/StructureDefinition/Composition-eu-lab"
          ]
        },
        "identifier": {
          "assigner": {
            "display": "HL7 Europe"
          },
          "system": "urn:oid:2.16.840.1.113883.2.51.999",
          "value": "10705e1c-d857-4de5-a26d-b448f5ec770c"
        },
        "author": [
          {
            "reference": "urn:uuid:6505ba24-e80f-4227-bfef-acae38b095ab"
          }
        ],
        "category": [
          {
            "coding": [
              {
                "code": "26436-6",
                "system": "http://loinc.org",
                "display": "Laboratory studies (set)"
              }
            ]
          }
        ],
        "type": {
          "coding": [
            {
              "code": "11502-2",
              "system": "http://loinc.org",
              "display": "Laboratory report"
            }
          ],
          "text": "Laboratory Report"
        },
        "section": [
          {
            "code": {
              "coding": [
                {
                  "code": "26436-6",
                  "system": "http://loinc.org",
                  "display": "Laboratory studies (set)"
                }
              ],
              "text": "Laboratory studies"
            },
            "section": [
              {
                "code": {
                  "coding": [
                    {
                      "code": "$18723-7",
                      "system": "http://loinc.org",
                      "display": "Hematology studies (set)"
                    }
                  ],
                  "text": "Hematology"
                },
                "entry": [
                  {
                    "reference": "urn:uuid:451126f0-2a6d-40df-ae05-83ac56c0be14"
                  },
                  {
                    "reference": "urn:uuid:ab6602d6-d9c2-45cf-a1ae-e66f912f72ec"
                  },
                  {
                    "reference": "urn:uuid:2222dfff-7c1a-4305-b6eb-3b41df9c5a11"
                  },
                  {
                    "reference": "urn:uuid:03c56c20-2154-4832-b80f-a76023ca6ef5"
                  },
                  {
                    "reference": "urn:uuid:c1e3d09c-073b-4c9d-a4ba-cc0ef00489be"
                  },
                  {
                    "reference": "urn:uuid:cfc23151-0e2d-4641-ba38-ea572a188c05"
                  },
                  {
                    "reference": "urn:uuid:58f38ad9-de33-4869-85f8-0201090e75d3"
                  },
                  {
                    "reference": "urn:uuid:e0ed459c-5aab-475b-b505-5aedae967548"
                  },
                  {
                    "reference": "urn:uuid:3f0e3c8d-7625-4b97-aa1b-627c6a520af6"
                  }
                ],
                "text": {
                  "status": "generated",
                  "div": "<div xmlns=\"http://www.w3.org/1999/xhtml\"><h3>Hematology</h3><table class=\"hl7__eu__lab__report\"><thead><tr><th>Test</th><th>25-JUL-2022</th><th>Reference&#xA0;Range</th><th>Unit</th></tr></thead><tbody><tr><td>Leukocytes [#/volume] in Blood by Automated count</td><td>4.0</td><td>4 - 11</td><td>10*3/uL</td></tr><tr><td>Erythrocytes [#/volume] in Blood by Automated count</td><td>4.4</td><td>3.9 - 5.2</td><td>10*6/uL</td></tr><tr><td>Hemoglobin [Mass/volume] in Blood</td><td>14.1</td><td>12 - 15.5</td><td>g/dL</td></tr><tr><td>Hematocrit [Volume Fraction] of Blood by Automated count</td><td>44.9</td><td>38 - 54</td><td>%</td></tr><tr><td>MCV [Entitic volume] by Automated count</td><td>96.0</td><td>78 - 98</td><td>fL</td></tr><tr><td>MCH [Entitic mass] by Automated count</td><td>30.0</td><td>27 - 33</td><td>pg</td></tr><tr><td>MCHC [Mass/volume] by Automated count</td><td><strong>35.1 H</strong></td><td>31 - 35</td><td>g/dL</td></tr><tr><td>Erythrocyte distribution width [Ratio] by Automated count</td><td>13.5</td><td>11.5 - 16.5</td><td>%</td></tr><tr><td>Platelets [#/volume] in Blood by Automated count</td><td><strong>113.7 L</strong></td><td>150 - 450</td><td>10*3/uL</td></tr></tbody></table></div>"
                },
                "title": "Hematology"
              },
              {
                "code": {
                  "coding": [
                    {
                      "code": "$18719-5",
                      "system": "http://loinc.org",
                      "display": "Chemistry studies (set)"
                    }
                  ],
                  "text": "Chemistry"
                },
                "entry": [
                  {
                    "reference": "urn:uuid:0ffa67d7-abc0-459c-9fea-28cd7968d621"
                  },
                  {
                    "reference": "urn:uuid:5fadfa57-a848-466e-838f-b2329bc0f97b"
                  },
                  {
                    "reference": "urn:uuid:3d462b8a-1f2a-4f59-a23f-ae8d4e388505"
                  },
                  {
                    "reference": "urn:uuid:20c8478d-4041-46b7-9dcc-95e763e0e5ea"
                  },
                  {
                    "reference": "urn:uuid:9c69f4d5-1759-49e2-a872-9776625fe3f8"
                  },
                  {
                    "reference": "urn:uuid:fa20d9af-cdb1-40cd-9257-bd5a36e3a22b"
                  },
                  {
                    "reference": "urn:uuid:c8f43cd2-ff1c-4d3a-9f4a-2068d4f880c7"
                  },
                  {
                    "reference": "urn:uuid:e3b82db2-5276-4c6a-a3c8-e21fed8b57cd"
                  },
                  {
                    "reference": "urn:uuid:49bd47de-d274-4c4f-af87-5640352f42e2"
                  },
                  {
                    "reference": "urn:uuid:d457dc8a-6c92-40a8-85f3-192b97cbe056"
                  },
                  {
                    "reference": "urn:uuid:dba0b3d8-de8d-459f-ba68-8d2a44130f8e"
                  },
                  {
                    "reference": "urn:uuid:28bfdbd9-35e2-41e5-a0a9-59ae695a1182"
                  },
                  {
                    "reference": "urn:uuid:756fb25c-0e87-4b47-9110-009cc022aada"
                  },
                  {
                    "reference": "urn:uuid:e745a835-6763-486d-92b3-d97a727549a3"
                  },
                  {
                    "reference": "urn:uuid:2a5280dc-25ab-4870-a297-3e266bd05ea6"
                  },
                  {
                    "reference": "urn:uuid:9ac65c6e-8e7d-4f7e-8985-8f4f693da334"
                  },
                  {
                    "reference": "urn:uuid:e49f2ab7-a0cb-4cb9-ad87-42afdc2b02bd"
                  },
                  {
                    "reference": "urn:uuid:04fdf383-ac0b-40a2-b90d-6be0d19d82cf"
                  },
                  {
                    "reference": "urn:uuid:eabffa73-1002-4738-b119-bf7fa5b24656"
                  },
                  {
                    "reference": "urn:uuid:a8bbf111-c06e-461a-a1bf-ec5679b0db43"
                  },
                  {
                    "reference": "urn:uuid:82a804c7-2a1b-4576-a4bd-7b064e1cf415"
                  },
                  {
                    "reference": "urn:uuid:e26e4ca0-ee29-43c0-b23e-6e3a79c8c3dc"
                  }
                ],
                "text": {
                  "status": "generated",
                  "div": "<div xmlns=\"http://www.w3.org/1999/xhtml\"><h3>Chemistry</h3><table class=\"hl7__eu__lab__report\"><thead><tr><th>Test</th><th>25-JUL-2022</th><th>Reference&#xA0;Range</th><th>Unit</th></tr></thead><tbody><tr><td>Glucose [Mass/volume] in Serum or Plasma</td><td>89.9</td><td>70 - 140</td><td>mg/dL</td></tr><tr><td>Urea nitrogen [Mass/volume] in Serum or Plasma</td><td>19.7</td><td>7 - 20</td><td>mg/dL</td></tr><tr><td>Creatinine [Mass/volume] in Serum or Plasma</td><td><strong>2.9 H</strong></td><td>0.6 - 1.3</td><td>mg/dL</td></tr><tr><td>Calcium [Mass/volume] in Serum or Plasma</td><td>10.0</td><td>8.6 - 10.4</td><td>mg/dL</td></tr><tr><td>Sodium [Moles/volume] in Serum or Plasma</td><td>136.1</td><td>135 - 145</td><td>mmol/L</td></tr><tr><td>Potassium [Moles/volume] in Serum or Plasma</td><td>5.1</td><td>3.5 - 5.1</td><td>mmol/L</td></tr><tr><td>Chloride [Moles/volume] in Serum or Plasma</td><td>102.1</td><td>98 - 108</td><td>mmol/L</td></tr><tr><td>Carbon dioxide, total [Moles/volume] in Serum or Plasma</td><td><strong>20.4 L</strong></td><td>22 - 32</td><td>mmol/L</td></tr><tr><td>Protein [Mass/volume] in Serum or Plasma</td><td>6.5</td><td>6 - 8.3</td><td>g/dL</td></tr><tr><td>Albumin [Mass/volume] in Serum or Plasma</td><td>4.8</td><td>3.5 - 5.5</td><td>g/dL</td></tr><tr><td>Bilirubin.total [Mass/volume] in Serum or Plasma</td><td><strong>12.7 H</strong></td><td>0.3 - 1.2</td><td>mg/dL</td></tr><tr><td>Alkaline phosphatase [Enzymatic activity/volume] in Serum or Plasma</td><td>56.7</td><td>44 - 142</td><td>U/L</td></tr><tr><td>Alanine aminotransferase [Enzymatic activity/volume] in Serum or Plasma</td><td><strong>0.6 L</strong></td><td>7 - 40</td><td>U/L</td></tr><tr><td>Aspartate aminotransferase [Enzymatic activity/volume] in Serum or Plasma</td><td><strong>6.3 L</strong></td><td>10 - 40</td><td>U/L</td></tr><tr><td>Magnesium [Mass/volume] in Blood</td><td>2.0</td><td>1.6 - 2.3</td><td>mg/dL</td></tr><tr><td>Cholesterol [Mass/volume] in Serum or Plasma</td><td><strong>279.5 H</strong></td><td>125 - 200</td><td>mg/dL</td></tr><tr><td>Triglyceride [Mass/volume] in Serum or Plasma</td><td>122.4</td><td>35 - 150</td><td>mg/dL</td></tr><tr><td>Cholesterol in LDL [Mass/volume] in Serum or Plasma by Direct assay</td><td><strong>192.5 H</strong></td><td>0 - 130</td><td>mg/dL</td></tr><tr><td>Cholesterol in HDL [Mass/volume] in Serum or Plasma</td><td><strong>31.0 L</strong></td><td>50 - 120</td><td>mg/dL</td></tr><tr><td>Hemoglobin A1c/Hemoglobin.total in Blood</td><td><strong>3.0 L</strong></td><td>4.5 - 6.4</td><td>%</td></tr><tr><td>Natriuretic peptide.B prohormone N-Terminal [Mass/volume] in Blood by Immunoassay</td><td>1.8</td><td>0 - 450</td><td>pg/mL</td></tr><tr><td>Troponin I.cardiac [Mass/volume] in Serum or Plasma by High sensitivity method</td><td><strong>116.1 H</strong></td><td>0 - 34.2</td><td>ng/L</td></tr></tbody></table></div>"
                },
                "title": "Chemistry"
              },
              {
                "code": {
                  "coding": [
                    {
                      "code": "$18720-3",
                      "system": "http://loinc.org",
                      "display": "Coagulation studies (set)"
                    }
                  ],
                  "text": "Coagulation"
                },
                "entry": [
                  {
                    "reference": "urn:uuid:d133638d-a32d-48f9-ab11-165a1421ffc5"
                  },
                  {
                    "reference": "urn:uuid:755ea9db-f8f9-4558-8ad6-23926281cd32"
                  }
                ],
                "text": {
                  "status": "generated",
                  "div": "<div xmlns=\"http://www.w3.org/1999/xhtml\"><h3>Coagulation</h3><table class=\"hl7__eu__lab__report\"><thead><tr><th>Test</th><th>25-JUL-2022</th><th>Reference&#xA0;Range</th><th>Unit</th></tr></thead><tbody><tr><td>INR in Platelet poor plasma by Coagulation assay</td><td>1.1</td><td>0.9 - 1.5</td><td>{INR}</td></tr><tr><td>aPTT in Blood by Coagulation assay</td><td>32.3</td><td>25 - 38</td><td>s</td></tr></tbody></table></div>"
                },
                "title": "Coagulation"
              }
            ],
            "title": "Laboratory Report"
          },
          {
            "text": {
              "status": "generated",
              "div": "<div xmlns=\"http://www.w3.org/1999/xhtml\"><h3>Annotation</h3><table class=\"hl7__eu__lab__report\"><tr><th>Conclusion and Recommendations based on this report and previous findings known to us</th></tr><tr><td>The patient shows significant renal impairment (elevated creatinine), marked hyperbilirubinemia, thrombocytopenia, and low liver transaminases. There is also dyslipidemia (high total and LDL cholesterol, low HDL), mild metabolic acidosis (low CO₂), and elevated cardiac troponin I, suggesting possible acute or chronic cardiac injury. Platelet count is low, which may increase bleeding risk. Further clinical correlation and urgent evaluation are recommended.</td></tr></table></div>"
            },
            "code": {
              "coding": [
                {
                  "system": "http://loinc.org",
                  "code": "48767-8",
                  "display": "Annotation comment"
                }
              ]
            },
            "title": "Annotation comment"
          }
        ],
        "status": "final",
        "subject": {
          "reference": "urn:uuid:33e9e0b0-3d03-4cc0-ab69-c5c0f073f90a",
          "display": "Maria Nohlmans"
        },
        "date": "2022-07-25T13:21:29Z",
        "title": "Laboratory Report",
        "confidentiality": "N"
      }
    },
    {
      "fullUrl": "urn:uuid:48f5fbad-5428-4abc-adbe-91b6933700db",
      "resource": {
        "resourceType": "DiagnosticReport",
        "id": "48f5fbad-5428-4abc-adbe-91b6933700db",
        "meta": {
          "profile": [
            "http://hl7.eu/fhir/laboratory/StructureDefinition/DiagnosticReport-eu-lab"
          ]
        },
        "identifier": [
          {
            "assigner": {
              "display": "HL7 Europe"
            },
            "system": "urn:oid:2.16.840.1.113883.2.51.999",
            "value": "d364cd3f-19f6-4bbf-9697-1ed1e64ff968"
          }
        ],
        "extension": [
          {
            "url": "http://hl7.org/fhir/5.0/StructureDefinition/extension-DiagnosticReport.composition",
            "valueReference": {
              "reference": "urn:uuid:10705e1c-d857-4de5-a26d-b448f5ec770c"
            }
          }
        ],
        "category": [
          {
            "coding": [
              {
                "code": "26436-6",
                "system": "http://loinc.org",
                "display": "Laboratory studies (set)"
              }
            ]
          }
        ],
        "specimen": [
          {
            "reference": "urn:uuid:ad604160-5aea-412c-8861-c87543c0329b"
          },
          {
            "reference": "urn:uuid:ad604160-5aea-412c-8861-c87543c0329b"
          },
          {
            "reference": "urn:uuid:f0acc4cb-d06b-4db5-9c21-7add55a6f5c5"
          },
          {
            "reference": "urn:uuid:659fda7f-e332-461a-8bab-60940cc1e175"
          }
        ],
        "result": [
          {
            "reference": "urn:uuid:451126f0-2a6d-40df-ae05-83ac56c0be14"
          },
          {
            "reference": "urn:uuid:ab6602d6-d9c2-45cf-a1ae-e66f912f72ec"
          },
          {
            "reference": "urn:uuid:2222dfff-7c1a-4305-b6eb-3b41df9c5a11"
          },
          {
            "reference": "urn:uuid:03c56c20-2154-4832-b80f-a76023ca6ef5"
          },
          {
            "reference": "urn:uuid:c1e3d09c-073b-4c9d-a4ba-cc0ef00489be"
          },
          {
            "reference": "urn:uuid:cfc23151-0e2d-4641-ba38-ea572a188c05"
          },
          {
            "reference": "urn:uuid:58f38ad9-de33-4869-85f8-0201090e75d3"
          },
          {
            "reference": "urn:uuid:e0ed459c-5aab-475b-b505-5aedae967548"
          },
          {
            "reference": "urn:uuid:3f0e3c8d-7625-4b97-aa1b-627c6a520af6"
          },
          {
            "reference": "urn:uuid:0ffa67d7-abc0-459c-9fea-28cd7968d621"
          },
          {
            "reference": "urn:uuid:5fadfa57-a848-466e-838f-b2329bc0f97b"
          },
          {
            "reference": "urn:uuid:3d462b8a-1f2a-4f59-a23f-ae8d4e388505"
          },
          {
            "reference": "urn:uuid:20c8478d-4041-46b7-9dcc-95e763e0e5ea"
          },
          {
            "reference": "urn:uuid:9c69f4d5-1759-49e2-a872-9776625fe3f8"
          },
          {
            "reference": "urn:uuid:fa20d9af-cdb1-40cd-9257-bd5a36e3a22b"
          },
          {
            "reference": "urn:uuid:c8f43cd2-ff1c-4d3a-9f4a-2068d4f880c7"
          },
          {
            "reference": "urn:uuid:e3b82db2-5276-4c6a-a3c8-e21fed8b57cd"
          },
          {
            "reference": "urn:uuid:49bd47de-d274-4c4f-af87-5640352f42e2"
          },
          {
            "reference": "urn:uuid:d457dc8a-6c92-40a8-85f3-192b97cbe056"
          },
          {
            "reference": "urn:uuid:dba0b3d8-de8d-459f-ba68-8d2a44130f8e"
          },
          {
            "reference": "urn:uuid:28bfdbd9-35e2-41e5-a0a9-59ae695a1182"
          },
          {
            "reference": "urn:uuid:756fb25c-0e87-4b47-9110-009cc022aada"
          },
          {
            "reference": "urn:uuid:e745a835-6763-486d-92b3-d97a727549a3"
          },
          {
            "reference": "urn:uuid:2a5280dc-25ab-4870-a297-3e266bd05ea6"
          },
          {
            "reference": "urn:uuid:9ac65c6e-8e7d-4f7e-8985-8f4f693da334"
          },
          {
            "reference": "urn:uuid:e49f2ab7-a0cb-4cb9-ad87-42afdc2b02bd"
          },
          {
            "reference": "urn:uuid:04fdf383-ac0b-40a2-b90d-6be0d19d82cf"
          },
          {
            "reference": "urn:uuid:eabffa73-1002-4738-b119-bf7fa5b24656"
          },
          {
            "reference": "urn:uuid:a8bbf111-c06e-461a-a1bf-ec5679b0db43"
          },
          {
            "reference": "urn:uuid:d133638d-a32d-48f9-ab11-165a1421ffc5"
          },
          {
            "reference": "urn:uuid:755ea9db-f8f9-4558-8ad6-23926281cd32"
          },
          {
            "reference": "urn:uuid:82a804c7-2a1b-4576-a4bd-7b064e1cf415"
          },
          {
            "reference": "urn:uuid:e26e4ca0-ee29-43c0-b23e-6e3a79c8c3dc"
          }
        ],
        "status": "registered",
        "code": {
          "coding": [
            {
              "code": "11502-2",
              "system": "http://loinc.org",
              "display": "Laboratory report"
            }
          ]
        },
        "subject": {
          "reference": "urn:uuid:33e9e0b0-3d03-4cc0-ab69-c5c0f073f90a",
          "display": "Maria Nohlmans"
        }
      }
    },
    {
      "fullUrl": "urn:uuid:33e9e0b0-3d03-4cc0-ab69-c5c0f073f90a",
      "resource": {
        "resourceType": "Patient",
        "id": "33e9e0b0-3d03-4cc0-ab69-c5c0f073f90a",
        "meta": {
          "security": [
            {
              "system": "http://terminology.hl7.org/CodeSystem/v3-ActReason",
              "code": "HTEST"
            },
            {
              "system": "http://terminology.hl7.org/CodeSystem/v3-ActReason",
              "code": "TRAIN"
            }
          ],
          "tag": [
            {
              "system": "https://synderai.net/fhir/CodeSystem/tags",
              "code": "synthetic",
              "display": "SYNDERAI Synthetic data"
            }
          ],
          "profile": [
            "http://hl7.eu/fhir/base/StructureDefinition/patient-eu-core"
          ]
        },
        "identifier": [
          {
            "type": {
              "coding": [
                {
                  "code": "PT",
                  "system": "http://terminology.hl7.org/CodeSystem/v2-0203"
                }
              ]
            },
            "system": "http://ec.europa.eu/identifier/eci",
            "value": "6886-506417-1"
          },
          {
            "type": {
              "coding": [
                {
                  "code": "MR",
                  "system": "http://terminology.hl7.org/CodeSystem/v2-0203"
                }
              ]
            },
            "system": "http://local.setting.eu/identifier",
            "value": "2cb21ed6-b617-b1f3-2290-589a710de5ee"
          }
        ],
        "name": [
          {
            "family": "Nohlmans"
          },
          {
            "given": [
              "Maria"
            ]
          },
          {
            "text": "Maria Nohlmans"
          }
        ],
        "address": [
          {
            "line": [
              "Alfons-Wulff-Weg 1"
            ],
            "use": "home",
            "type": "physical",
            "postalCode": "25813",
            "city": "Husum",
            "country": "Germany"
          }
        ],
        "telecom": [
          {
            "system": "phone",
            "value": "+49(0)1911 105501"
          }
        ],
        "extension": [
          {
            "url": "http://hl7.org/fhir/StructureDefinition/patient-nationality",
            "valueCodeableConcept": {
              "coding": [
                {
                  "code": "DE",
                  "system": "http://hl7.org/fhir/ValueSet/country"
                }
              ]
            }
          }
        ],
        "text": {
          "status": "generated",
          "div": "<div xmlns=\"http://www.w3.org/1999/xhtml\"><table class=\"hl7__ips\"><tr><td>Maria Nohlmans</td><td>female</td><td>11-Jun-1947</td></tr></table></div>"
        },
        "gender": "female",
        "birthDate": "1947-06-11"
      }
    },
    {
      "fullUrl": "urn:uuid:b483d89e-357f-487e-90a5-0b48d7aa9bc6",
      "resource": {
        "resourceType": "ServiceRequest",
        "id": "b483d89e-357f-487e-90a5-0b48d7aa9bc6",
        "meta": {
          "profile": [
            "http://hl7.eu/fhir/laboratory/StructureDefinition/ServiceRequest-eu-lab"
          ]
        },
        "identifier": [
          {
            "system": "http://example.org",
            "value": "640c362a-d472-462f-9ed5-9c7b9aba7f3f"
          }
        ],
        "specimen": [
          {
            "reference": "urn:uuid:ad604160-5aea-412c-8861-c87543c0329b"
          },
          {
            "reference": "urn:uuid:f0acc4cb-d06b-4db5-9c21-7add55a6f5c5"
          },
          {
            "reference": "urn:uuid:659fda7f-e332-461a-8bab-60940cc1e175"
          }
        ],
        "reasonCode": [
          {
            "coding": [
              {
                "code": "401314000",
                "system": "http://snomed.info/sct",
                "display": "Acute non-ST segment elevation myocardial infarction"
              }
            ]
          },
          {
            "coding": [
              {
                "code": "157141000119108",
                "system": "http://snomed.info/sct",
                "display": "Proteinuria due to type 2 diabetes mellitus"
              }
            ]
          },
          {
            "coding": [
              {
                "code": "237602007",
                "system": "http://snomed.info/sct",
                "display": "Metabolic syndrome X"
              }
            ]
          },
          {
            "coding": [
              {
                "code": "90781000119102",
                "system": "http://snomed.info/sct",
                "display": "Microalbuminuria due to type 2 diabetes mellitus"
              }
            ]
          },
          {
            "coding": [
              {
                "code": "127013003",
                "system": "http://snomed.info/sct",
                "display": "Disorder of kidney due to diabetes mellitus"
              }
            ]
          },
          {
            "coding": [
              {
                "code": "59621000",
                "system": "http://snomed.info/sct",
                "display": "Essential hypertension"
              }
            ]
          },
          {
            "coding": [
              {
                "code": "271737000",
                "system": "http://snomed.info/sct",
                "display": "Anemia"
              }
            ]
          },
          {
            "coding": [
              {
                "code": "15777000",
                "system": "http://snomed.info/sct",
                "display": "Prediabetes"
              }
            ]
          }
        ],
        "status": "active",
        "intent": "order",
        "code": {
          "coding": [
            {
              "code": "108252007",
              "system": "http://snomed.info/sct",
              "display": "Laboratory procedure"
            }
          ]
        },
        "subject": {
          "reference": "urn:uuid:33e9e0b0-3d03-4cc0-ab69-c5c0f073f90a",
          "display": "Maria Nohlmans"
        },
        "requester": {
          "reference": "urn:uuid:2d5827fb-37a6-42d9-bc5b-e03f2b77e272"
        }
      }
    },
    {
      "fullUrl": "urn:uuid:2d5827fb-37a6-42d9-bc5b-e03f2b77e272",
      "resource": {
        "resourceType": "PractitionerRole",
        "id": "2d5827fb-37a6-42d9-bc5b-e03f2b77e272",
        "meta": {
          "profile": [
            "http://hl7.eu/fhir/base/StructureDefinition/practitionerRole-eu"
          ]
        },
        "text": {
          "status": "generated",
          "div": "<div xmlns=\"http://www.w3.org/1999/xhtml\">Provider Role Id: 2d5827fb-37a6-42d9-bc5b-e03f2b77e272</div>"
        },
        "organization": {
          "reference": "urn:uuid:3574b713-9023-482e-8fd2-660ff08172ac"
        }
      }
    },
    {
      "fullUrl": "urn:uuid:3574b713-9023-482e-8fd2-660ff08172ac",
      "resource": {
        "resourceType": "Organization",
        "id": "3574b713-9023-482e-8fd2-660ff08172ac",
        "meta": {
          "profile": [
            "http://hl7.eu/fhir/base/StructureDefinition/organization-eu"
          ]
        },
        "identifier": [
          {
            "assigner": {
              "display": "HL7 Europe"
            },
            "system": "urn:oid:2.16.840.1.113883.2.51.999",
            "value": "1760b908-2148-4849-b6ab-166ab7c921af"
          }
        ],
        "address": [
          {
            "line": [
              "Brinckmannstraße 35"
            ],
            "city": "Husum",
            "postalCode": "25813",
            "country": "Germany"
          }
        ],
        "text": {
          "status": "generated",
          "div": "<div xmlns=\"http://www.w3.org/1999/xhtml\">Provider Organization: Dr. Wolfram Hussels Kieferorthopäde</div>"
        },
        "name": "Dr. Wolfram Hussels Kieferorthopäde"
      }
    },
    {
      "fullUrl": "urn:uuid:ad604160-5aea-412c-8861-c87543c0329b",
      "resource": {
        "resourceType": "Specimen",
        "id": "ad604160-5aea-412c-8861-c87543c0329b",
        "meta": {
          "profile": [
            "http://hl7.eu/fhir/laboratory/StructureDefinition/Specimen-eu-lab"
          ]
        },
        "collection": {
          "collectedDateTime": "2022-07-25"
        },
        "text": {
          "status": "generated",
          "div": "<div xmlns=\"http://www.w3.org/1999/xhtml\"><table class=\"hl7__eu__lab__report\"><tr><th>Specimen</th><th>Collection Date</th></tr><tr><td>Whole blood specimen (specimen)</td><td><span class=\"nb\">25-Jul-2022</span></td></tr></table></div>"
        },
        "type": {
          "coding": [
            {
              "code": "258580003",
              "system": "http://snomed.info/sct",
              "display": "Whole blood specimen (specimen)"
            }
          ]
        }
      }
    },
    {
      "fullUrl": "urn:uuid:ad604160-5aea-412c-8861-c87543c0329b",
      "resource": {
        "resourceType": "Specimen",
        "id": "ad604160-5aea-412c-8861-c87543c0329b",
        "meta": {
          "profile": [
            "http://hl7.eu/fhir/laboratory/StructureDefinition/Specimen-eu-lab"
          ]
        },
        "collection": {
          "collectedDateTime": "2022-07-25"
        },
        "text": {
          "status": "generated",
          "div": "<div xmlns=\"http://www.w3.org/1999/xhtml\"><table class=\"hl7__eu__lab__report\"><tr><th>Specimen</th><th>Collection Date</th></tr><tr><td>Whole blood specimen (specimen)</td><td><span class=\"nb\">25-Jul-2022</span></td></tr></table></div>"
        },
        "type": {
          "coding": [
            {
              "code": "258580003",
              "system": "http://snomed.info/sct",
              "display": "Whole blood specimen (specimen)"
            }
          ]
        }
      }
    },
    {
      "fullUrl": "urn:uuid:f0acc4cb-d06b-4db5-9c21-7add55a6f5c5",
      "resource": {
        "resourceType": "Specimen",
        "id": "f0acc4cb-d06b-4db5-9c21-7add55a6f5c5",
        "meta": {
          "profile": [
            "http://hl7.eu/fhir/laboratory/StructureDefinition/Specimen-eu-lab"
          ]
        },
        "collection": {
          "collectedDateTime": "2022-07-25"
        },
        "text": {
          "status": "generated",
          "div": "<div xmlns=\"http://www.w3.org/1999/xhtml\"><table class=\"hl7__eu__lab__report\"><tr><th>Specimen</th><th>Collection Date</th></tr><tr><td>Acellular blood (serum or plasma) specimen</td><td><span class=\"nb\">25-Jul-2022</span></td></tr></table></div>"
        },
        "type": {
          "coding": [
            {
              "code": "122592007",
              "system": "http://snomed.info/sct",
              "display": "Acellular blood (serum or plasma) specimen"
            }
          ]
        }
      }
    },
    {
      "fullUrl": "urn:uuid:659fda7f-e332-461a-8bab-60940cc1e175",
      "resource": {
        "resourceType": "Specimen",
        "id": "659fda7f-e332-461a-8bab-60940cc1e175",
        "meta": {
          "profile": [
            "http://hl7.eu/fhir/laboratory/StructureDefinition/Specimen-eu-lab"
          ]
        },
        "collection": {
          "collectedDateTime": "2022-07-25"
        },
        "text": {
          "status": "generated",
          "div": "<div xmlns=\"http://www.w3.org/1999/xhtml\"><table class=\"hl7__eu__lab__report\"><tr><th>Specimen</th><th>Collection Date</th></tr><tr><td>Platelet poor plasma specimen</td><td><span class=\"nb\">25-Jul-2022</span></td></tr></table></div>"
        },
        "type": {
          "coding": [
            {
              "code": "119362004",
              "system": "http://snomed.info/sct",
              "display": "Platelet poor plasma specimen"
            }
          ]
        }
      }
    },
    {
      "fullUrl": "urn:uuid:451126f0-2a6d-40df-ae05-83ac56c0be14",
      "resource": {
        "resourceType": "Observation",
        "id": "451126f0-2a6d-40df-ae05-83ac56c0be14",
        "meta": {
          "profile": [
            "http://hl7.eu/fhir/laboratory/StructureDefinition/Observation-resultslab-eu-lab"
          ]
        },
        "performer": [
          {
            "display": "The Central European Lab"
          }
        ],
        "category": [
          {
            "coding": [
              {
                "system": "http://terminology.hl7.org/CodeSystem/observation-category",
                "code": "laboratory"
              }
            ]
          }
        ],
        "code": {
          "coding": [
            {
              "code": "6690-2",
              "system": "http://loinc.org",
              "display": "Leukocytes [#/volume] in Blood by Automated count"
            }
          ],
          "text": "Leukocytes [#/volume] in Blood by Automated count"
        },
        "valueQuantity": {
          "system": "http://unitsofmeasure.org",
          "value": 4,
          "unit": "10*3/uL",
          "code": "10*3/uL"
        },
        "referenceRange": [
          {
            "low": {
              "value": 4,
              "code": "10*3/uL",
              "system": "http://unitsofmeasure.org"
            }
          },
          {
            "high": {
              "value": 11,
              "code": "10*3/uL",
              "system": "http://unitsofmeasure.org"
            }
          }
        ],
        "text": {
          "status": "generated",
          "div": "<div xmlns=\"http://www.w3.org/1999/xhtml\"><table class=\"hl7__eu__lab__report\"><tr><th>Test</th><th>25-Jul-2022</th><th>Reference&#xA0;Range</th><th>Unit</th></tr><tr><td>Leukocytes [#/volume] in Blood by Automated count</td><td>4.0</td><td>4 - 11</td><td></td><td>10*3/uL</td></tr></table></div>"
        },
        "status": "final",
        "subject": {
          "reference": "urn:uuid:33e9e0b0-3d03-4cc0-ab69-c5c0f073f90a",
          "display": "Maria Nohlmans"
        },
        "effectiveDateTime": "2022-07-25T11:21:29Z",
        "specimen": {
          "reference": "urn:uuid:ad604160-5aea-412c-8861-c87543c0329b"
        }
      }
    },
    {
      "fullUrl": "urn:uuid:ab6602d6-d9c2-45cf-a1ae-e66f912f72ec",
      "resource": {
        "resourceType": "Observation",
        "id": "ab6602d6-d9c2-45cf-a1ae-e66f912f72ec",
        "meta": {
          "profile": [
            "http://hl7.eu/fhir/laboratory/StructureDefinition/Observation-resultslab-eu-lab"
          ]
        },
        "performer": [
          {
            "display": "The Central European Lab"
          }
        ],
        "category": [
          {
            "coding": [
              {
                "system": "http://terminology.hl7.org/CodeSystem/observation-category",
                "code": "laboratory"
              }
            ]
          }
        ],
        "code": {
          "coding": [
            {
              "code": "789-8",
              "system": "http://loinc.org",
              "display": "Erythrocytes [#/volume] in Blood by Automated count"
            }
          ],
          "text": "Erythrocytes [#/volume] in Blood by Automated count"
        },
        "valueQuantity": {
          "system": "http://unitsofmeasure.org",
          "value": 4.4,
          "unit": "10*6/uL",
          "code": "10*6/uL"
        },
        "referenceRange": [
          {
            "low": {
              "value": 3.9,
              "code": "10*6/uL",
              "system": "http://unitsofmeasure.org"
            }
          },
          {
            "high": {
              "value": 5.2,
              "code": "10*6/uL",
              "system": "http://unitsofmeasure.org"
            }
          }
        ],
        "text": {
          "status": "generated",
          "div": "<div xmlns=\"http://www.w3.org/1999/xhtml\"><table class=\"hl7__eu__lab__report\"><tr><th>Test</th><th>25-Jul-2022</th><th>Reference&#xA0;Range</th><th>Unit</th></tr><tr><td>Erythrocytes [#/volume] in Blood by Automated count</td><td>4.4</td><td>3.9 - 5.2</td><td></td><td>10*6/uL</td></tr></table></div>"
        },
        "status": "final",
        "subject": {
          "reference": "urn:uuid:33e9e0b0-3d03-4cc0-ab69-c5c0f073f90a",
          "display": "Maria Nohlmans"
        },
        "effectiveDateTime": "2022-07-25T11:21:29Z",
        "specimen": {
          "reference": "urn:uuid:ad604160-5aea-412c-8861-c87543c0329b"
        }
      }
    },
    {
      "fullUrl": "urn:uuid:2222dfff-7c1a-4305-b6eb-3b41df9c5a11",
      "resource": {
        "resourceType": "Observation",
        "id": "2222dfff-7c1a-4305-b6eb-3b41df9c5a11",
        "meta": {
          "profile": [
            "http://hl7.eu/fhir/laboratory/StructureDefinition/Observation-resultslab-eu-lab"
          ]
        },
        "performer": [
          {
            "display": "The Central European Lab"
          }
        ],
        "category": [
          {
            "coding": [
              {
                "system": "http://terminology.hl7.org/CodeSystem/observation-category",
                "code": "laboratory"
              }
            ]
          }
        ],
        "code": {
          "coding": [
            {
              "code": "718-7",
              "system": "http://loinc.org",
              "display": "Hemoglobin [Mass/volume] in Blood"
            }
          ],
          "text": "Hemoglobin [Mass/volume] in Blood"
        },
        "valueQuantity": {
          "system": "http://unitsofmeasure.org",
          "value": 14.1,
          "unit": "g/dL",
          "code": "g/dL"
        },
        "referenceRange": [
          {
            "low": {
              "value": 12,
              "code": "g/dL",
              "system": "http://unitsofmeasure.org"
            }
          },
          {
            "high": {
              "value": 15.5,
              "code": "g/dL",
              "system": "http://unitsofmeasure.org"
            }
          }
        ],
        "text": {
          "status": "generated",
          "div": "<div xmlns=\"http://www.w3.org/1999/xhtml\"><table class=\"hl7__eu__lab__report\"><tr><th>Test</th><th>25-Jul-2022</th><th>Reference&#xA0;Range</th><th>Unit</th></tr><tr><td>Hemoglobin [Mass/volume] in Blood</td><td>14.1</td><td>12 - 15.5</td><td></td><td>g/dL</td></tr></table></div>"
        },
        "status": "final",
        "subject": {
          "reference": "urn:uuid:33e9e0b0-3d03-4cc0-ab69-c5c0f073f90a",
          "display": "Maria Nohlmans"
        },
        "effectiveDateTime": "2022-07-25T11:21:29Z",
        "specimen": {
          "reference": "urn:uuid:ad604160-5aea-412c-8861-c87543c0329b"
        }
      }
    },
    {
      "fullUrl": "urn:uuid:03c56c20-2154-4832-b80f-a76023ca6ef5",
      "resource": {
        "resourceType": "Observation",
        "id": "03c56c20-2154-4832-b80f-a76023ca6ef5",
        "meta": {
          "profile": [
            "http://hl7.eu/fhir/laboratory/StructureDefinition/Observation-resultslab-eu-lab"
          ]
        },
        "performer": [
          {
            "display": "The Central European Lab"
          }
        ],
        "category": [
          {
            "coding": [
              {
                "system": "http://terminology.hl7.org/CodeSystem/observation-category",
                "code": "laboratory"
              }
            ]
          }
        ],
        "code": {
          "coding": [
            {
              "code": "4544-3",
              "system": "http://loinc.org",
              "display": "Hematocrit [Volume Fraction] of Blood by Automated count"
            }
          ],
          "text": "Hematocrit [Volume Fraction] of Blood by Automated count"
        },
        "valueQuantity": {
          "system": "http://unitsofmeasure.org",
          "value": 44.9,
          "unit": "%",
          "code": "%"
        },
        "referenceRange": [
          {
            "low": {
              "value": 38,
              "code": "%",
              "system": "http://unitsofmeasure.org"
            }
          },
          {
            "high": {
              "value": 54,
              "code": "%",
              "system": "http://unitsofmeasure.org"
            }
          }
        ],
        "text": {
          "status": "generated",
          "div": "<div xmlns=\"http://www.w3.org/1999/xhtml\"><table class=\"hl7__eu__lab__report\"><tr><th>Test</th><th>25-Jul-2022</th><th>Reference&#xA0;Range</th><th>Unit</th></tr><tr><td>Hematocrit [Volume Fraction] of Blood by Automated count</td><td>44.9</td><td>38 - 54</td><td></td><td>%</td></tr></table></div>"
        },
        "status": "final",
        "subject": {
          "reference": "urn:uuid:33e9e0b0-3d03-4cc0-ab69-c5c0f073f90a",
          "display": "Maria Nohlmans"
        },
        "effectiveDateTime": "2022-07-25T11:21:29Z",
        "specimen": {
          "reference": "urn:uuid:ad604160-5aea-412c-8861-c87543c0329b"
        }
      }
    },
    {
      "fullUrl": "urn:uuid:c1e3d09c-073b-4c9d-a4ba-cc0ef00489be",
      "resource": {
        "resourceType": "Observation",
        "id": "c1e3d09c-073b-4c9d-a4ba-cc0ef00489be",
        "meta": {
          "profile": [
            "http://hl7.eu/fhir/laboratory/StructureDefinition/Observation-resultslab-eu-lab"
          ]
        },
        "performer": [
          {
            "display": "The Central European Lab"
          }
        ],
        "category": [
          {
            "coding": [
              {
                "system": "http://terminology.hl7.org/CodeSystem/observation-category",
                "code": "laboratory"
              }
            ]
          }
        ],
        "code": {
          "coding": [
            {
              "code": "787-2",
              "system": "http://loinc.org",
              "display": "MCV [Entitic volume] by Automated count"
            }
          ],
          "text": "MCV [Entitic volume] by Automated count"
        },
        "valueQuantity": {
          "system": "http://unitsofmeasure.org",
          "value": 96,
          "unit": "fL",
          "code": "fL"
        },
        "referenceRange": [
          {
            "low": {
              "value": 78,
              "code": "fL",
              "system": "http://unitsofmeasure.org"
            }
          },
          {
            "high": {
              "value": 98,
              "code": "fL",
              "system": "http://unitsofmeasure.org"
            }
          }
        ],
        "text": {
          "status": "generated",
          "div": "<div xmlns=\"http://www.w3.org/1999/xhtml\"><table class=\"hl7__eu__lab__report\"><tr><th>Test</th><th>25-Jul-2022</th><th>Reference&#xA0;Range</th><th>Unit</th></tr><tr><td>MCV [Entitic volume] by Automated count</td><td>96.0</td><td>78 - 98</td><td></td><td>fL</td></tr></table></div>"
        },
        "status": "final",
        "subject": {
          "reference": "urn:uuid:33e9e0b0-3d03-4cc0-ab69-c5c0f073f90a",
          "display": "Maria Nohlmans"
        },
        "effectiveDateTime": "2022-07-25T11:21:29Z",
        "specimen": {
          "reference": "urn:uuid:ad604160-5aea-412c-8861-c87543c0329b"
        }
      }
    },
    {
      "fullUrl": "urn:uuid:cfc23151-0e2d-4641-ba38-ea572a188c05",
      "resource": {
        "resourceType": "Observation",
        "id": "cfc23151-0e2d-4641-ba38-ea572a188c05",
        "meta": {
          "profile": [
            "http://hl7.eu/fhir/laboratory/StructureDefinition/Observation-resultslab-eu-lab"
          ]
        },
        "performer": [
          {
            "display": "The Central European Lab"
          }
        ],
        "category": [
          {
            "coding": [
              {
                "system": "http://terminology.hl7.org/CodeSystem/observation-category",
                "code": "laboratory"
              }
            ]
          }
        ],
        "code": {
          "coding": [
            {
              "code": "785-6",
              "system": "http://loinc.org",
              "display": "MCH [Entitic mass] by Automated count"
            }
          ],
          "text": "MCH [Entitic mass] by Automated count"
        },
        "valueQuantity": {
          "system": "http://unitsofmeasure.org",
          "value": 30,
          "unit": "pg",
          "code": "pg"
        },
        "referenceRange": [
          {
            "low": {
              "value": 27,
              "code": "pg",
              "system": "http://unitsofmeasure.org"
            }
          },
          {
            "high": {
              "value": 33,
              "code": "pg",
              "system": "http://unitsofmeasure.org"
            }
          }
        ],
        "text": {
          "status": "generated",
          "div": "<div xmlns=\"http://www.w3.org/1999/xhtml\"><table class=\"hl7__eu__lab__report\"><tr><th>Test</th><th>25-Jul-2022</th><th>Reference&#xA0;Range</th><th>Unit</th></tr><tr><td>MCH [Entitic mass] by Automated count</td><td>30.0</td><td>27 - 33</td><td></td><td>pg</td></tr></table></div>"
        },
        "status": "final",
        "subject": {
          "reference": "urn:uuid:33e9e0b0-3d03-4cc0-ab69-c5c0f073f90a",
          "display": "Maria Nohlmans"
        },
        "effectiveDateTime": "2022-07-25T11:21:29Z",
        "specimen": {
          "reference": "urn:uuid:ad604160-5aea-412c-8861-c87543c0329b"
        }
      }
    },
    {
      "fullUrl": "urn:uuid:58f38ad9-de33-4869-85f8-0201090e75d3",
      "resource": {
        "resourceType": "Observation",
        "id": "58f38ad9-de33-4869-85f8-0201090e75d3",
        "meta": {
          "profile": [
            "http://hl7.eu/fhir/laboratory/StructureDefinition/Observation-resultslab-eu-lab"
          ]
        },
        "performer": [
          {
            "display": "The Central European Lab"
          }
        ],
        "category": [
          {
            "coding": [
              {
                "system": "http://terminology.hl7.org/CodeSystem/observation-category",
                "code": "laboratory"
              }
            ]
          }
        ],
        "code": {
          "coding": [
            {
              "code": "786-4",
              "system": "http://loinc.org",
              "display": "MCHC [Mass/volume] by Automated count"
            }
          ],
          "text": "MCHC [Mass/volume] by Automated count"
        },
        "valueQuantity": {
          "system": "http://unitsofmeasure.org",
          "value": 35.1,
          "unit": "g/dL",
          "code": "g/dL"
        },
        "referenceRange": [
          {
            "low": {
              "value": 31,
              "code": "g/dL",
              "system": "http://unitsofmeasure.org"
            }
          },
          {
            "high": {
              "value": 35,
              "code": "g/dL",
              "system": "http://unitsofmeasure.org"
            }
          }
        ],
        "interpretation": [
          {
            "coding": [
              {
                "code": "H",
                "system": "http://terminology.hl7.org/CodeSystem/v3-ObservationInterpretation",
                "display": "High"
              }
            ]
          }
        ],
        "text": {
          "status": "generated",
          "div": "<div xmlns=\"http://www.w3.org/1999/xhtml\"><table class=\"hl7__eu__lab__report\"><tr><th>Test</th><th>25-Jul-2022</th><th>Reference&#xA0;Range</th><th>Unit</th></tr><tr><td>MCHC [Mass/volume] by Automated count</td><td>35.1</td><td>31 - 35</td><td>H</td><td>g/dL</td></tr></table></div>"
        },
        "status": "final",
        "subject": {
          "reference": "urn:uuid:33e9e0b0-3d03-4cc0-ab69-c5c0f073f90a",
          "display": "Maria Nohlmans"
        },
        "effectiveDateTime": "2022-07-25T11:21:29Z",
        "specimen": {
          "reference": "urn:uuid:ad604160-5aea-412c-8861-c87543c0329b"
        }
      }
    },
    {
      "fullUrl": "urn:uuid:e0ed459c-5aab-475b-b505-5aedae967548",
      "resource": {
        "resourceType": "Observation",
        "id": "e0ed459c-5aab-475b-b505-5aedae967548",
        "meta": {
          "profile": [
            "http://hl7.eu/fhir/laboratory/StructureDefinition/Observation-resultslab-eu-lab"
          ]
        },
        "performer": [
          {
            "display": "The Central European Lab"
          }
        ],
        "category": [
          {
            "coding": [
              {
                "system": "http://terminology.hl7.org/CodeSystem/observation-category",
                "code": "laboratory"
              }
            ]
          }
        ],
        "code": {
          "coding": [
            {
              "code": "788-0",
              "system": "http://loinc.org",
              "display": "Erythrocyte distribution width [Ratio] by Automated count"
            }
          ],
          "text": "Erythrocyte distribution width [Ratio] by Automated count"
        },
        "valueQuantity": {
          "system": "http://unitsofmeasure.org",
          "value": 13.5,
          "unit": "%",
          "code": "%"
        },
        "referenceRange": [
          {
            "low": {
              "value": 11.5,
              "code": "%",
              "system": "http://unitsofmeasure.org"
            }
          },
          {
            "high": {
              "value": 16.5,
              "code": "%",
              "system": "http://unitsofmeasure.org"
            }
          }
        ],
        "text": {
          "status": "generated",
          "div": "<div xmlns=\"http://www.w3.org/1999/xhtml\"><table class=\"hl7__eu__lab__report\"><tr><th>Test</th><th>25-Jul-2022</th><th>Reference&#xA0;Range</th><th>Unit</th></tr><tr><td>Erythrocyte distribution width [Ratio] by Automated count</td><td>13.5</td><td>11.5 - 16.5</td><td></td><td>%</td></tr></table></div>"
        },
        "status": "final",
        "subject": {
          "reference": "urn:uuid:33e9e0b0-3d03-4cc0-ab69-c5c0f073f90a",
          "display": "Maria Nohlmans"
        },
        "effectiveDateTime": "2022-07-25T11:21:29Z",
        "specimen": {
          "reference": "urn:uuid:ad604160-5aea-412c-8861-c87543c0329b"
        }
      }
    },
    {
      "fullUrl": "urn:uuid:3f0e3c8d-7625-4b97-aa1b-627c6a520af6",
      "resource": {
        "resourceType": "Observation",
        "id": "3f0e3c8d-7625-4b97-aa1b-627c6a520af6",
        "meta": {
          "profile": [
            "http://hl7.eu/fhir/laboratory/StructureDefinition/Observation-resultslab-eu-lab"
          ]
        },
        "performer": [
          {
            "display": "The Central European Lab"
          }
        ],
        "category": [
          {
            "coding": [
              {
                "system": "http://terminology.hl7.org/CodeSystem/observation-category",
                "code": "laboratory"
              }
            ]
          }
        ],
        "code": {
          "coding": [
            {
              "code": "777-3",
              "system": "http://loinc.org",
              "display": "Platelets [#/volume] in Blood by Automated count"
            }
          ],
          "text": "Platelets [#/volume] in Blood by Automated count"
        },
        "valueQuantity": {
          "system": "http://unitsofmeasure.org",
          "value": 113.7,
          "unit": "10*3/uL",
          "code": "10*3/uL"
        },
        "referenceRange": [
          {
            "low": {
              "value": 150,
              "code": "10*3/uL",
              "system": "http://unitsofmeasure.org"
            }
          },
          {
            "high": {
              "value": 450,
              "code": "10*3/uL",
              "system": "http://unitsofmeasure.org"
            }
          }
        ],
        "interpretation": [
          {
            "coding": [
              {
                "code": "L",
                "system": "http://terminology.hl7.org/CodeSystem/v3-ObservationInterpretation",
                "display": "Low"
              }
            ]
          }
        ],
        "text": {
          "status": "generated",
          "div": "<div xmlns=\"http://www.w3.org/1999/xhtml\"><table class=\"hl7__eu__lab__report\"><tr><th>Test</th><th>25-Jul-2022</th><th>Reference&#xA0;Range</th><th>Unit</th></tr><tr><td>Platelets [#/volume] in Blood by Automated count</td><td>113.7</td><td>150 - 450</td><td>L</td><td>10*3/uL</td></tr></table></div>"
        },
        "status": "final",
        "subject": {
          "reference": "urn:uuid:33e9e0b0-3d03-4cc0-ab69-c5c0f073f90a",
          "display": "Maria Nohlmans"
        },
        "effectiveDateTime": "2022-07-25T11:21:29Z",
        "specimen": {
          "reference": "urn:uuid:ad604160-5aea-412c-8861-c87543c0329b"
        }
      }
    },
    {
      "fullUrl": "urn:uuid:0ffa67d7-abc0-459c-9fea-28cd7968d621",
      "resource": {
        "resourceType": "Observation",
        "id": "0ffa67d7-abc0-459c-9fea-28cd7968d621",
        "meta": {
          "profile": [
            "http://hl7.eu/fhir/laboratory/StructureDefinition/Observation-resultslab-eu-lab"
          ]
        },
        "performer": [
          {
            "display": "The Central European Lab"
          }
        ],
        "category": [
          {
            "coding": [
              {
                "system": "http://terminology.hl7.org/CodeSystem/observation-category",
                "code": "laboratory"
              }
            ]
          }
        ],
        "code": {
          "coding": [
            {
              "code": "2345-7",
              "system": "http://loinc.org",
              "display": "Glucose [Mass/volume] in Serum or Plasma"
            }
          ],
          "text": "Glucose [Mass/volume] in Serum or Plasma"
        },
        "valueQuantity": {
          "system": "http://unitsofmeasure.org",
          "value": 89.9,
          "unit": "mg/dL",
          "code": "mg/dL"
        },
        "referenceRange": [
          {
            "low": {
              "value": 70,
              "code": "mg/dL",
              "system": "http://unitsofmeasure.org"
            }
          },
          {
            "high": {
              "value": 140,
              "code": "mg/dL",
              "system": "http://unitsofmeasure.org"
            }
          }
        ],
        "text": {
          "status": "generated",
          "div": "<div xmlns=\"http://www.w3.org/1999/xhtml\"><table class=\"hl7__eu__lab__report\"><tr><th>Test</th><th>25-Jul-2022</th><th>Reference&#xA0;Range</th><th>Unit</th></tr><tr><td>Glucose [Mass/volume] in Serum or Plasma</td><td>89.9</td><td>70 - 140</td><td></td><td>mg/dL</td></tr></table></div>"
        },
        "status": "final",
        "subject": {
          "reference": "urn:uuid:33e9e0b0-3d03-4cc0-ab69-c5c0f073f90a",
          "display": "Maria Nohlmans"
        },
        "effectiveDateTime": "2022-07-25T11:21:29Z",
        "specimen": {
          "reference": "urn:uuid:f0acc4cb-d06b-4db5-9c21-7add55a6f5c5"
        }
      }
    },
    {
      "fullUrl": "urn:uuid:5fadfa57-a848-466e-838f-b2329bc0f97b",
      "resource": {
        "resourceType": "Observation",
        "id": "5fadfa57-a848-466e-838f-b2329bc0f97b",
        "meta": {
          "profile": [
            "http://hl7.eu/fhir/laboratory/StructureDefinition/Observation-resultslab-eu-lab"
          ]
        },
        "performer": [
          {
            "display": "The Central European Lab"
          }
        ],
        "category": [
          {
            "coding": [
              {
                "system": "http://terminology.hl7.org/CodeSystem/observation-category",
                "code": "laboratory"
              }
            ]
          }
        ],
        "code": {
          "coding": [
            {
              "code": "3094-0",
              "system": "http://loinc.org",
              "display": "Urea nitrogen [Mass/volume] in Serum or Plasma"
            }
          ],
          "text": "Urea nitrogen [Mass/volume] in Serum or Plasma"
        },
        "valueQuantity": {
          "system": "http://unitsofmeasure.org",
          "value": 19.7,
          "unit": "mg/dL",
          "code": "mg/dL"
        },
        "referenceRange": [
          {
            "low": {
              "value": 7,
              "code": "mg/dL",
              "system": "http://unitsofmeasure.org"
            }
          },
          {
            "high": {
              "value": 20,
              "code": "mg/dL",
              "system": "http://unitsofmeasure.org"
            }
          }
        ],
        "text": {
          "status": "generated",
          "div": "<div xmlns=\"http://www.w3.org/1999/xhtml\"><table class=\"hl7__eu__lab__report\"><tr><th>Test</th><th>25-Jul-2022</th><th>Reference&#xA0;Range</th><th>Unit</th></tr><tr><td>Urea nitrogen [Mass/volume] in Serum or Plasma</td><td>19.7</td><td>7 - 20</td><td></td><td>mg/dL</td></tr></table></div>"
        },
        "status": "final",
        "subject": {
          "reference": "urn:uuid:33e9e0b0-3d03-4cc0-ab69-c5c0f073f90a",
          "display": "Maria Nohlmans"
        },
        "effectiveDateTime": "2022-07-25T11:21:29Z",
        "specimen": {
          "reference": "urn:uuid:f0acc4cb-d06b-4db5-9c21-7add55a6f5c5"
        }
      }
    },
    {
      "fullUrl": "urn:uuid:3d462b8a-1f2a-4f59-a23f-ae8d4e388505",
      "resource": {
        "resourceType": "Observation",
        "id": "3d462b8a-1f2a-4f59-a23f-ae8d4e388505",
        "meta": {
          "profile": [
            "http://hl7.eu/fhir/laboratory/StructureDefinition/Observation-resultslab-eu-lab"
          ]
        },
        "performer": [
          {
            "display": "The Central European Lab"
          }
        ],
        "category": [
          {
            "coding": [
              {
                "system": "http://terminology.hl7.org/CodeSystem/observation-category",
                "code": "laboratory"
              }
            ]
          }
        ],
        "code": {
          "coding": [
            {
              "code": "2160-0",
              "system": "http://loinc.org",
              "display": "Creatinine [Mass/volume] in Serum or Plasma"
            }
          ],
          "text": "Creatinine [Mass/volume] in Serum or Plasma"
        },
        "valueQuantity": {
          "system": "http://unitsofmeasure.org",
          "value": 2.9,
          "unit": "mg/dL",
          "code": "mg/dL"
        },
        "referenceRange": [
          {
            "low": {
              "value": 0.6,
              "code": "mg/dL",
              "system": "http://unitsofmeasure.org"
            }
          },
          {
            "high": {
              "value": 1.3,
              "code": "mg/dL",
              "system": "http://unitsofmeasure.org"
            }
          }
        ],
        "interpretation": [
          {
            "coding": [
              {
                "code": "H",
                "system": "http://terminology.hl7.org/CodeSystem/v3-ObservationInterpretation",
                "display": "High"
              }
            ]
          }
        ],
        "text": {
          "status": "generated",
          "div": "<div xmlns=\"http://www.w3.org/1999/xhtml\"><table class=\"hl7__eu__lab__report\"><tr><th>Test</th><th>25-Jul-2022</th><th>Reference&#xA0;Range</th><th>Unit</th></tr><tr><td>Creatinine [Mass/volume] in Serum or Plasma</td><td>2.9</td><td>0.6 - 1.3</td><td>H</td><td>mg/dL</td></tr></table></div>"
        },
        "status": "final",
        "subject": {
          "reference": "urn:uuid:33e9e0b0-3d03-4cc0-ab69-c5c0f073f90a",
          "display": "Maria Nohlmans"
        },
        "effectiveDateTime": "2022-07-25T11:21:29Z",
        "specimen": {
          "reference": "urn:uuid:f0acc4cb-d06b-4db5-9c21-7add55a6f5c5"
        }
      }
    },
    {
      "fullUrl": "urn:uuid:20c8478d-4041-46b7-9dcc-95e763e0e5ea",
      "resource": {
        "resourceType": "Observation",
        "id": "20c8478d-4041-46b7-9dcc-95e763e0e5ea",
        "meta": {
          "profile": [
            "http://hl7.eu/fhir/laboratory/StructureDefinition/Observation-resultslab-eu-lab"
          ]
        },
        "performer": [
          {
            "display": "The Central European Lab"
          }
        ],
        "category": [
          {
            "coding": [
              {
                "system": "http://terminology.hl7.org/CodeSystem/observation-category",
                "code": "laboratory"
              }
            ]
          }
        ],
        "code": {
          "coding": [
            {
              "code": "17861-6",
              "system": "http://loinc.org",
              "display": "Calcium [Mass/volume] in Serum or Plasma"
            }
          ],
          "text": "Calcium [Mass/volume] in Serum or Plasma"
        },
        "valueQuantity": {
          "system": "http://unitsofmeasure.org",
          "value": 10,
          "unit": "mg/dL",
          "code": "mg/dL"
        },
        "referenceRange": [
          {
            "low": {
              "value": 8.6,
              "code": "mg/dL",
              "system": "http://unitsofmeasure.org"
            }
          },
          {
            "high": {
              "value": 10.4,
              "code": "mg/dL",
              "system": "http://unitsofmeasure.org"
            }
          }
        ],
        "text": {
          "status": "generated",
          "div": "<div xmlns=\"http://www.w3.org/1999/xhtml\"><table class=\"hl7__eu__lab__report\"><tr><th>Test</th><th>25-Jul-2022</th><th>Reference&#xA0;Range</th><th>Unit</th></tr><tr><td>Calcium [Mass/volume] in Serum or Plasma</td><td>10.0</td><td>8.6 - 10.4</td><td></td><td>mg/dL</td></tr></table></div>"
        },
        "status": "final",
        "subject": {
          "reference": "urn:uuid:33e9e0b0-3d03-4cc0-ab69-c5c0f073f90a",
          "display": "Maria Nohlmans"
        },
        "effectiveDateTime": "2022-07-25T11:21:29Z",
        "specimen": {
          "reference": "urn:uuid:f0acc4cb-d06b-4db5-9c21-7add55a6f5c5"
        }
      }
    },
    {
      "fullUrl": "urn:uuid:9c69f4d5-1759-49e2-a872-9776625fe3f8",
      "resource": {
        "resourceType": "Observation",
        "id": "9c69f4d5-1759-49e2-a872-9776625fe3f8",
        "meta": {
          "profile": [
            "http://hl7.eu/fhir/laboratory/StructureDefinition/Observation-resultslab-eu-lab"
          ]
        },
        "performer": [
          {
            "display": "The Central European Lab"
          }
        ],
        "category": [
          {
            "coding": [
              {
                "system": "http://terminology.hl7.org/CodeSystem/observation-category",
                "code": "laboratory"
              }
            ]
          }
        ],
        "code": {
          "coding": [
            {
              "code": "2951-2",
              "system": "http://loinc.org",
              "display": "Sodium [Moles/volume] in Serum or Plasma"
            }
          ],
          "text": "Sodium [Moles/volume] in Serum or Plasma"
        },
        "valueQuantity": {
          "system": "http://unitsofmeasure.org",
          "value": 136.1,
          "unit": "mmol/L",
          "code": "mmol/L"
        },
        "referenceRange": [
          {
            "low": {
              "value": 135,
              "code": "mmol/L",
              "system": "http://unitsofmeasure.org"
            }
          },
          {
            "high": {
              "value": 145,
              "code": "mmol/L",
              "system": "http://unitsofmeasure.org"
            }
          }
        ],
        "text": {
          "status": "generated",
          "div": "<div xmlns=\"http://www.w3.org/1999/xhtml\"><table class=\"hl7__eu__lab__report\"><tr><th>Test</th><th>25-Jul-2022</th><th>Reference&#xA0;Range</th><th>Unit</th></tr><tr><td>Sodium [Moles/volume] in Serum or Plasma</td><td>136.1</td><td>135 - 145</td><td></td><td>mmol/L</td></tr></table></div>"
        },
        "status": "final",
        "subject": {
          "reference": "urn:uuid:33e9e0b0-3d03-4cc0-ab69-c5c0f073f90a",
          "display": "Maria Nohlmans"
        },
        "effectiveDateTime": "2022-07-25T11:21:29Z",
        "specimen": {
          "reference": "urn:uuid:f0acc4cb-d06b-4db5-9c21-7add55a6f5c5"
        }
      }
    },
    {
      "fullUrl": "urn:uuid:fa20d9af-cdb1-40cd-9257-bd5a36e3a22b",
      "resource": {
        "resourceType": "Observation",
        "id": "fa20d9af-cdb1-40cd-9257-bd5a36e3a22b",
        "meta": {
          "profile": [
            "http://hl7.eu/fhir/laboratory/StructureDefinition/Observation-resultslab-eu-lab"
          ]
        },
        "performer": [
          {
            "display": "The Central European Lab"
          }
        ],
        "category": [
          {
            "coding": [
              {
                "system": "http://terminology.hl7.org/CodeSystem/observation-category",
                "code": "laboratory"
              }
            ]
          }
        ],
        "code": {
          "coding": [
            {
              "code": "2823-3",
              "system": "http://loinc.org",
              "display": "Potassium [Moles/volume] in Serum or Plasma"
            }
          ],
          "text": "Potassium [Moles/volume] in Serum or Plasma"
        },
        "valueQuantity": {
          "system": "http://unitsofmeasure.org",
          "value": 5.1,
          "unit": "mmol/L",
          "code": "mmol/L"
        },
        "referenceRange": [
          {
            "low": {
              "value": 3.5,
              "code": "mmol/L",
              "system": "http://unitsofmeasure.org"
            }
          },
          {
            "high": {
              "value": 5.1,
              "code": "mmol/L",
              "system": "http://unitsofmeasure.org"
            }
          }
        ],
        "text": {
          "status": "generated",
          "div": "<div xmlns=\"http://www.w3.org/1999/xhtml\"><table class=\"hl7__eu__lab__report\"><tr><th>Test</th><th>25-Jul-2022</th><th>Reference&#xA0;Range</th><th>Unit</th></tr><tr><td>Potassium [Moles/volume] in Serum or Plasma</td><td>5.1</td><td>3.5 - 5.1</td><td></td><td>mmol/L</td></tr></table></div>"
        },
        "status": "final",
        "subject": {
          "reference": "urn:uuid:33e9e0b0-3d03-4cc0-ab69-c5c0f073f90a",
          "display": "Maria Nohlmans"
        },
        "effectiveDateTime": "2022-07-25T11:21:29Z",
        "specimen": {
          "reference": "urn:uuid:f0acc4cb-d06b-4db5-9c21-7add55a6f5c5"
        }
      }
    },
    {
      "fullUrl": "urn:uuid:c8f43cd2-ff1c-4d3a-9f4a-2068d4f880c7",
      "resource": {
        "resourceType": "Observation",
        "id": "c8f43cd2-ff1c-4d3a-9f4a-2068d4f880c7",
        "meta": {
          "profile": [
            "http://hl7.eu/fhir/laboratory/StructureDefinition/Observation-resultslab-eu-lab"
          ]
        },
        "performer": [
          {
            "display": "The Central European Lab"
          }
        ],
        "category": [
          {
            "coding": [
              {
                "system": "http://terminology.hl7.org/CodeSystem/observation-category",
                "code": "laboratory"
              }
            ]
          }
        ],
        "code": {
          "coding": [
            {
              "code": "2075-0",
              "system": "http://loinc.org",
              "display": "Chloride [Moles/volume] in Serum or Plasma"
            }
          ],
          "text": "Chloride [Moles/volume] in Serum or Plasma"
        },
        "valueQuantity": {
          "system": "http://unitsofmeasure.org",
          "value": 102.1,
          "unit": "mmol/L",
          "code": "mmol/L"
        },
        "referenceRange": [
          {
            "low": {
              "value": 98,
              "code": "mmol/L",
              "system": "http://unitsofmeasure.org"
            }
          },
          {
            "high": {
              "value": 108,
              "code": "mmol/L",
              "system": "http://unitsofmeasure.org"
            }
          }
        ],
        "text": {
          "status": "generated",
          "div": "<div xmlns=\"http://www.w3.org/1999/xhtml\"><table class=\"hl7__eu__lab__report\"><tr><th>Test</th><th>25-Jul-2022</th><th>Reference&#xA0;Range</th><th>Unit</th></tr><tr><td>Chloride [Moles/volume] in Serum or Plasma</td><td>102.1</td><td>98 - 108</td><td></td><td>mmol/L</td></tr></table></div>"
        },
        "status": "final",
        "subject": {
          "reference": "urn:uuid:33e9e0b0-3d03-4cc0-ab69-c5c0f073f90a",
          "display": "Maria Nohlmans"
        },
        "effectiveDateTime": "2022-07-25T11:21:29Z",
        "specimen": {
          "reference": "urn:uuid:f0acc4cb-d06b-4db5-9c21-7add55a6f5c5"
        }
      }
    },
    {
      "fullUrl": "urn:uuid:e3b82db2-5276-4c6a-a3c8-e21fed8b57cd",
      "resource": {
        "resourceType": "Observation",
        "id": "e3b82db2-5276-4c6a-a3c8-e21fed8b57cd",
        "meta": {
          "profile": [
            "http://hl7.eu/fhir/laboratory/StructureDefinition/Observation-resultslab-eu-lab"
          ]
        },
        "performer": [
          {
            "display": "The Central European Lab"
          }
        ],
        "category": [
          {
            "coding": [
              {
                "system": "http://terminology.hl7.org/CodeSystem/observation-category",
                "code": "laboratory"
              }
            ]
          }
        ],
        "code": {
          "coding": [
            {
              "code": "2028-9",
              "system": "http://loinc.org",
              "display": "Carbon dioxide, total [Moles/volume] in Serum or Plasma"
            }
          ],
          "text": "Carbon dioxide, total [Moles/volume] in Serum or Plasma"
        },
        "valueQuantity": {
          "system": "http://unitsofmeasure.org",
          "value": 20.4,
          "unit": "mmol/L",
          "code": "mmol/L"
        },
        "referenceRange": [
          {
            "low": {
              "value": 22,
              "code": "mmol/L",
              "system": "http://unitsofmeasure.org"
            }
          },
          {
            "high": {
              "value": 32,
              "code": "mmol/L",
              "system": "http://unitsofmeasure.org"
            }
          }
        ],
        "interpretation": [
          {
            "coding": [
              {
                "code": "L",
                "system": "http://terminology.hl7.org/CodeSystem/v3-ObservationInterpretation",
                "display": "Low"
              }
            ]
          }
        ],
        "text": {
          "status": "generated",
          "div": "<div xmlns=\"http://www.w3.org/1999/xhtml\"><table class=\"hl7__eu__lab__report\"><tr><th>Test</th><th>25-Jul-2022</th><th>Reference&#xA0;Range</th><th>Unit</th></tr><tr><td>Carbon dioxide, total [Moles/volume] in Serum or Plasma</td><td>20.4</td><td>22 - 32</td><td>L</td><td>mmol/L</td></tr></table></div>"
        },
        "status": "final",
        "subject": {
          "reference": "urn:uuid:33e9e0b0-3d03-4cc0-ab69-c5c0f073f90a",
          "display": "Maria Nohlmans"
        },
        "effectiveDateTime": "2022-07-25T11:21:29Z",
        "specimen": {
          "reference": "urn:uuid:f0acc4cb-d06b-4db5-9c21-7add55a6f5c5"
        }
      }
    },
    {
      "fullUrl": "urn:uuid:49bd47de-d274-4c4f-af87-5640352f42e2",
      "resource": {
        "resourceType": "Observation",
        "id": "49bd47de-d274-4c4f-af87-5640352f42e2",
        "meta": {
          "profile": [
            "http://hl7.eu/fhir/laboratory/StructureDefinition/Observation-resultslab-eu-lab"
          ]
        },
        "performer": [
          {
            "display": "The Central European Lab"
          }
        ],
        "category": [
          {
            "coding": [
              {
                "system": "http://terminology.hl7.org/CodeSystem/observation-category",
                "code": "laboratory"
              }
            ]
          }
        ],
        "code": {
          "coding": [
            {
              "code": "2885-2",
              "system": "http://loinc.org",
              "display": "Protein [Mass/volume] in Serum or Plasma"
            }
          ],
          "text": "Protein [Mass/volume] in Serum or Plasma"
        },
        "valueQuantity": {
          "system": "http://unitsofmeasure.org",
          "value": 6.5,
          "unit": "g/dL",
          "code": "g/dL"
        },
        "referenceRange": [
          {
            "low": {
              "value": 6,
              "code": "g/dL",
              "system": "http://unitsofmeasure.org"
            }
          },
          {
            "high": {
              "value": 8.3,
              "code": "g/dL",
              "system": "http://unitsofmeasure.org"
            }
          }
        ],
        "text": {
          "status": "generated",
          "div": "<div xmlns=\"http://www.w3.org/1999/xhtml\"><table class=\"hl7__eu__lab__report\"><tr><th>Test</th><th>25-Jul-2022</th><th>Reference&#xA0;Range</th><th>Unit</th></tr><tr><td>Protein [Mass/volume] in Serum or Plasma</td><td>6.5</td><td>6 - 8.3</td><td></td><td>g/dL</td></tr></table></div>"
        },
        "status": "final",
        "subject": {
          "reference": "urn:uuid:33e9e0b0-3d03-4cc0-ab69-c5c0f073f90a",
          "display": "Maria Nohlmans"
        },
        "effectiveDateTime": "2022-07-25T11:21:29Z",
        "specimen": {
          "reference": "urn:uuid:f0acc4cb-d06b-4db5-9c21-7add55a6f5c5"
        }
      }
    },
    {
      "fullUrl": "urn:uuid:d457dc8a-6c92-40a8-85f3-192b97cbe056",
      "resource": {
        "resourceType": "Observation",
        "id": "d457dc8a-6c92-40a8-85f3-192b97cbe056",
        "meta": {
          "profile": [
            "http://hl7.eu/fhir/laboratory/StructureDefinition/Observation-resultslab-eu-lab"
          ]
        },
        "performer": [
          {
            "display": "The Central European Lab"
          }
        ],
        "category": [
          {
            "coding": [
              {
                "system": "http://terminology.hl7.org/CodeSystem/observation-category",
                "code": "laboratory"
              }
            ]
          }
        ],
        "code": {
          "coding": [
            {
              "code": "1751-7",
              "system": "http://loinc.org",
              "display": "Albumin [Mass/volume] in Serum or Plasma"
            }
          ],
          "text": "Albumin [Mass/volume] in Serum or Plasma"
        },
        "valueQuantity": {
          "system": "http://unitsofmeasure.org",
          "value": 4.8,
          "unit": "g/dL",
          "code": "g/dL"
        },
        "referenceRange": [
          {
            "low": {
              "value": 3.5,
              "code": "g/dL",
              "system": "http://unitsofmeasure.org"
            }
          },
          {
            "high": {
              "value": 5.5,
              "code": "g/dL",
              "system": "http://unitsofmeasure.org"
            }
          }
        ],
        "text": {
          "status": "generated",
          "div": "<div xmlns=\"http://www.w3.org/1999/xhtml\"><table class=\"hl7__eu__lab__report\"><tr><th>Test</th><th>25-Jul-2022</th><th>Reference&#xA0;Range</th><th>Unit</th></tr><tr><td>Albumin [Mass/volume] in Serum or Plasma</td><td>4.8</td><td>3.5 - 5.5</td><td></td><td>g/dL</td></tr></table></div>"
        },
        "status": "final",
        "subject": {
          "reference": "urn:uuid:33e9e0b0-3d03-4cc0-ab69-c5c0f073f90a",
          "display": "Maria Nohlmans"
        },
        "effectiveDateTime": "2022-07-25T11:21:29Z",
        "specimen": {
          "reference": "urn:uuid:f0acc4cb-d06b-4db5-9c21-7add55a6f5c5"
        }
      }
    },
    {
      "fullUrl": "urn:uuid:dba0b3d8-de8d-459f-ba68-8d2a44130f8e",
      "resource": {
        "resourceType": "Observation",
        "id": "dba0b3d8-de8d-459f-ba68-8d2a44130f8e",
        "meta": {
          "profile": [
            "http://hl7.eu/fhir/laboratory/StructureDefinition/Observation-resultslab-eu-lab"
          ]
        },
        "performer": [
          {
            "display": "The Central European Lab"
          }
        ],
        "category": [
          {
            "coding": [
              {
                "system": "http://terminology.hl7.org/CodeSystem/observation-category",
                "code": "laboratory"
              }
            ]
          }
        ],
        "code": {
          "coding": [
            {
              "code": "1975-2",
              "system": "http://loinc.org",
              "display": "Bilirubin.total [Mass/volume] in Serum or Plasma"
            }
          ],
          "text": "Bilirubin.total [Mass/volume] in Serum or Plasma"
        },
        "valueQuantity": {
          "system": "http://unitsofmeasure.org",
          "value": 12.7,
          "unit": "mg/dL",
          "code": "mg/dL"
        },
        "referenceRange": [
          {
            "low": {
              "value": 0.3,
              "code": "mg/dL",
              "system": "http://unitsofmeasure.org"
            }
          },
          {
            "high": {
              "value": 1.2,
              "code": "mg/dL",
              "system": "http://unitsofmeasure.org"
            }
          }
        ],
        "interpretation": [
          {
            "coding": [
              {
                "code": "H",
                "system": "http://terminology.hl7.org/CodeSystem/v3-ObservationInterpretation",
                "display": "High"
              }
            ]
          }
        ],
        "text": {
          "status": "generated",
          "div": "<div xmlns=\"http://www.w3.org/1999/xhtml\"><table class=\"hl7__eu__lab__report\"><tr><th>Test</th><th>25-Jul-2022</th><th>Reference&#xA0;Range</th><th>Unit</th></tr><tr><td>Bilirubin.total [Mass/volume] in Serum or Plasma</td><td>12.7</td><td>0.3 - 1.2</td><td>H</td><td>mg/dL</td></tr></table></div>"
        },
        "status": "final",
        "subject": {
          "reference": "urn:uuid:33e9e0b0-3d03-4cc0-ab69-c5c0f073f90a",
          "display": "Maria Nohlmans"
        },
        "effectiveDateTime": "2022-07-25T11:21:29Z",
        "specimen": {
          "reference": "urn:uuid:f0acc4cb-d06b-4db5-9c21-7add55a6f5c5"
        }
      }
    },
    {
      "fullUrl": "urn:uuid:28bfdbd9-35e2-41e5-a0a9-59ae695a1182",
      "resource": {
        "resourceType": "Observation",
        "id": "28bfdbd9-35e2-41e5-a0a9-59ae695a1182",
        "meta": {
          "profile": [
            "http://hl7.eu/fhir/laboratory/StructureDefinition/Observation-resultslab-eu-lab"
          ]
        },
        "performer": [
          {
            "display": "The Central European Lab"
          }
        ],
        "category": [
          {
            "coding": [
              {
                "system": "http://terminology.hl7.org/CodeSystem/observation-category",
                "code": "laboratory"
              }
            ]
          }
        ],
        "code": {
          "coding": [
            {
              "code": "6768-6",
              "system": "http://loinc.org",
              "display": "Alkaline phosphatase [Enzymatic activity/volume] in Serum or Plasma"
            }
          ],
          "text": "Alkaline phosphatase [Enzymatic activity/volume] in Serum or Plasma"
        },
        "valueQuantity": {
          "system": "http://unitsofmeasure.org",
          "value": 56.7,
          "unit": "U/L",
          "code": "U/L"
        },
        "referenceRange": [
          {
            "low": {
              "value": 44,
              "code": "U/L",
              "system": "http://unitsofmeasure.org"
            }
          },
          {
            "high": {
              "value": 142,
              "code": "U/L",
              "system": "http://unitsofmeasure.org"
            }
          }
        ],
        "text": {
          "status": "generated",
          "div": "<div xmlns=\"http://www.w3.org/1999/xhtml\"><table class=\"hl7__eu__lab__report\"><tr><th>Test</th><th>25-Jul-2022</th><th>Reference&#xA0;Range</th><th>Unit</th></tr><tr><td>Alkaline phosphatase [Enzymatic activity/volume] in Serum or Plasma</td><td>56.7</td><td>44 - 142</td><td></td><td>U/L</td></tr></table></div>"
        },
        "status": "final",
        "subject": {
          "reference": "urn:uuid:33e9e0b0-3d03-4cc0-ab69-c5c0f073f90a",
          "display": "Maria Nohlmans"
        },
        "effectiveDateTime": "2022-07-25T11:21:29Z",
        "specimen": {
          "reference": "urn:uuid:f0acc4cb-d06b-4db5-9c21-7add55a6f5c5"
        }
      }
    },
    {
      "fullUrl": "urn:uuid:756fb25c-0e87-4b47-9110-009cc022aada",
      "resource": {
        "resourceType": "Observation",
        "id": "756fb25c-0e87-4b47-9110-009cc022aada",
        "meta": {
          "profile": [
            "http://hl7.eu/fhir/laboratory/StructureDefinition/Observation-resultslab-eu-lab"
          ]
        },
        "performer": [
          {
            "display": "The Central European Lab"
          }
        ],
        "category": [
          {
            "coding": [
              {
                "system": "http://terminology.hl7.org/CodeSystem/observation-category",
                "code": "laboratory"
              }
            ]
          }
        ],
        "code": {
          "coding": [
            {
              "code": "1742-6",
              "system": "http://loinc.org",
              "display": "Alanine aminotransferase [Enzymatic activity/volume] in Serum or Plasma"
            }
          ],
          "text": "Alanine aminotransferase [Enzymatic activity/volume] in Serum or Plasma"
        },
        "valueQuantity": {
          "system": "http://unitsofmeasure.org",
          "value": 0.6,
          "unit": "U/L",
          "code": "U/L"
        },
        "referenceRange": [
          {
            "low": {
              "value": 7,
              "code": "U/L",
              "system": "http://unitsofmeasure.org"
            }
          },
          {
            "high": {
              "value": 40,
              "code": "U/L",
              "system": "http://unitsofmeasure.org"
            }
          }
        ],
        "interpretation": [
          {
            "coding": [
              {
                "code": "L",
                "system": "http://terminology.hl7.org/CodeSystem/v3-ObservationInterpretation",
                "display": "Low"
              }
            ]
          }
        ],
        "text": {
          "status": "generated",
          "div": "<div xmlns=\"http://www.w3.org/1999/xhtml\"><table class=\"hl7__eu__lab__report\"><tr><th>Test</th><th>25-Jul-2022</th><th>Reference&#xA0;Range</th><th>Unit</th></tr><tr><td>Alanine aminotransferase [Enzymatic activity/volume] in Serum or Plasma</td><td>0.6</td><td>7 - 40</td><td>L</td><td>U/L</td></tr></table></div>"
        },
        "status": "final",
        "subject": {
          "reference": "urn:uuid:33e9e0b0-3d03-4cc0-ab69-c5c0f073f90a",
          "display": "Maria Nohlmans"
        },
        "effectiveDateTime": "2022-07-25T11:21:29Z",
        "specimen": {
          "reference": "urn:uuid:f0acc4cb-d06b-4db5-9c21-7add55a6f5c5"
        }
      }
    },
    {
      "fullUrl": "urn:uuid:e745a835-6763-486d-92b3-d97a727549a3",
      "resource": {
        "resourceType": "Observation",
        "id": "e745a835-6763-486d-92b3-d97a727549a3",
        "meta": {
          "profile": [
            "http://hl7.eu/fhir/laboratory/StructureDefinition/Observation-resultslab-eu-lab"
          ]
        },
        "performer": [
          {
            "display": "The Central European Lab"
          }
        ],
        "category": [
          {
            "coding": [
              {
                "system": "http://terminology.hl7.org/CodeSystem/observation-category",
                "code": "laboratory"
              }
            ]
          }
        ],
        "code": {
          "coding": [
            {
              "code": "1920-8",
              "system": "http://loinc.org",
              "display": "Aspartate aminotransferase [Enzymatic activity/volume] in Serum or Plasma"
            }
          ],
          "text": "Aspartate aminotransferase [Enzymatic activity/volume] in Serum or Plasma"
        },
        "valueQuantity": {
          "system": "http://unitsofmeasure.org",
          "value": 6.3,
          "unit": "U/L",
          "code": "U/L"
        },
        "referenceRange": [
          {
            "low": {
              "value": 10,
              "code": "U/L",
              "system": "http://unitsofmeasure.org"
            }
          },
          {
            "high": {
              "value": 40,
              "code": "U/L",
              "system": "http://unitsofmeasure.org"
            }
          }
        ],
        "interpretation": [
          {
            "coding": [
              {
                "code": "L",
                "system": "http://terminology.hl7.org/CodeSystem/v3-ObservationInterpretation",
                "display": "Low"
              }
            ]
          }
        ],
        "text": {
          "status": "generated",
          "div": "<div xmlns=\"http://www.w3.org/1999/xhtml\"><table class=\"hl7__eu__lab__report\"><tr><th>Test</th><th>25-Jul-2022</th><th>Reference&#xA0;Range</th><th>Unit</th></tr><tr><td>Aspartate aminotransferase [Enzymatic activity/volume] in Serum or Plasma</td><td>6.3</td><td>10 - 40</td><td>L</td><td>U/L</td></tr></table></div>"
        },
        "status": "final",
        "subject": {
          "reference": "urn:uuid:33e9e0b0-3d03-4cc0-ab69-c5c0f073f90a",
          "display": "Maria Nohlmans"
        },
        "effectiveDateTime": "2022-07-25T11:21:29Z",
        "specimen": {
          "reference": "urn:uuid:f0acc4cb-d06b-4db5-9c21-7add55a6f5c5"
        }
      }
    },
    {
      "fullUrl": "urn:uuid:2a5280dc-25ab-4870-a297-3e266bd05ea6",
      "resource": {
        "resourceType": "Observation",
        "id": "2a5280dc-25ab-4870-a297-3e266bd05ea6",
        "meta": {
          "profile": [
            "http://hl7.eu/fhir/laboratory/StructureDefinition/Observation-resultslab-eu-lab"
          ]
        },
        "performer": [
          {
            "display": "The Central European Lab"
          }
        ],
        "category": [
          {
            "coding": [
              {
                "system": "http://terminology.hl7.org/CodeSystem/observation-category",
                "code": "laboratory"
              }
            ]
          }
        ],
        "code": {
          "coding": [
            {
              "code": "21377-7",
              "system": "http://loinc.org",
              "display": "Magnesium [Mass/volume] in Blood"
            }
          ],
          "text": "Magnesium [Mass/volume] in Blood"
        },
        "valueQuantity": {
          "system": "http://unitsofmeasure.org",
          "value": 2,
          "unit": "mg/dL",
          "code": "mg/dL"
        },
        "referenceRange": [
          {
            "low": {
              "value": 1.6,
              "code": "mg/dL",
              "system": "http://unitsofmeasure.org"
            }
          },
          {
            "high": {
              "value": 2.3,
              "code": "mg/dL",
              "system": "http://unitsofmeasure.org"
            }
          }
        ],
        "text": {
          "status": "generated",
          "div": "<div xmlns=\"http://www.w3.org/1999/xhtml\"><table class=\"hl7__eu__lab__report\"><tr><th>Test</th><th>25-Jul-2022</th><th>Reference&#xA0;Range</th><th>Unit</th></tr><tr><td>Magnesium [Mass/volume] in Blood</td><td>2.0</td><td>1.6 - 2.3</td><td></td><td>mg/dL</td></tr></table></div>"
        },
        "status": "final",
        "subject": {
          "reference": "urn:uuid:33e9e0b0-3d03-4cc0-ab69-c5c0f073f90a",
          "display": "Maria Nohlmans"
        },
        "effectiveDateTime": "2022-07-25T11:21:29Z",
        "specimen": {
          "reference": "urn:uuid:ad604160-5aea-412c-8861-c87543c0329b"
        }
      }
    },
    {
      "fullUrl": "urn:uuid:9ac65c6e-8e7d-4f7e-8985-8f4f693da334",
      "resource": {
        "resourceType": "Observation",
        "id": "9ac65c6e-8e7d-4f7e-8985-8f4f693da334",
        "meta": {
          "profile": [
            "http://hl7.eu/fhir/laboratory/StructureDefinition/Observation-resultslab-eu-lab"
          ]
        },
        "performer": [
          {
            "display": "The Central European Lab"
          }
        ],
        "category": [
          {
            "coding": [
              {
                "system": "http://terminology.hl7.org/CodeSystem/observation-category",
                "code": "laboratory"
              }
            ]
          }
        ],
        "code": {
          "coding": [
            {
              "code": "2093-3",
              "system": "http://loinc.org",
              "display": "Cholesterol [Mass/volume] in Serum or Plasma"
            }
          ],
          "text": "Cholesterol [Mass/volume] in Serum or Plasma"
        },
        "valueQuantity": {
          "system": "http://unitsofmeasure.org",
          "value": 279.5,
          "unit": "mg/dL",
          "code": "mg/dL"
        },
        "referenceRange": [
          {
            "low": {
              "value": 125,
              "code": "mg/dL",
              "system": "http://unitsofmeasure.org"
            }
          },
          {
            "high": {
              "value": 200,
              "code": "mg/dL",
              "system": "http://unitsofmeasure.org"
            }
          }
        ],
        "interpretation": [
          {
            "coding": [
              {
                "code": "H",
                "system": "http://terminology.hl7.org/CodeSystem/v3-ObservationInterpretation",
                "display": "High"
              }
            ]
          }
        ],
        "text": {
          "status": "generated",
          "div": "<div xmlns=\"http://www.w3.org/1999/xhtml\"><table class=\"hl7__eu__lab__report\"><tr><th>Test</th><th>25-Jul-2022</th><th>Reference&#xA0;Range</th><th>Unit</th></tr><tr><td>Cholesterol [Mass/volume] in Serum or Plasma</td><td>279.5</td><td>125 - 200</td><td>H</td><td>mg/dL</td></tr></table></div>"
        },
        "status": "final",
        "subject": {
          "reference": "urn:uuid:33e9e0b0-3d03-4cc0-ab69-c5c0f073f90a",
          "display": "Maria Nohlmans"
        },
        "effectiveDateTime": "2022-07-25T11:21:29Z",
        "specimen": {
          "reference": "urn:uuid:f0acc4cb-d06b-4db5-9c21-7add55a6f5c5"
        }
      }
    },
    {
      "fullUrl": "urn:uuid:e49f2ab7-a0cb-4cb9-ad87-42afdc2b02bd",
      "resource": {
        "resourceType": "Observation",
        "id": "e49f2ab7-a0cb-4cb9-ad87-42afdc2b02bd",
        "meta": {
          "profile": [
            "http://hl7.eu/fhir/laboratory/StructureDefinition/Observation-resultslab-eu-lab"
          ]
        },
        "performer": [
          {
            "display": "The Central European Lab"
          }
        ],
        "category": [
          {
            "coding": [
              {
                "system": "http://terminology.hl7.org/CodeSystem/observation-category",
                "code": "laboratory"
              }
            ]
          }
        ],
        "code": {
          "coding": [
            {
              "code": "2571-8",
              "system": "http://loinc.org",
              "display": "Triglyceride [Mass/volume] in Serum or Plasma"
            }
          ],
          "text": "Triglyceride [Mass/volume] in Serum or Plasma"
        },
        "valueQuantity": {
          "system": "http://unitsofmeasure.org",
          "value": 122.4,
          "unit": "mg/dL",
          "code": "mg/dL"
        },
        "referenceRange": [
          {
            "low": {
              "value": 35,
              "code": "mg/dL",
              "system": "http://unitsofmeasure.org"
            }
          },
          {
            "high": {
              "value": 150,
              "code": "mg/dL",
              "system": "http://unitsofmeasure.org"
            }
          }
        ],
        "text": {
          "status": "generated",
          "div": "<div xmlns=\"http://www.w3.org/1999/xhtml\"><table class=\"hl7__eu__lab__report\"><tr><th>Test</th><th>25-Jul-2022</th><th>Reference&#xA0;Range</th><th>Unit</th></tr><tr><td>Triglyceride [Mass/volume] in Serum or Plasma</td><td>122.4</td><td>35 - 150</td><td></td><td>mg/dL</td></tr></table></div>"
        },
        "status": "final",
        "subject": {
          "reference": "urn:uuid:33e9e0b0-3d03-4cc0-ab69-c5c0f073f90a",
          "display": "Maria Nohlmans"
        },
        "effectiveDateTime": "2022-07-25T11:21:29Z",
        "specimen": {
          "reference": "urn:uuid:f0acc4cb-d06b-4db5-9c21-7add55a6f5c5"
        }
      }
    },
    {
      "fullUrl": "urn:uuid:04fdf383-ac0b-40a2-b90d-6be0d19d82cf",
      "resource": {
        "resourceType": "Observation",
        "id": "04fdf383-ac0b-40a2-b90d-6be0d19d82cf",
        "meta": {
          "profile": [
            "http://hl7.eu/fhir/laboratory/StructureDefinition/Observation-resultslab-eu-lab"
          ]
        },
        "performer": [
          {
            "display": "The Central European Lab"
          }
        ],
        "category": [
          {
            "coding": [
              {
                "system": "http://terminology.hl7.org/CodeSystem/observation-category",
                "code": "laboratory"
              }
            ]
          }
        ],
        "code": {
          "coding": [
            {
              "code": "18262-6",
              "system": "http://loinc.org",
              "display": "Cholesterol in LDL [Mass/volume] in Serum or Plasma by Direct assay"
            }
          ],
          "text": "Cholesterol in LDL [Mass/volume] in Serum or Plasma by Direct assay"
        },
        "valueQuantity": {
          "system": "http://unitsofmeasure.org",
          "value": 192.5,
          "unit": "mg/dL",
          "code": "mg/dL"
        },
        "referenceRange": [
          {
            "low": {
              "value": 0,
              "code": "mg/dL",
              "system": "http://unitsofmeasure.org"
            }
          },
          {
            "high": {
              "value": 130,
              "code": "mg/dL",
              "system": "http://unitsofmeasure.org"
            }
          }
        ],
        "interpretation": [
          {
            "coding": [
              {
                "code": "H",
                "system": "http://terminology.hl7.org/CodeSystem/v3-ObservationInterpretation",
                "display": "High"
              }
            ]
          }
        ],
        "text": {
          "status": "generated",
          "div": "<div xmlns=\"http://www.w3.org/1999/xhtml\"><table class=\"hl7__eu__lab__report\"><tr><th>Test</th><th>25-Jul-2022</th><th>Reference&#xA0;Range</th><th>Unit</th></tr><tr><td>Cholesterol in LDL [Mass/volume] in Serum or Plasma by Direct assay</td><td>192.5</td><td>0 - 130</td><td>H</td><td>mg/dL</td></tr></table></div>"
        },
        "status": "final",
        "subject": {
          "reference": "urn:uuid:33e9e0b0-3d03-4cc0-ab69-c5c0f073f90a",
          "display": "Maria Nohlmans"
        },
        "effectiveDateTime": "2022-07-25T11:21:29Z",
        "specimen": {
          "reference": "urn:uuid:f0acc4cb-d06b-4db5-9c21-7add55a6f5c5"
        }
      }
    },
    {
      "fullUrl": "urn:uuid:eabffa73-1002-4738-b119-bf7fa5b24656",
      "resource": {
        "resourceType": "Observation",
        "id": "eabffa73-1002-4738-b119-bf7fa5b24656",
        "meta": {
          "profile": [
            "http://hl7.eu/fhir/laboratory/StructureDefinition/Observation-resultslab-eu-lab"
          ]
        },
        "performer": [
          {
            "display": "The Central European Lab"
          }
        ],
        "category": [
          {
            "coding": [
              {
                "system": "http://terminology.hl7.org/CodeSystem/observation-category",
                "code": "laboratory"
              }
            ]
          }
        ],
        "code": {
          "coding": [
            {
              "code": "2085-9",
              "system": "http://loinc.org",
              "display": "Cholesterol in HDL [Mass/volume] in Serum or Plasma"
            }
          ],
          "text": "Cholesterol in HDL [Mass/volume] in Serum or Plasma"
        },
        "valueQuantity": {
          "system": "http://unitsofmeasure.org",
          "value": 31,
          "unit": "mg/dL",
          "code": "mg/dL"
        },
        "referenceRange": [
          {
            "low": {
              "value": 50,
              "code": "mg/dL",
              "system": "http://unitsofmeasure.org"
            }
          },
          {
            "high": {
              "value": 120,
              "code": "mg/dL",
              "system": "http://unitsofmeasure.org"
            }
          }
        ],
        "interpretation": [
          {
            "coding": [
              {
                "code": "L",
                "system": "http://terminology.hl7.org/CodeSystem/v3-ObservationInterpretation",
                "display": "Low"
              }
            ]
          }
        ],
        "text": {
          "status": "generated",
          "div": "<div xmlns=\"http://www.w3.org/1999/xhtml\"><table class=\"hl7__eu__lab__report\"><tr><th>Test</th><th>25-Jul-2022</th><th>Reference&#xA0;Range</th><th>Unit</th></tr><tr><td>Cholesterol in HDL [Mass/volume] in Serum or Plasma</td><td>31.0</td><td>50 - 120</td><td>L</td><td>mg/dL</td></tr></table></div>"
        },
        "status": "final",
        "subject": {
          "reference": "urn:uuid:33e9e0b0-3d03-4cc0-ab69-c5c0f073f90a",
          "display": "Maria Nohlmans"
        },
        "effectiveDateTime": "2022-07-25T11:21:29Z",
        "specimen": {
          "reference": "urn:uuid:f0acc4cb-d06b-4db5-9c21-7add55a6f5c5"
        }
      }
    },
    {
      "fullUrl": "urn:uuid:a8bbf111-c06e-461a-a1bf-ec5679b0db43",
      "resource": {
        "resourceType": "Observation",
        "id": "a8bbf111-c06e-461a-a1bf-ec5679b0db43",
        "meta": {
          "profile": [
            "http://hl7.eu/fhir/laboratory/StructureDefinition/Observation-resultslab-eu-lab"
          ]
        },
        "performer": [
          {
            "display": "The Central European Lab"
          }
        ],
        "category": [
          {
            "coding": [
              {
                "system": "http://terminology.hl7.org/CodeSystem/observation-category",
                "code": "laboratory"
              }
            ]
          }
        ],
        "code": {
          "coding": [
            {
              "code": "4548-4",
              "system": "http://loinc.org",
              "display": "Hemoglobin A1c/Hemoglobin.total in Blood"
            }
          ],
          "text": "Hemoglobin A1c/Hemoglobin.total in Blood"
        },
        "valueQuantity": {
          "system": "http://unitsofmeasure.org",
          "value": 3,
          "unit": "%",
          "code": "%"
        },
        "referenceRange": [
          {
            "low": {
              "value": 4.5,
              "code": "%",
              "system": "http://unitsofmeasure.org"
            }
          },
          {
            "high": {
              "value": 6.4,
              "code": "%",
              "system": "http://unitsofmeasure.org"
            }
          }
        ],
        "interpretation": [
          {
            "coding": [
              {
                "code": "L",
                "system": "http://terminology.hl7.org/CodeSystem/v3-ObservationInterpretation",
                "display": "Low"
              }
            ]
          }
        ],
        "text": {
          "status": "generated",
          "div": "<div xmlns=\"http://www.w3.org/1999/xhtml\"><table class=\"hl7__eu__lab__report\"><tr><th>Test</th><th>25-Jul-2022</th><th>Reference&#xA0;Range</th><th>Unit</th></tr><tr><td>Hemoglobin A1c/Hemoglobin.total in Blood</td><td>3.0</td><td>4.5 - 6.4</td><td>L</td><td>%</td></tr></table></div>"
        },
        "status": "final",
        "subject": {
          "reference": "urn:uuid:33e9e0b0-3d03-4cc0-ab69-c5c0f073f90a",
          "display": "Maria Nohlmans"
        },
        "effectiveDateTime": "2022-07-25T11:21:29Z",
        "specimen": {
          "reference": "urn:uuid:ad604160-5aea-412c-8861-c87543c0329b"
        }
      }
    },
    {
      "fullUrl": "urn:uuid:d133638d-a32d-48f9-ab11-165a1421ffc5",
      "resource": {
        "resourceType": "Observation",
        "id": "d133638d-a32d-48f9-ab11-165a1421ffc5",
        "meta": {
          "profile": [
            "http://hl7.eu/fhir/laboratory/StructureDefinition/Observation-resultslab-eu-lab"
          ]
        },
        "performer": [
          {
            "display": "The Central European Lab"
          }
        ],
        "category": [
          {
            "coding": [
              {
                "system": "http://terminology.hl7.org/CodeSystem/observation-category",
                "code": "laboratory"
              }
            ]
          }
        ],
        "code": {
          "coding": [
            {
              "code": "6301-6",
              "system": "http://loinc.org",
              "display": "INR in Platelet poor plasma by Coagulation assay"
            }
          ],
          "text": "INR in Platelet poor plasma by Coagulation assay"
        },
        "valueQuantity": {
          "system": "http://unitsofmeasure.org",
          "value": 1.1,
          "unit": "{INR}",
          "code": "{INR}"
        },
        "referenceRange": [
          {
            "low": {
              "value": 0.9,
              "code": "INR",
              "system": "http://unitsofmeasure.org"
            }
          },
          {
            "high": {
              "value": 1.5,
              "code": "INR",
              "system": "http://unitsofmeasure.org"
            }
          }
        ],
        "text": {
          "status": "generated",
          "div": "<div xmlns=\"http://www.w3.org/1999/xhtml\"><table class=\"hl7__eu__lab__report\"><tr><th>Test</th><th>25-Jul-2022</th><th>Reference&#xA0;Range</th><th>Unit</th></tr><tr><td>INR in Platelet poor plasma by Coagulation assay</td><td>1.1</td><td>0.9 - 1.5</td><td></td><td>{INR}</td></tr></table></div>"
        },
        "status": "final",
        "subject": {
          "reference": "urn:uuid:33e9e0b0-3d03-4cc0-ab69-c5c0f073f90a",
          "display": "Maria Nohlmans"
        },
        "effectiveDateTime": "2022-07-25T11:21:29Z",
        "specimen": {
          "reference": "urn:uuid:659fda7f-e332-461a-8bab-60940cc1e175"
        }
      }
    },
    {
      "fullUrl": "urn:uuid:755ea9db-f8f9-4558-8ad6-23926281cd32",
      "resource": {
        "resourceType": "Observation",
        "id": "755ea9db-f8f9-4558-8ad6-23926281cd32",
        "meta": {
          "profile": [
            "http://hl7.eu/fhir/laboratory/StructureDefinition/Observation-resultslab-eu-lab"
          ]
        },
        "performer": [
          {
            "display": "The Central European Lab"
          }
        ],
        "category": [
          {
            "coding": [
              {
                "system": "http://terminology.hl7.org/CodeSystem/observation-category",
                "code": "laboratory"
              }
            ]
          }
        ],
        "code": {
          "coding": [
            {
              "code": "3173-2",
              "system": "http://loinc.org",
              "display": "aPTT in Blood by Coagulation assay"
            }
          ],
          "text": "aPTT in Blood by Coagulation assay"
        },
        "valueQuantity": {
          "system": "http://unitsofmeasure.org",
          "value": 32.3,
          "unit": "s",
          "code": "s"
        },
        "referenceRange": [
          {
            "low": {
              "value": 25,
              "code": "seconds",
              "system": "http://unitsofmeasure.org"
            }
          },
          {
            "high": {
              "value": 38,
              "code": "seconds",
              "system": "http://unitsofmeasure.org"
            }
          }
        ],
        "text": {
          "status": "generated",
          "div": "<div xmlns=\"http://www.w3.org/1999/xhtml\"><table class=\"hl7__eu__lab__report\"><tr><th>Test</th><th>25-Jul-2022</th><th>Reference&#xA0;Range</th><th>Unit</th></tr><tr><td>aPTT in Blood by Coagulation assay</td><td>32.3</td><td>25 - 38</td><td></td><td>s</td></tr></table></div>"
        },
        "status": "final",
        "subject": {
          "reference": "urn:uuid:33e9e0b0-3d03-4cc0-ab69-c5c0f073f90a",
          "display": "Maria Nohlmans"
        },
        "effectiveDateTime": "2022-07-25T11:21:29Z",
        "specimen": {
          "reference": "urn:uuid:ad604160-5aea-412c-8861-c87543c0329b"
        }
      }
    },
    {
      "fullUrl": "urn:uuid:82a804c7-2a1b-4576-a4bd-7b064e1cf415",
      "resource": {
        "resourceType": "Observation",
        "id": "82a804c7-2a1b-4576-a4bd-7b064e1cf415",
        "meta": {
          "profile": [
            "http://hl7.eu/fhir/laboratory/StructureDefinition/Observation-resultslab-eu-lab"
          ]
        },
        "performer": [
          {
            "display": "The Central European Lab"
          }
        ],
        "category": [
          {
            "coding": [
              {
                "system": "http://terminology.hl7.org/CodeSystem/observation-category",
                "code": "laboratory"
              }
            ]
          }
        ],
        "code": {
          "coding": [
            {
              "code": "71425-3",
              "system": "http://loinc.org",
              "display": "Natriuretic peptide.B prohormone N-Terminal [Mass/volume] in Blood by Immunoassay"
            }
          ],
          "text": "Natriuretic peptide.B prohormone N-Terminal [Mass/volume] in Blood by Immunoassay"
        },
        "valueQuantity": {
          "system": "http://unitsofmeasure.org",
          "value": 1.8,
          "unit": "pg/mL",
          "code": "pg/mL"
        },
        "referenceRange": [
          {
            "low": {
              "value": 0,
              "code": "pg/mL",
              "system": "http://unitsofmeasure.org"
            }
          },
          {
            "high": {
              "value": 450,
              "code": "pg/mL",
              "system": "http://unitsofmeasure.org"
            }
          }
        ],
        "text": {
          "status": "generated",
          "div": "<div xmlns=\"http://www.w3.org/1999/xhtml\"><table class=\"hl7__eu__lab__report\"><tr><th>Test</th><th>25-Jul-2022</th><th>Reference&#xA0;Range</th><th>Unit</th></tr><tr><td>Natriuretic peptide.B prohormone N-Terminal [Mass/volume] in Blood by Immunoassay</td><td>1.8</td><td>0 - 450</td><td></td><td>pg/mL</td></tr></table></div>"
        },
        "status": "final",
        "subject": {
          "reference": "urn:uuid:33e9e0b0-3d03-4cc0-ab69-c5c0f073f90a",
          "display": "Maria Nohlmans"
        },
        "effectiveDateTime": "2022-07-25T11:21:29Z",
        "specimen": {
          "reference": "urn:uuid:ad604160-5aea-412c-8861-c87543c0329b"
        }
      }
    },
    {
      "fullUrl": "urn:uuid:e26e4ca0-ee29-43c0-b23e-6e3a79c8c3dc",
      "resource": {
        "resourceType": "Observation",
        "id": "e26e4ca0-ee29-43c0-b23e-6e3a79c8c3dc",
        "meta": {
          "profile": [
            "http://hl7.eu/fhir/laboratory/StructureDefinition/Observation-resultslab-eu-lab"
          ]
        },
        "performer": [
          {
            "display": "The Central European Lab"
          }
        ],
        "category": [
          {
            "coding": [
              {
                "system": "http://terminology.hl7.org/CodeSystem/observation-category",
                "code": "laboratory"
              }
            ]
          }
        ],
        "code": {
          "coding": [
            {
              "code": "89579-7",
              "system": "http://loinc.org",
              "display": "Troponin I.cardiac [Mass/volume] in Serum or Plasma by High sensitivity method"
            }
          ],
          "text": "Troponin I.cardiac [Mass/volume] in Serum or Plasma by High sensitivity method"
        },
        "valueQuantity": {
          "system": "http://unitsofmeasure.org",
          "value": 116.1,
          "unit": "ng/L",
          "code": "ng/L"
        },
        "referenceRange": [
          {
            "low": {
              "value": 0,
              "code": "ng/L",
              "system": "http://unitsofmeasure.org"
            }
          },
          {
            "high": {
              "value": 34.2,
              "code": "ng/L",
              "system": "http://unitsofmeasure.org"
            }
          }
        ],
        "interpretation": [
          {
            "coding": [
              {
                "code": "H",
                "system": "http://terminology.hl7.org/CodeSystem/v3-ObservationInterpretation",
                "display": "High"
              }
            ]
          }
        ],
        "text": {
          "status": "generated",
          "div": "<div xmlns=\"http://www.w3.org/1999/xhtml\"><table class=\"hl7__eu__lab__report\"><tr><th>Test</th><th>25-Jul-2022</th><th>Reference&#xA0;Range</th><th>Unit</th></tr><tr><td>Troponin I.cardiac [Mass/volume] in Serum or Plasma by High sensitivity method</td><td>116.1</td><td>0 - 34.2</td><td>H</td><td>ng/L</td></tr></table></div>"
        },
        "status": "final",
        "subject": {
          "reference": "urn:uuid:33e9e0b0-3d03-4cc0-ab69-c5c0f073f90a",
          "display": "Maria Nohlmans"
        },
        "effectiveDateTime": "2022-07-25T11:21:29Z",
        "specimen": {
          "reference": "urn:uuid:f0acc4cb-d06b-4db5-9c21-7add55a6f5c5"
        }
      }
    },
    {
      "fullUrl": "urn:uuid:1042f8a0-f938-412a-a266-0e71edd67d57",
      "resource": {
        "resourceType": "Device",
        "id": "1042f8a0-f938-412a-a266-0e71edd67d57",
        "deviceName": [
          {
            "name": "SYNDERAI Synthetic Generator",
            "type": "manufacturer-name"
          }
        ],
        "version": [
          {
            "value": "5.0"
          }
        ],
        "text": {
          "status": "generated",
          "div": "<div xmlns=\"http://www.w3.org/1999/xhtml\">SYNDERAI Synthetic Generator v5.0</div>"
        },
        "status": "active\"",
        "distinctIdentifier": "synderai-generator-50",
        "manufacturer": "SYNDERAI Project"
      }
    },
    {
      "fullUrl": "urn:uuid:746c1d05-afa9-4f3c-a1c0-be6e3078b77b",
      "resource": {
        "resourceType": "Provenance",
        "id": "746c1d05-afa9-4f3c-a1c0-be6e3078b77b",
        "target": [
          {
            "reference": "Patient/33e9e0b0-3d03-4cc0-ab69-c5c0f073f90a"
          },
          {
            "reference": "Bundle/acbc9e6e-dac4-4af7-8872-bf7f8b287148"
          },
          {
            "reference": "Composition/a89372a0-acd1-49be-acd3-d35df9d795e6"
          },
          {
            "reference": "PractitionerRole/6505ba24-e80f-4227-bfef-acae38b095ab"
          },
          {
            "reference": "Practitioner/2134fe53-0f0e-4c87-b97a-ad764bd4a41c"
          },
          {
            "reference": "PractitionerRole/2d5827fb-37a6-42d9-bc5b-e03f2b77e272"
          },
          {
            "reference": "Organization/3574b713-9023-482e-8fd2-660ff08172ac"
          }
        ],
        "activity": {
          "text": "Synthetic Example Data Generation"
        },
        "policy": [
          "https://synderai.net/synderai-synthetic-data-policy"
        ],
        "agent": [
          {
            "type": {
              "text": "author"
            },
            "who": {
              "reference": "Device/1042f8a0-f938-412a-a266-0e71edd67d57"
            }
          }
        ],
        "reason": [
          {
            "text": "Interoperability Testing and Training (non-clinical use)"
          }
        ],
        "text": {
          "status": "generated",
          "div": "<div xmlns=\"http://www.w3.org/1999/xhtml\">Provenance for SYNDERAI Synthetic Example Data Resource</div>"
        },
        "recorded": "2022-07-25T13:21:29Z"
      }
    },
    {
      "fullUrl": "urn:uuid:6505ba24-e80f-4227-bfef-acae38b095ab",
      "resource": {
        "resourceType": "PractitionerRole",
        "id": "6505ba24-e80f-4227-bfef-acae38b095ab",
        "meta": {
          "profile": [
            "http://hl7.eu/fhir/base/StructureDefinition/practitionerRole-eu"
          ]
        },
        "text": {
          "status": "generated",
          "div": "<div xmlns=\"http://www.w3.org/1999/xhtml\">Laboratory Role Id: 6505ba24-e80f-4227-bfef-acae38b095ab</div>"
        },
        "practitioner": {
          "reference": "urn:uuid:2134fe53-0f0e-4c87-b97a-ad764bd4a41c"
        }
      }
    },
    {
      "fullUrl": "urn:uuid:2134fe53-0f0e-4c87-b97a-ad764bd4a41c",
      "resource": {
        "resourceType": "Practitioner",
        "id": "2134fe53-0f0e-4c87-b97a-ad764bd4a41c",
        "meta": {
          "profile": [
            "http://hl7.eu/fhir/base/StructureDefinition/practitioner-eu"
          ]
        },
        "identifier": [
          {
            "assigner": {
              "display": "HL7 Europe"
            },
            "system": "urn:oid:2.16.840.1.113883.2.51.999",
            "value": "2eab6e26-b38d-459f-b26a-bf1230dc10d9"
          }
        ],
        "name": [
          {
            "prefix": [
              "dr"
            ],
            "given": [
              "Ex"
            ],
            "family": "Ample"
          }
        ],
        "address": [
          {
            "line": [
              "Laboratoire Central Européenne",
              "Boulevard du Jardin Botanique 32"
            ],
            "postalCode": "1000",
            "city": "Brussels",
            "country": "Belgium"
          }
        ],
        "text": {
          "status": "generated",
          "div": "<div xmlns=\"http://www.w3.org/1999/xhtml\">Laboratory: Laboratoire Central Européenne, 1000 Brussels, Belgium</div>"
        }
      }
    }
  ],
  "type": "document",
  "timestamp": "2022-07-25T13:21:29Z"
}
