{
  "resourceType": "Bundle",
  "id": "52943929-1d7d-4cf4-958f-a0e7d65e411a",
  "meta": {
    "profile": [
      "http://hl7.eu/fhir/laboratory/StructureDefinition/Bundle-eu-lab"
    ]
  },
  "identifier": {
    "assigner": {
      "display": "HL7 Europe"
    },
    "system": "urn:oid:2.16.840.1.113883.2.51.999",
    "value": "c23ad51e-8f38-40a5-85cf-20b9a2d533af"
  },
  "entry": [
    {
      "fullUrl": "urn:uuid:1bd227d0-8da4-473f-aaa6-7b79e5aab0da",
      "resource": {
        "resourceType": "Composition",
        "id": "1bd227d0-8da4-473f-aaa6-7b79e5aab0da",
        "meta": {
          "profile": [
            "http://hl7.eu/fhir/laboratory/StructureDefinition/Composition-eu-lab"
          ]
        },
        "identifier": {
          "assigner": {
            "display": "HL7 Europe"
          },
          "system": "urn:oid:2.16.840.1.113883.2.51.999",
          "value": "c1badec5-8141-4083-ba3f-a7e26c47bd85"
        },
        "author": [
          {
            "reference": "urn:uuid:353ad859-d65e-4848-bb88-8dd92088d175"
          }
        ],
        "category": [
          {
            "coding": [
              {
                "code": "26436-6",
                "system": "http://loinc.org",
                "display": "Laboratory studies (set)"
              }
            ]
          }
        ],
        "type": {
          "coding": [
            {
              "code": "11502-2",
              "system": "http://loinc.org",
              "display": "Laboratory report"
            }
          ],
          "text": "Laboratory Report"
        },
        "section": [
          {
            "code": {
              "coding": [
                {
                  "code": "26436-6",
                  "system": "http://loinc.org",
                  "display": "Laboratory studies (set)"
                }
              ],
              "text": "Laboratory studies"
            },
            "section": [
              {
                "code": {
                  "coding": [
                    {
                      "code": "$18719-5",
                      "system": "http://loinc.org",
                      "display": "Chemistry studies (set)"
                    }
                  ],
                  "text": "Chemistry"
                },
                "entry": [
                  {
                    "reference": "urn:uuid:09e82bb1-9aa8-44a4-bf7c-dc0d89883f81"
                  },
                  {
                    "reference": "urn:uuid:fcae4489-9dc7-450d-8c7f-88debda18c20"
                  },
                  {
                    "reference": "urn:uuid:d4432887-172b-43ea-8047-a1cc987987fb"
                  },
                  {
                    "reference": "urn:uuid:936b0fca-62ff-41e2-9299-9c759da7fa97"
                  },
                  {
                    "reference": "urn:uuid:bcc95dbd-0bf5-411c-9326-3a856c407115"
                  },
                  {
                    "reference": "urn:uuid:4aba316d-cdbb-4c9d-8e6a-3da2b57b56a4"
                  },
                  {
                    "reference": "urn:uuid:d42ac960-ff99-42cc-bc1f-a3af82635283"
                  },
                  {
                    "reference": "urn:uuid:e7e0d6f3-c771-48a1-890c-4b7f0782fe5a"
                  },
                  {
                    "reference": "urn:uuid:28c3d15b-247c-4287-97c8-c45322dbe7ef"
                  },
                  {
                    "reference": "urn:uuid:61a5f047-6853-496a-afb2-4b7b79fee640"
                  },
                  {
                    "reference": "urn:uuid:755befa7-5db0-460e-8a8a-2f6e1bf6c1c3"
                  },
                  {
                    "reference": "urn:uuid:39946dab-b100-4649-8677-05a8eb595c1c"
                  },
                  {
                    "reference": "urn:uuid:68ccf189-832f-49c0-b7a0-707ecd2542ba"
                  },
                  {
                    "reference": "urn:uuid:d68dd15f-e2e5-4f4f-ad99-7dd48086301c"
                  },
                  {
                    "reference": "urn:uuid:a80111d6-b9c3-44a6-9968-9cc73f7a8de2"
                  },
                  {
                    "reference": "urn:uuid:d6b6dec5-5332-4a50-89d2-329662b5518c"
                  },
                  {
                    "reference": "urn:uuid:3fcd2e26-147d-4137-bc66-7fa257d31dca"
                  },
                  {
                    "reference": "urn:uuid:fffd411e-d233-47f4-b3de-cc61be48de1b"
                  },
                  {
                    "reference": "urn:uuid:0254cfab-6773-46c1-9a34-a3a5a9276a4b"
                  }
                ],
                "text": {
                  "status": "generated",
                  "div": "<div xmlns=\"http://www.w3.org/1999/xhtml\"><h3>Chemistry</h3><table class=\"hl7__eu__lab__report\"><thead><tr><th>Test</th><th>18-MAR-2016</th><th>Reference&#xA0;Range</th><th>Unit</th></tr></thead><tbody><tr><td>Glucose [Mass/volume] in Blood</td><td>75.9</td><td>70 - 140</td><td>mg/dL</td></tr><tr><td>Urea nitrogen [Mass/volume] in Blood</td><td>13.6</td><td>7 - 20</td><td>mg/dL</td></tr><tr><td>Creatinine [Mass/volume] in Blood</td><td><strong>2.7 H</strong></td><td>0.5 - 1.3</td><td>mg/dL</td></tr><tr><td>Calcium [Mass/volume] in Blood</td><td>9.2</td><td>8.5 - 10.5</td><td>mg/dL</td></tr><tr><td>Sodium [Moles/volume] in Blood</td><td>143.2</td><td>135 - 145</td><td>mmol/L</td></tr><tr><td>Potassium [Moles/volume] in Blood</td><td>3.8</td><td>3.5 - 5.1</td><td>mmol/L</td></tr><tr><td>Chloride [Moles/volume] in Blood</td><td><strong>108.1 H</strong></td><td>98 - 108</td><td>mmol/L</td></tr><tr><td>Carbon dioxide, total [Moles/volume] in Blood</td><td>26.3</td><td>22 - 29</td><td>mmol/L</td></tr><tr><td>Protein [Mass/volume] in Serum or Plasma</td><td>6.3</td><td>6 - 8.2</td><td>g/dL</td></tr><tr><td>Albumin [Mass/volume] in Serum or Plasma</td><td>3.9</td><td>3.5 - 5</td><td>g/dL</td></tr><tr><td>Globulin [Mass/volume] in Serum by calculation</td><td>3.2</td><td>2 - 4</td><td>g/L</td></tr><tr><td>Bilirubin.total [Mass/volume] in Serum or Plasma</td><td>1.1</td><td>0.3 - 1.2</td><td>mg/dL</td></tr><tr><td>Alkaline phosphatase [Enzymatic activity/volume] in Serum or Plasma</td><td>53.7</td><td>35 - 141</td><td>U/L</td></tr><tr><td>Alanine aminotransferase [Enzymatic activity/volume] in Serum or Plasma</td><td>20.5</td><td>7 - 60</td><td>U/L</td></tr><tr><td>Aspartate aminotransferase [Enzymatic activity/volume] in Serum or Plasma</td><td>16.5</td><td>10 - 40</td><td>U/L</td></tr><tr><td>Cholesterol [Mass/volume] in Serum or Plasma</td><td>189.2</td><td>0 - 200</td><td>mg/dL</td></tr><tr><td>Triglyceride [Mass/volume] in Serum or Plasma</td><td>128.6</td><td>0 - 199</td><td>mg/dL</td></tr><tr><td>Cholesterol in LDL [Mass/volume] in Serum or Plasma by Direct assay</td><td>121.0</td><td>0 - 130</td><td>mg/dL</td></tr><tr><td>Cholesterol in HDL [Mass/volume] in Serum or Plasma</td><td>67.4</td><td>46 - 77</td><td>mg/dL</td></tr></tbody></table></div>"
                },
                "title": "Chemistry"
              }
            ],
            "title": "Laboratory Report"
          },
          {
            "text": {
              "status": "generated",
              "div": "<div xmlns=\"http://www.w3.org/1999/xhtml\"><h3>Annotation</h3><table class=\"hl7__eu__lab__report\"><tr><th>Conclusion and Recommendations based on this report and previous findings known to us</th></tr><tr><td>Renal function is impaired, as indicated by elevated creatinine. Mild hyperchloremia is present. Other parameters, including glucose, electrolytes, liver enzymes, proteins, and lipid profile, are within normal limits. Recommend clinical correlation for renal impairment and consideration of underlying causes, especially given the patient&quot;s advanced age.</td></tr></table></div>"
            },
            "code": {
              "coding": [
                {
                  "system": "http://loinc.org",
                  "code": "48767-8",
                  "display": "Annotation comment"
                }
              ]
            },
            "title": "Annotation comment"
          }
        ],
        "status": "final",
        "subject": {
          "reference": "urn:uuid:03e5b2f7-6f48-481a-a1b9-cc7b79fbee47",
          "display": "Marlene Gerlach"
        },
        "date": "2016-03-18T20:24:33Z",
        "title": "Laboratory Report",
        "confidentiality": "N"
      }
    },
    {
      "fullUrl": "urn:uuid:86c8abf2-aaad-4457-9a9e-91002bb7cea7",
      "resource": {
        "resourceType": "DiagnosticReport",
        "id": "86c8abf2-aaad-4457-9a9e-91002bb7cea7",
        "meta": {
          "profile": [
            "http://hl7.eu/fhir/laboratory/StructureDefinition/DiagnosticReport-eu-lab"
          ]
        },
        "identifier": [
          {
            "assigner": {
              "display": "HL7 Europe"
            },
            "system": "urn:oid:2.16.840.1.113883.2.51.999",
            "value": "f0fb6de5-fcaa-4b58-a3f3-2cd72d693998"
          }
        ],
        "extension": [
          {
            "url": "http://hl7.org/fhir/5.0/StructureDefinition/extension-DiagnosticReport.composition",
            "valueReference": {
              "reference": "urn:uuid:c1badec5-8141-4083-ba3f-a7e26c47bd85"
            }
          }
        ],
        "category": [
          {
            "coding": [
              {
                "code": "26436-6",
                "system": "http://loinc.org",
                "display": "Laboratory studies (set)"
              }
            ]
          }
        ],
        "specimen": [
          {
            "reference": "urn:uuid:0d563e42-9673-406a-944b-62687da62931"
          },
          {
            "reference": "urn:uuid:ea1f062b-e5b7-44e8-bbc6-2eba1be35b4a"
          },
          {
            "reference": "urn:uuid:6c5d2569-1daf-467f-b38c-dd264db72d4a"
          }
        ],
        "result": [
          {
            "reference": "urn:uuid:09e82bb1-9aa8-44a4-bf7c-dc0d89883f81"
          },
          {
            "reference": "urn:uuid:fcae4489-9dc7-450d-8c7f-88debda18c20"
          },
          {
            "reference": "urn:uuid:d4432887-172b-43ea-8047-a1cc987987fb"
          },
          {
            "reference": "urn:uuid:936b0fca-62ff-41e2-9299-9c759da7fa97"
          },
          {
            "reference": "urn:uuid:bcc95dbd-0bf5-411c-9326-3a856c407115"
          },
          {
            "reference": "urn:uuid:4aba316d-cdbb-4c9d-8e6a-3da2b57b56a4"
          },
          {
            "reference": "urn:uuid:d42ac960-ff99-42cc-bc1f-a3af82635283"
          },
          {
            "reference": "urn:uuid:e7e0d6f3-c771-48a1-890c-4b7f0782fe5a"
          },
          {
            "reference": "urn:uuid:28c3d15b-247c-4287-97c8-c45322dbe7ef"
          },
          {
            "reference": "urn:uuid:61a5f047-6853-496a-afb2-4b7b79fee640"
          },
          {
            "reference": "urn:uuid:755befa7-5db0-460e-8a8a-2f6e1bf6c1c3"
          },
          {
            "reference": "urn:uuid:39946dab-b100-4649-8677-05a8eb595c1c"
          },
          {
            "reference": "urn:uuid:68ccf189-832f-49c0-b7a0-707ecd2542ba"
          },
          {
            "reference": "urn:uuid:d68dd15f-e2e5-4f4f-ad99-7dd48086301c"
          },
          {
            "reference": "urn:uuid:a80111d6-b9c3-44a6-9968-9cc73f7a8de2"
          },
          {
            "reference": "urn:uuid:d6b6dec5-5332-4a50-89d2-329662b5518c"
          },
          {
            "reference": "urn:uuid:3fcd2e26-147d-4137-bc66-7fa257d31dca"
          },
          {
            "reference": "urn:uuid:fffd411e-d233-47f4-b3de-cc61be48de1b"
          },
          {
            "reference": "urn:uuid:0254cfab-6773-46c1-9a34-a3a5a9276a4b"
          }
        ],
        "status": "registered",
        "code": {
          "coding": [
            {
              "code": "11502-2",
              "system": "http://loinc.org",
              "display": "Laboratory report"
            }
          ]
        },
        "subject": {
          "reference": "urn:uuid:03e5b2f7-6f48-481a-a1b9-cc7b79fbee47",
          "display": "Marlene Gerlach"
        }
      }
    },
    {
      "fullUrl": "urn:uuid:03e5b2f7-6f48-481a-a1b9-cc7b79fbee47",
      "resource": {
        "resourceType": "Patient",
        "id": "03e5b2f7-6f48-481a-a1b9-cc7b79fbee47",
        "meta": {
          "security": [
            {
              "system": "http://terminology.hl7.org/CodeSystem/v3-ActReason",
              "code": "HTEST"
            },
            {
              "system": "http://terminology.hl7.org/CodeSystem/v3-ActReason",
              "code": "TRAIN"
            }
          ],
          "tag": [
            {
              "system": "https://synderai.net/fhir/CodeSystem/tags",
              "code": "synthetic",
              "display": "SYNDERAI Synthetic data"
            }
          ],
          "profile": [
            "http://hl7.eu/fhir/base/StructureDefinition/patient-eu-core"
          ]
        },
        "identifier": [
          {
            "type": {
              "coding": [
                {
                  "code": "PT",
                  "system": "http://terminology.hl7.org/CodeSystem/v2-0203"
                }
              ]
            },
            "system": "http://ec.europa.eu/identifier/eci",
            "value": "4536-398571-9"
          },
          {
            "type": {
              "coding": [
                {
                  "code": "MR",
                  "system": "http://terminology.hl7.org/CodeSystem/v2-0203"
                }
              ]
            },
            "system": "http://local.setting.eu/identifier",
            "value": "ff7a4ff6-4bac-f07f-03c9-b91b1e1cfb23"
          }
        ],
        "name": [
          {
            "family": "Gerlach"
          },
          {
            "given": [
              "Marlene"
            ]
          },
          {
            "text": "Marlene Gerlach"
          }
        ],
        "address": [
          {
            "line": [
              "Etzlerplatz 57-53"
            ],
            "use": "home",
            "type": "physical",
            "postalCode": "71522",
            "city": "Backnang",
            "country": "Germany"
          }
        ],
        "telecom": [
          {
            "system": "phone",
            "value": "+49(0)2700 61724"
          }
        ],
        "extension": [
          {
            "url": "http://hl7.org/fhir/StructureDefinition/patient-nationality",
            "valueCodeableConcept": {
              "coding": [
                {
                  "code": "DE",
                  "system": "http://hl7.org/fhir/ValueSet/country"
                }
              ]
            }
          }
        ],
        "text": {
          "status": "generated",
          "div": "<div xmlns=\"http://www.w3.org/1999/xhtml\"><table class=\"hl7__ips\"><tr><td>Marlene Gerlach</td><td>female</td><td>28-Aug-1939</td></tr></table></div>"
        },
        "gender": "female",
        "birthDate": "1939-08-28"
      }
    },
    {
      "fullUrl": "urn:uuid:80d2234e-dd30-4834-b33e-616f8c7580e7",
      "resource": {
        "resourceType": "ServiceRequest",
        "id": "80d2234e-dd30-4834-b33e-616f8c7580e7",
        "meta": {
          "profile": [
            "http://hl7.eu/fhir/laboratory/StructureDefinition/ServiceRequest-eu-lab"
          ]
        },
        "identifier": [
          {
            "system": "http://example.org",
            "value": "88f36f69-2575-46dd-918d-30ea85e44f70"
          }
        ],
        "specimen": [
          {
            "reference": "urn:uuid:0d563e42-9673-406a-944b-62687da62931"
          },
          {
            "reference": "urn:uuid:ea1f062b-e5b7-44e8-bbc6-2eba1be35b4a"
          },
          {
            "reference": "urn:uuid:6c5d2569-1daf-467f-b38c-dd264db72d4a"
          }
        ],
        "reasonCode": [
          {
            "coding": [
              {
                "code": "55822004",
                "system": "http://snomed.info/sct",
                "display": "Hyperlipidemia"
              }
            ]
          },
          {
            "coding": [
              {
                "code": "414545008",
                "system": "http://snomed.info/sct",
                "display": "Ischemic heart disease"
              }
            ]
          },
          {
            "coding": [
              {
                "code": "157141000119108",
                "system": "http://snomed.info/sct",
                "display": "Proteinuria due to type 2 diabetes mellitus"
              }
            ]
          },
          {
            "coding": [
              {
                "code": "90781000119102",
                "system": "http://snomed.info/sct",
                "display": "Microalbuminuria due to type 2 diabetes mellitus"
              }
            ]
          },
          {
            "coding": [
              {
                "code": "127013003",
                "system": "http://snomed.info/sct",
                "display": "Disorder of kidney due to diabetes mellitus"
              }
            ]
          },
          {
            "coding": [
              {
                "code": "271737000",
                "system": "http://snomed.info/sct",
                "display": "Anemia"
              }
            ]
          },
          {
            "coding": [
              {
                "code": "15777000",
                "system": "http://snomed.info/sct",
                "display": "Prediabetes"
              }
            ]
          },
          {
            "coding": [
              {
                "code": "59621000",
                "system": "http://snomed.info/sct",
                "display": "Essential hypertension"
              }
            ]
          }
        ],
        "status": "active",
        "intent": "order",
        "code": {
          "coding": [
            {
              "code": "108252007",
              "system": "http://snomed.info/sct",
              "display": "Laboratory procedure"
            }
          ]
        },
        "subject": {
          "reference": "urn:uuid:03e5b2f7-6f48-481a-a1b9-cc7b79fbee47",
          "display": "Marlene Gerlach"
        },
        "requester": {
          "reference": "urn:uuid:df6cceeb-595b-4820-8537-60ea60b67535"
        }
      }
    },
    {
      "fullUrl": "urn:uuid:df6cceeb-595b-4820-8537-60ea60b67535",
      "resource": {
        "resourceType": "PractitionerRole",
        "id": "df6cceeb-595b-4820-8537-60ea60b67535",
        "meta": {
          "profile": [
            "http://hl7.eu/fhir/base/StructureDefinition/practitionerRole-eu"
          ]
        },
        "text": {
          "status": "generated",
          "div": "<div xmlns=\"http://www.w3.org/1999/xhtml\">Provider Role Id: df6cceeb-595b-4820-8537-60ea60b67535</div>"
        },
        "organization": {
          "reference": "urn:uuid:b0219aae-877d-4b39-9786-da685b0daaf6"
        }
      }
    },
    {
      "fullUrl": "urn:uuid:b0219aae-877d-4b39-9786-da685b0daaf6",
      "resource": {
        "resourceType": "Organization",
        "id": "b0219aae-877d-4b39-9786-da685b0daaf6",
        "meta": {
          "profile": [
            "http://hl7.eu/fhir/base/StructureDefinition/organization-eu"
          ]
        },
        "identifier": [
          {
            "assigner": {
              "display": "HL7 Europe"
            },
            "system": "urn:oid:2.16.840.1.113883.2.51.999",
            "value": "d97f2273-9c34-4276-bae1-99bad5eee861"
          }
        ],
        "address": [
          {
            "line": [
              "Karl-Krische-Straße 4"
            ],
            "city": "Backnang",
            "postalCode": "71522",
            "country": "Germany"
          }
        ],
        "text": {
          "status": "generated",
          "div": "<div xmlns=\"http://www.w3.org/1999/xhtml\">Provider Organization: Gesundheitszentrum</div>"
        },
        "name": "Gesundheitszentrum"
      }
    },
    {
      "fullUrl": "urn:uuid:0d563e42-9673-406a-944b-62687da62931",
      "resource": {
        "resourceType": "Specimen",
        "id": "0d563e42-9673-406a-944b-62687da62931",
        "meta": {
          "profile": [
            "http://hl7.eu/fhir/laboratory/StructureDefinition/Specimen-eu-lab"
          ]
        },
        "collection": {
          "collectedDateTime": "2016-03-18"
        },
        "text": {
          "status": "generated",
          "div": "<div xmlns=\"http://www.w3.org/1999/xhtml\"><table class=\"hl7__eu__lab__report\"><tr><th>Specimen</th><th>Collection Date</th></tr><tr><td>Whole blood specimen (specimen)</td><td><span class=\"nb\">18-Mar-2016</span></td></tr></table></div>"
        },
        "type": {
          "coding": [
            {
              "code": "258580003",
              "system": "http://snomed.info/sct",
              "display": "Whole blood specimen (specimen)"
            }
          ]
        }
      }
    },
    {
      "fullUrl": "urn:uuid:ea1f062b-e5b7-44e8-bbc6-2eba1be35b4a",
      "resource": {
        "resourceType": "Specimen",
        "id": "ea1f062b-e5b7-44e8-bbc6-2eba1be35b4a",
        "meta": {
          "profile": [
            "http://hl7.eu/fhir/laboratory/StructureDefinition/Specimen-eu-lab"
          ]
        },
        "collection": {
          "collectedDateTime": "2016-03-18"
        },
        "text": {
          "status": "generated",
          "div": "<div xmlns=\"http://www.w3.org/1999/xhtml\"><table class=\"hl7__eu__lab__report\"><tr><th>Specimen</th><th>Collection Date</th></tr><tr><td>Acellular blood (serum or plasma) specimen</td><td><span class=\"nb\">18-Mar-2016</span></td></tr></table></div>"
        },
        "type": {
          "coding": [
            {
              "code": "122592007",
              "system": "http://snomed.info/sct",
              "display": "Acellular blood (serum or plasma) specimen"
            }
          ]
        }
      }
    },
    {
      "fullUrl": "urn:uuid:6c5d2569-1daf-467f-b38c-dd264db72d4a",
      "resource": {
        "resourceType": "Specimen",
        "id": "6c5d2569-1daf-467f-b38c-dd264db72d4a",
        "meta": {
          "profile": [
            "http://hl7.eu/fhir/laboratory/StructureDefinition/Specimen-eu-lab"
          ]
        },
        "collection": {
          "collectedDateTime": "2016-03-18"
        },
        "text": {
          "status": "generated",
          "div": "<div xmlns=\"http://www.w3.org/1999/xhtml\"><table class=\"hl7__eu__lab__report\"><tr><th>Specimen</th><th>Collection Date</th></tr><tr><td>Serum specimen</td><td><span class=\"nb\">18-Mar-2016</span></td></tr></table></div>"
        },
        "type": {
          "coding": [
            {
              "code": "119364003",
              "system": "http://snomed.info/sct",
              "display": "Serum specimen"
            }
          ]
        }
      }
    },
    {
      "fullUrl": "urn:uuid:09e82bb1-9aa8-44a4-bf7c-dc0d89883f81",
      "resource": {
        "resourceType": "Observation",
        "id": "09e82bb1-9aa8-44a4-bf7c-dc0d89883f81",
        "meta": {
          "profile": [
            "http://hl7.eu/fhir/laboratory/StructureDefinition/Observation-resultslab-eu-lab"
          ]
        },
        "performer": [
          {
            "display": "The Central European Lab"
          }
        ],
        "category": [
          {
            "coding": [
              {
                "system": "http://terminology.hl7.org/CodeSystem/observation-category",
                "code": "laboratory"
              }
            ]
          }
        ],
        "code": {
          "coding": [
            {
              "code": "2339-0",
              "system": "http://loinc.org",
              "display": "Glucose [Mass/volume] in Blood"
            }
          ],
          "text": "Glucose [Mass/volume] in Blood"
        },
        "valueQuantity": {
          "system": "http://unitsofmeasure.org",
          "value": 75.9,
          "unit": "mg/dL",
          "code": "mg/dL"
        },
        "referenceRange": [
          {
            "low": {
              "value": 70,
              "code": "mg/dL",
              "system": "http://unitsofmeasure.org"
            }
          },
          {
            "high": {
              "value": 140,
              "code": "mg/dL",
              "system": "http://unitsofmeasure.org"
            }
          }
        ],
        "text": {
          "status": "generated",
          "div": "<div xmlns=\"http://www.w3.org/1999/xhtml\"><table class=\"hl7__eu__lab__report\"><tr><th>Test</th><th>18-Mar-2016</th><th>Reference&#xA0;Range</th><th>Unit</th></tr><tr><td>Glucose [Mass/volume] in Blood</td><td>75.9</td><td>70 - 140</td><td></td><td>mg/dL</td></tr></table></div>"
        },
        "status": "final",
        "subject": {
          "reference": "urn:uuid:03e5b2f7-6f48-481a-a1b9-cc7b79fbee47",
          "display": "Marlene Gerlach"
        },
        "effectiveDateTime": "2016-03-18T19:24:33Z",
        "specimen": {
          "reference": "urn:uuid:0d563e42-9673-406a-944b-62687da62931"
        }
      }
    },
    {
      "fullUrl": "urn:uuid:fcae4489-9dc7-450d-8c7f-88debda18c20",
      "resource": {
        "resourceType": "Observation",
        "id": "fcae4489-9dc7-450d-8c7f-88debda18c20",
        "meta": {
          "profile": [
            "http://hl7.eu/fhir/laboratory/StructureDefinition/Observation-resultslab-eu-lab"
          ]
        },
        "performer": [
          {
            "display": "The Central European Lab"
          }
        ],
        "category": [
          {
            "coding": [
              {
                "system": "http://terminology.hl7.org/CodeSystem/observation-category",
                "code": "laboratory"
              }
            ]
          }
        ],
        "code": {
          "coding": [
            {
              "code": "6299-2",
              "system": "http://loinc.org",
              "display": "Urea nitrogen [Mass/volume] in Blood"
            }
          ],
          "text": "Urea nitrogen [Mass/volume] in Blood"
        },
        "valueQuantity": {
          "system": "http://unitsofmeasure.org",
          "value": 13.6,
          "unit": "mg/dL",
          "code": "mg/dL"
        },
        "referenceRange": [
          {
            "low": {
              "value": 7,
              "code": "mg/dL",
              "system": "http://unitsofmeasure.org"
            }
          },
          {
            "high": {
              "value": 20,
              "code": "mg/dL",
              "system": "http://unitsofmeasure.org"
            }
          }
        ],
        "text": {
          "status": "generated",
          "div": "<div xmlns=\"http://www.w3.org/1999/xhtml\"><table class=\"hl7__eu__lab__report\"><tr><th>Test</th><th>18-Mar-2016</th><th>Reference&#xA0;Range</th><th>Unit</th></tr><tr><td>Urea nitrogen [Mass/volume] in Blood</td><td>13.6</td><td>7 - 20</td><td></td><td>mg/dL</td></tr></table></div>"
        },
        "status": "final",
        "subject": {
          "reference": "urn:uuid:03e5b2f7-6f48-481a-a1b9-cc7b79fbee47",
          "display": "Marlene Gerlach"
        },
        "effectiveDateTime": "2016-03-18T19:24:33Z",
        "specimen": {
          "reference": "urn:uuid:0d563e42-9673-406a-944b-62687da62931"
        }
      }
    },
    {
      "fullUrl": "urn:uuid:d4432887-172b-43ea-8047-a1cc987987fb",
      "resource": {
        "resourceType": "Observation",
        "id": "d4432887-172b-43ea-8047-a1cc987987fb",
        "meta": {
          "profile": [
            "http://hl7.eu/fhir/laboratory/StructureDefinition/Observation-resultslab-eu-lab"
          ]
        },
        "performer": [
          {
            "display": "The Central European Lab"
          }
        ],
        "category": [
          {
            "coding": [
              {
                "system": "http://terminology.hl7.org/CodeSystem/observation-category",
                "code": "laboratory"
              }
            ]
          }
        ],
        "code": {
          "coding": [
            {
              "code": "38483-4",
              "system": "http://loinc.org",
              "display": "Creatinine [Mass/volume] in Blood"
            }
          ],
          "text": "Creatinine [Mass/volume] in Blood"
        },
        "valueQuantity": {
          "system": "http://unitsofmeasure.org",
          "value": 2.7,
          "unit": "mg/dL",
          "code": "mg/dL"
        },
        "referenceRange": [
          {
            "low": {
              "value": 0.5,
              "code": "mg/dL",
              "system": "http://unitsofmeasure.org"
            }
          },
          {
            "high": {
              "value": 1.3,
              "code": "mg/dL",
              "system": "http://unitsofmeasure.org"
            }
          }
        ],
        "interpretation": [
          {
            "coding": [
              {
                "code": "H",
                "system": "http://terminology.hl7.org/CodeSystem/v3-ObservationInterpretation",
                "display": "High"
              }
            ]
          }
        ],
        "text": {
          "status": "generated",
          "div": "<div xmlns=\"http://www.w3.org/1999/xhtml\"><table class=\"hl7__eu__lab__report\"><tr><th>Test</th><th>18-Mar-2016</th><th>Reference&#xA0;Range</th><th>Unit</th></tr><tr><td>Creatinine [Mass/volume] in Blood</td><td>2.7</td><td>0.5 - 1.3</td><td>H</td><td>mg/dL</td></tr></table></div>"
        },
        "status": "final",
        "subject": {
          "reference": "urn:uuid:03e5b2f7-6f48-481a-a1b9-cc7b79fbee47",
          "display": "Marlene Gerlach"
        },
        "effectiveDateTime": "2016-03-18T19:24:33Z",
        "specimen": {
          "reference": "urn:uuid:0d563e42-9673-406a-944b-62687da62931"
        }
      }
    },
    {
      "fullUrl": "urn:uuid:936b0fca-62ff-41e2-9299-9c759da7fa97",
      "resource": {
        "resourceType": "Observation",
        "id": "936b0fca-62ff-41e2-9299-9c759da7fa97",
        "meta": {
          "profile": [
            "http://hl7.eu/fhir/laboratory/StructureDefinition/Observation-resultslab-eu-lab"
          ]
        },
        "performer": [
          {
            "display": "The Central European Lab"
          }
        ],
        "category": [
          {
            "coding": [
              {
                "system": "http://terminology.hl7.org/CodeSystem/observation-category",
                "code": "laboratory"
              }
            ]
          }
        ],
        "code": {
          "coding": [
            {
              "code": "49765-1",
              "system": "http://loinc.org",
              "display": "Calcium [Mass/volume] in Blood"
            }
          ],
          "text": "Calcium [Mass/volume] in Blood"
        },
        "valueQuantity": {
          "system": "http://unitsofmeasure.org",
          "value": 9.2,
          "unit": "mg/dL",
          "code": "mg/dL"
        },
        "referenceRange": [
          {
            "low": {
              "value": 8.5,
              "code": "mg/dL",
              "system": "http://unitsofmeasure.org"
            }
          },
          {
            "high": {
              "value": 10.5,
              "code": "mg/dL",
              "system": "http://unitsofmeasure.org"
            }
          }
        ],
        "text": {
          "status": "generated",
          "div": "<div xmlns=\"http://www.w3.org/1999/xhtml\"><table class=\"hl7__eu__lab__report\"><tr><th>Test</th><th>18-Mar-2016</th><th>Reference&#xA0;Range</th><th>Unit</th></tr><tr><td>Calcium [Mass/volume] in Blood</td><td>9.2</td><td>8.5 - 10.5</td><td></td><td>mg/dL</td></tr></table></div>"
        },
        "status": "final",
        "subject": {
          "reference": "urn:uuid:03e5b2f7-6f48-481a-a1b9-cc7b79fbee47",
          "display": "Marlene Gerlach"
        },
        "effectiveDateTime": "2016-03-18T19:24:33Z",
        "specimen": {
          "reference": "urn:uuid:0d563e42-9673-406a-944b-62687da62931"
        }
      }
    },
    {
      "fullUrl": "urn:uuid:bcc95dbd-0bf5-411c-9326-3a856c407115",
      "resource": {
        "resourceType": "Observation",
        "id": "bcc95dbd-0bf5-411c-9326-3a856c407115",
        "meta": {
          "profile": [
            "http://hl7.eu/fhir/laboratory/StructureDefinition/Observation-resultslab-eu-lab"
          ]
        },
        "performer": [
          {
            "display": "The Central European Lab"
          }
        ],
        "category": [
          {
            "coding": [
              {
                "system": "http://terminology.hl7.org/CodeSystem/observation-category",
                "code": "laboratory"
              }
            ]
          }
        ],
        "code": {
          "coding": [
            {
              "code": "2947-0",
              "system": "http://loinc.org",
              "display": "Sodium [Moles/volume] in Blood"
            }
          ],
          "text": "Sodium [Moles/volume] in Blood"
        },
        "valueQuantity": {
          "system": "http://unitsofmeasure.org",
          "value": 143.2,
          "unit": "mmol/L",
          "code": "mmol/L"
        },
        "referenceRange": [
          {
            "low": {
              "value": 135,
              "code": "mmol/L",
              "system": "http://unitsofmeasure.org"
            }
          },
          {
            "high": {
              "value": 145,
              "code": "mmol/L",
              "system": "http://unitsofmeasure.org"
            }
          }
        ],
        "text": {
          "status": "generated",
          "div": "<div xmlns=\"http://www.w3.org/1999/xhtml\"><table class=\"hl7__eu__lab__report\"><tr><th>Test</th><th>18-Mar-2016</th><th>Reference&#xA0;Range</th><th>Unit</th></tr><tr><td>Sodium [Moles/volume] in Blood</td><td>143.2</td><td>135 - 145</td><td></td><td>mmol/L</td></tr></table></div>"
        },
        "status": "final",
        "subject": {
          "reference": "urn:uuid:03e5b2f7-6f48-481a-a1b9-cc7b79fbee47",
          "display": "Marlene Gerlach"
        },
        "effectiveDateTime": "2016-03-18T19:24:33Z",
        "specimen": {
          "reference": "urn:uuid:0d563e42-9673-406a-944b-62687da62931"
        }
      }
    },
    {
      "fullUrl": "urn:uuid:4aba316d-cdbb-4c9d-8e6a-3da2b57b56a4",
      "resource": {
        "resourceType": "Observation",
        "id": "4aba316d-cdbb-4c9d-8e6a-3da2b57b56a4",
        "meta": {
          "profile": [
            "http://hl7.eu/fhir/laboratory/StructureDefinition/Observation-resultslab-eu-lab"
          ]
        },
        "performer": [
          {
            "display": "The Central European Lab"
          }
        ],
        "category": [
          {
            "coding": [
              {
                "system": "http://terminology.hl7.org/CodeSystem/observation-category",
                "code": "laboratory"
              }
            ]
          }
        ],
        "code": {
          "coding": [
            {
              "code": "6298-4",
              "system": "http://loinc.org",
              "display": "Potassium [Moles/volume] in Blood"
            }
          ],
          "text": "Potassium [Moles/volume] in Blood"
        },
        "valueQuantity": {
          "system": "http://unitsofmeasure.org",
          "value": 3.8,
          "unit": "mmol/L",
          "code": "mmol/L"
        },
        "referenceRange": [
          {
            "low": {
              "value": 3.5,
              "code": "mmol/L",
              "system": "http://unitsofmeasure.org"
            }
          },
          {
            "high": {
              "value": 5.1,
              "code": "mmol/L",
              "system": "http://unitsofmeasure.org"
            }
          }
        ],
        "text": {
          "status": "generated",
          "div": "<div xmlns=\"http://www.w3.org/1999/xhtml\"><table class=\"hl7__eu__lab__report\"><tr><th>Test</th><th>18-Mar-2016</th><th>Reference&#xA0;Range</th><th>Unit</th></tr><tr><td>Potassium [Moles/volume] in Blood</td><td>3.8</td><td>3.5 - 5.1</td><td></td><td>mmol/L</td></tr></table></div>"
        },
        "status": "final",
        "subject": {
          "reference": "urn:uuid:03e5b2f7-6f48-481a-a1b9-cc7b79fbee47",
          "display": "Marlene Gerlach"
        },
        "effectiveDateTime": "2016-03-18T19:24:33Z",
        "specimen": {
          "reference": "urn:uuid:0d563e42-9673-406a-944b-62687da62931"
        }
      }
    },
    {
      "fullUrl": "urn:uuid:d42ac960-ff99-42cc-bc1f-a3af82635283",
      "resource": {
        "resourceType": "Observation",
        "id": "d42ac960-ff99-42cc-bc1f-a3af82635283",
        "meta": {
          "profile": [
            "http://hl7.eu/fhir/laboratory/StructureDefinition/Observation-resultslab-eu-lab"
          ]
        },
        "performer": [
          {
            "display": "The Central European Lab"
          }
        ],
        "category": [
          {
            "coding": [
              {
                "system": "http://terminology.hl7.org/CodeSystem/observation-category",
                "code": "laboratory"
              }
            ]
          }
        ],
        "code": {
          "coding": [
            {
              "code": "2069-3",
              "system": "http://loinc.org",
              "display": "Chloride [Moles/volume] in Blood"
            }
          ],
          "text": "Chloride [Moles/volume] in Blood"
        },
        "valueQuantity": {
          "system": "http://unitsofmeasure.org",
          "value": 108.1,
          "unit": "mmol/L",
          "code": "mmol/L"
        },
        "referenceRange": [
          {
            "low": {
              "value": 98,
              "code": "mmol/L",
              "system": "http://unitsofmeasure.org"
            }
          },
          {
            "high": {
              "value": 108,
              "code": "mmol/L",
              "system": "http://unitsofmeasure.org"
            }
          }
        ],
        "interpretation": [
          {
            "coding": [
              {
                "code": "H",
                "system": "http://terminology.hl7.org/CodeSystem/v3-ObservationInterpretation",
                "display": "High"
              }
            ]
          }
        ],
        "text": {
          "status": "generated",
          "div": "<div xmlns=\"http://www.w3.org/1999/xhtml\"><table class=\"hl7__eu__lab__report\"><tr><th>Test</th><th>18-Mar-2016</th><th>Reference&#xA0;Range</th><th>Unit</th></tr><tr><td>Chloride [Moles/volume] in Blood</td><td>108.1</td><td>98 - 108</td><td>H</td><td>mmol/L</td></tr></table></div>"
        },
        "status": "final",
        "subject": {
          "reference": "urn:uuid:03e5b2f7-6f48-481a-a1b9-cc7b79fbee47",
          "display": "Marlene Gerlach"
        },
        "effectiveDateTime": "2016-03-18T19:24:33Z",
        "specimen": {
          "reference": "urn:uuid:0d563e42-9673-406a-944b-62687da62931"
        }
      }
    },
    {
      "fullUrl": "urn:uuid:e7e0d6f3-c771-48a1-890c-4b7f0782fe5a",
      "resource": {
        "resourceType": "Observation",
        "id": "e7e0d6f3-c771-48a1-890c-4b7f0782fe5a",
        "meta": {
          "profile": [
            "http://hl7.eu/fhir/laboratory/StructureDefinition/Observation-resultslab-eu-lab"
          ]
        },
        "performer": [
          {
            "display": "The Central European Lab"
          }
        ],
        "category": [
          {
            "coding": [
              {
                "system": "http://terminology.hl7.org/CodeSystem/observation-category",
                "code": "laboratory"
              }
            ]
          }
        ],
        "code": {
          "coding": [
            {
              "code": "20565-8",
              "system": "http://loinc.org",
              "display": "Carbon dioxide, total [Moles/volume] in Blood"
            }
          ],
          "text": "Carbon dioxide, total [Moles/volume] in Blood"
        },
        "valueQuantity": {
          "system": "http://unitsofmeasure.org",
          "value": 26.3,
          "unit": "mmol/L",
          "code": "mmol/L"
        },
        "referenceRange": [
          {
            "low": {
              "value": 22,
              "code": "mmol/L",
              "system": "http://unitsofmeasure.org"
            }
          },
          {
            "high": {
              "value": 29,
              "code": "mmol/L",
              "system": "http://unitsofmeasure.org"
            }
          }
        ],
        "text": {
          "status": "generated",
          "div": "<div xmlns=\"http://www.w3.org/1999/xhtml\"><table class=\"hl7__eu__lab__report\"><tr><th>Test</th><th>18-Mar-2016</th><th>Reference&#xA0;Range</th><th>Unit</th></tr><tr><td>Carbon dioxide, total [Moles/volume] in Blood</td><td>26.3</td><td>22 - 29</td><td></td><td>mmol/L</td></tr></table></div>"
        },
        "status": "final",
        "subject": {
          "reference": "urn:uuid:03e5b2f7-6f48-481a-a1b9-cc7b79fbee47",
          "display": "Marlene Gerlach"
        },
        "effectiveDateTime": "2016-03-18T19:24:33Z",
        "specimen": {
          "reference": "urn:uuid:0d563e42-9673-406a-944b-62687da62931"
        }
      }
    },
    {
      "fullUrl": "urn:uuid:28c3d15b-247c-4287-97c8-c45322dbe7ef",
      "resource": {
        "resourceType": "Observation",
        "id": "28c3d15b-247c-4287-97c8-c45322dbe7ef",
        "meta": {
          "profile": [
            "http://hl7.eu/fhir/laboratory/StructureDefinition/Observation-resultslab-eu-lab"
          ]
        },
        "performer": [
          {
            "display": "The Central European Lab"
          }
        ],
        "category": [
          {
            "coding": [
              {
                "system": "http://terminology.hl7.org/CodeSystem/observation-category",
                "code": "laboratory"
              }
            ]
          }
        ],
        "code": {
          "coding": [
            {
              "code": "2885-2",
              "system": "http://loinc.org",
              "display": "Protein [Mass/volume] in Serum or Plasma"
            }
          ],
          "text": "Protein [Mass/volume] in Serum or Plasma"
        },
        "valueQuantity": {
          "system": "http://unitsofmeasure.org",
          "value": 6.3,
          "unit": "g/dL",
          "code": "g/dL"
        },
        "referenceRange": [
          {
            "low": {
              "value": 6,
              "code": "g/dL",
              "system": "http://unitsofmeasure.org"
            }
          },
          {
            "high": {
              "value": 8.2,
              "code": "g/dL",
              "system": "http://unitsofmeasure.org"
            }
          }
        ],
        "text": {
          "status": "generated",
          "div": "<div xmlns=\"http://www.w3.org/1999/xhtml\"><table class=\"hl7__eu__lab__report\"><tr><th>Test</th><th>18-Mar-2016</th><th>Reference&#xA0;Range</th><th>Unit</th></tr><tr><td>Protein [Mass/volume] in Serum or Plasma</td><td>6.3</td><td>6 - 8.2</td><td></td><td>g/dL</td></tr></table></div>"
        },
        "status": "final",
        "subject": {
          "reference": "urn:uuid:03e5b2f7-6f48-481a-a1b9-cc7b79fbee47",
          "display": "Marlene Gerlach"
        },
        "effectiveDateTime": "2016-03-18T19:24:33Z",
        "specimen": {
          "reference": "urn:uuid:ea1f062b-e5b7-44e8-bbc6-2eba1be35b4a"
        }
      }
    },
    {
      "fullUrl": "urn:uuid:61a5f047-6853-496a-afb2-4b7b79fee640",
      "resource": {
        "resourceType": "Observation",
        "id": "61a5f047-6853-496a-afb2-4b7b79fee640",
        "meta": {
          "profile": [
            "http://hl7.eu/fhir/laboratory/StructureDefinition/Observation-resultslab-eu-lab"
          ]
        },
        "performer": [
          {
            "display": "The Central European Lab"
          }
        ],
        "category": [
          {
            "coding": [
              {
                "system": "http://terminology.hl7.org/CodeSystem/observation-category",
                "code": "laboratory"
              }
            ]
          }
        ],
        "code": {
          "coding": [
            {
              "code": "1751-7",
              "system": "http://loinc.org",
              "display": "Albumin [Mass/volume] in Serum or Plasma"
            }
          ],
          "text": "Albumin [Mass/volume] in Serum or Plasma"
        },
        "valueQuantity": {
          "system": "http://unitsofmeasure.org",
          "value": 3.9,
          "unit": "g/dL",
          "code": "g/dL"
        },
        "referenceRange": [
          {
            "low": {
              "value": 3.5,
              "code": "g/dL",
              "system": "http://unitsofmeasure.org"
            }
          },
          {
            "high": {
              "value": 5,
              "code": "g/dL",
              "system": "http://unitsofmeasure.org"
            }
          }
        ],
        "text": {
          "status": "generated",
          "div": "<div xmlns=\"http://www.w3.org/1999/xhtml\"><table class=\"hl7__eu__lab__report\"><tr><th>Test</th><th>18-Mar-2016</th><th>Reference&#xA0;Range</th><th>Unit</th></tr><tr><td>Albumin [Mass/volume] in Serum or Plasma</td><td>3.9</td><td>3.5 - 5</td><td></td><td>g/dL</td></tr></table></div>"
        },
        "status": "final",
        "subject": {
          "reference": "urn:uuid:03e5b2f7-6f48-481a-a1b9-cc7b79fbee47",
          "display": "Marlene Gerlach"
        },
        "effectiveDateTime": "2016-03-18T19:24:33Z",
        "specimen": {
          "reference": "urn:uuid:ea1f062b-e5b7-44e8-bbc6-2eba1be35b4a"
        }
      }
    },
    {
      "fullUrl": "urn:uuid:755befa7-5db0-460e-8a8a-2f6e1bf6c1c3",
      "resource": {
        "resourceType": "Observation",
        "id": "755befa7-5db0-460e-8a8a-2f6e1bf6c1c3",
        "meta": {
          "profile": [
            "http://hl7.eu/fhir/laboratory/StructureDefinition/Observation-resultslab-eu-lab"
          ]
        },
        "performer": [
          {
            "display": "The Central European Lab"
          }
        ],
        "category": [
          {
            "coding": [
              {
                "system": "http://terminology.hl7.org/CodeSystem/observation-category",
                "code": "laboratory"
              }
            ]
          }
        ],
        "code": {
          "coding": [
            {
              "code": "10834-0",
              "system": "http://loinc.org",
              "display": "Globulin [Mass/volume] in Serum by calculation"
            }
          ],
          "text": "Globulin [Mass/volume] in Serum by calculation"
        },
        "valueQuantity": {
          "system": "http://unitsofmeasure.org",
          "value": 3.2,
          "unit": "g/L",
          "code": "g/L"
        },
        "referenceRange": [
          {
            "low": {
              "value": 2,
              "code": "g/L",
              "system": "http://unitsofmeasure.org"
            }
          },
          {
            "high": {
              "value": 4,
              "code": "g/L",
              "system": "http://unitsofmeasure.org"
            }
          }
        ],
        "text": {
          "status": "generated",
          "div": "<div xmlns=\"http://www.w3.org/1999/xhtml\"><table class=\"hl7__eu__lab__report\"><tr><th>Test</th><th>18-Mar-2016</th><th>Reference&#xA0;Range</th><th>Unit</th></tr><tr><td>Globulin [Mass/volume] in Serum by calculation</td><td>3.2</td><td>2 - 4</td><td></td><td>g/L</td></tr></table></div>"
        },
        "status": "final",
        "subject": {
          "reference": "urn:uuid:03e5b2f7-6f48-481a-a1b9-cc7b79fbee47",
          "display": "Marlene Gerlach"
        },
        "effectiveDateTime": "2016-03-18T19:24:33Z",
        "specimen": {
          "reference": "urn:uuid:6c5d2569-1daf-467f-b38c-dd264db72d4a"
        }
      }
    },
    {
      "fullUrl": "urn:uuid:39946dab-b100-4649-8677-05a8eb595c1c",
      "resource": {
        "resourceType": "Observation",
        "id": "39946dab-b100-4649-8677-05a8eb595c1c",
        "meta": {
          "profile": [
            "http://hl7.eu/fhir/laboratory/StructureDefinition/Observation-resultslab-eu-lab"
          ]
        },
        "performer": [
          {
            "display": "The Central European Lab"
          }
        ],
        "category": [
          {
            "coding": [
              {
                "system": "http://terminology.hl7.org/CodeSystem/observation-category",
                "code": "laboratory"
              }
            ]
          }
        ],
        "code": {
          "coding": [
            {
              "code": "1975-2",
              "system": "http://loinc.org",
              "display": "Bilirubin.total [Mass/volume] in Serum or Plasma"
            }
          ],
          "text": "Bilirubin.total [Mass/volume] in Serum or Plasma"
        },
        "valueQuantity": {
          "system": "http://unitsofmeasure.org",
          "value": 1.1,
          "unit": "mg/dL",
          "code": "mg/dL"
        },
        "referenceRange": [
          {
            "low": {
              "value": 0.3,
              "code": "mg/dL",
              "system": "http://unitsofmeasure.org"
            }
          },
          {
            "high": {
              "value": 1.2,
              "code": "mg/dL",
              "system": "http://unitsofmeasure.org"
            }
          }
        ],
        "text": {
          "status": "generated",
          "div": "<div xmlns=\"http://www.w3.org/1999/xhtml\"><table class=\"hl7__eu__lab__report\"><tr><th>Test</th><th>18-Mar-2016</th><th>Reference&#xA0;Range</th><th>Unit</th></tr><tr><td>Bilirubin.total [Mass/volume] in Serum or Plasma</td><td>1.1</td><td>0.3 - 1.2</td><td></td><td>mg/dL</td></tr></table></div>"
        },
        "status": "final",
        "subject": {
          "reference": "urn:uuid:03e5b2f7-6f48-481a-a1b9-cc7b79fbee47",
          "display": "Marlene Gerlach"
        },
        "effectiveDateTime": "2016-03-18T19:24:33Z",
        "specimen": {
          "reference": "urn:uuid:ea1f062b-e5b7-44e8-bbc6-2eba1be35b4a"
        }
      }
    },
    {
      "fullUrl": "urn:uuid:68ccf189-832f-49c0-b7a0-707ecd2542ba",
      "resource": {
        "resourceType": "Observation",
        "id": "68ccf189-832f-49c0-b7a0-707ecd2542ba",
        "meta": {
          "profile": [
            "http://hl7.eu/fhir/laboratory/StructureDefinition/Observation-resultslab-eu-lab"
          ]
        },
        "performer": [
          {
            "display": "The Central European Lab"
          }
        ],
        "category": [
          {
            "coding": [
              {
                "system": "http://terminology.hl7.org/CodeSystem/observation-category",
                "code": "laboratory"
              }
            ]
          }
        ],
        "code": {
          "coding": [
            {
              "code": "6768-6",
              "system": "http://loinc.org",
              "display": "Alkaline phosphatase [Enzymatic activity/volume] in Serum or Plasma"
            }
          ],
          "text": "Alkaline phosphatase [Enzymatic activity/volume] in Serum or Plasma"
        },
        "valueQuantity": {
          "system": "http://unitsofmeasure.org",
          "value": 53.7,
          "unit": "U/L",
          "code": "U/L"
        },
        "referenceRange": [
          {
            "low": {
              "value": 35,
              "code": "U/L",
              "system": "http://unitsofmeasure.org"
            }
          },
          {
            "high": {
              "value": 141,
              "code": "U/L",
              "system": "http://unitsofmeasure.org"
            }
          }
        ],
        "text": {
          "status": "generated",
          "div": "<div xmlns=\"http://www.w3.org/1999/xhtml\"><table class=\"hl7__eu__lab__report\"><tr><th>Test</th><th>18-Mar-2016</th><th>Reference&#xA0;Range</th><th>Unit</th></tr><tr><td>Alkaline phosphatase [Enzymatic activity/volume] in Serum or Plasma</td><td>53.7</td><td>35 - 141</td><td></td><td>U/L</td></tr></table></div>"
        },
        "status": "final",
        "subject": {
          "reference": "urn:uuid:03e5b2f7-6f48-481a-a1b9-cc7b79fbee47",
          "display": "Marlene Gerlach"
        },
        "effectiveDateTime": "2016-03-18T19:24:33Z",
        "specimen": {
          "reference": "urn:uuid:ea1f062b-e5b7-44e8-bbc6-2eba1be35b4a"
        }
      }
    },
    {
      "fullUrl": "urn:uuid:d68dd15f-e2e5-4f4f-ad99-7dd48086301c",
      "resource": {
        "resourceType": "Observation",
        "id": "d68dd15f-e2e5-4f4f-ad99-7dd48086301c",
        "meta": {
          "profile": [
            "http://hl7.eu/fhir/laboratory/StructureDefinition/Observation-resultslab-eu-lab"
          ]
        },
        "performer": [
          {
            "display": "The Central European Lab"
          }
        ],
        "category": [
          {
            "coding": [
              {
                "system": "http://terminology.hl7.org/CodeSystem/observation-category",
                "code": "laboratory"
              }
            ]
          }
        ],
        "code": {
          "coding": [
            {
              "code": "1742-6",
              "system": "http://loinc.org",
              "display": "Alanine aminotransferase [Enzymatic activity/volume] in Serum or Plasma"
            }
          ],
          "text": "Alanine aminotransferase [Enzymatic activity/volume] in Serum or Plasma"
        },
        "valueQuantity": {
          "system": "http://unitsofmeasure.org",
          "value": 20.5,
          "unit": "U/L",
          "code": "U/L"
        },
        "referenceRange": [
          {
            "low": {
              "value": 7,
              "code": "U/L",
              "system": "http://unitsofmeasure.org"
            }
          },
          {
            "high": {
              "value": 60,
              "code": "U/L",
              "system": "http://unitsofmeasure.org"
            }
          }
        ],
        "text": {
          "status": "generated",
          "div": "<div xmlns=\"http://www.w3.org/1999/xhtml\"><table class=\"hl7__eu__lab__report\"><tr><th>Test</th><th>18-Mar-2016</th><th>Reference&#xA0;Range</th><th>Unit</th></tr><tr><td>Alanine aminotransferase [Enzymatic activity/volume] in Serum or Plasma</td><td>20.5</td><td>7 - 60</td><td></td><td>U/L</td></tr></table></div>"
        },
        "status": "final",
        "subject": {
          "reference": "urn:uuid:03e5b2f7-6f48-481a-a1b9-cc7b79fbee47",
          "display": "Marlene Gerlach"
        },
        "effectiveDateTime": "2016-03-18T19:24:33Z",
        "specimen": {
          "reference": "urn:uuid:ea1f062b-e5b7-44e8-bbc6-2eba1be35b4a"
        }
      }
    },
    {
      "fullUrl": "urn:uuid:a80111d6-b9c3-44a6-9968-9cc73f7a8de2",
      "resource": {
        "resourceType": "Observation",
        "id": "a80111d6-b9c3-44a6-9968-9cc73f7a8de2",
        "meta": {
          "profile": [
            "http://hl7.eu/fhir/laboratory/StructureDefinition/Observation-resultslab-eu-lab"
          ]
        },
        "performer": [
          {
            "display": "The Central European Lab"
          }
        ],
        "category": [
          {
            "coding": [
              {
                "system": "http://terminology.hl7.org/CodeSystem/observation-category",
                "code": "laboratory"
              }
            ]
          }
        ],
        "code": {
          "coding": [
            {
              "code": "1920-8",
              "system": "http://loinc.org",
              "display": "Aspartate aminotransferase [Enzymatic activity/volume] in Serum or Plasma"
            }
          ],
          "text": "Aspartate aminotransferase [Enzymatic activity/volume] in Serum or Plasma"
        },
        "valueQuantity": {
          "system": "http://unitsofmeasure.org",
          "value": 16.5,
          "unit": "U/L",
          "code": "U/L"
        },
        "referenceRange": [
          {
            "low": {
              "value": 10,
              "code": "U/L",
              "system": "http://unitsofmeasure.org"
            }
          },
          {
            "high": {
              "value": 40,
              "code": "U/L",
              "system": "http://unitsofmeasure.org"
            }
          }
        ],
        "text": {
          "status": "generated",
          "div": "<div xmlns=\"http://www.w3.org/1999/xhtml\"><table class=\"hl7__eu__lab__report\"><tr><th>Test</th><th>18-Mar-2016</th><th>Reference&#xA0;Range</th><th>Unit</th></tr><tr><td>Aspartate aminotransferase [Enzymatic activity/volume] in Serum or Plasma</td><td>16.5</td><td>10 - 40</td><td></td><td>U/L</td></tr></table></div>"
        },
        "status": "final",
        "subject": {
          "reference": "urn:uuid:03e5b2f7-6f48-481a-a1b9-cc7b79fbee47",
          "display": "Marlene Gerlach"
        },
        "effectiveDateTime": "2016-03-18T19:24:33Z",
        "specimen": {
          "reference": "urn:uuid:ea1f062b-e5b7-44e8-bbc6-2eba1be35b4a"
        }
      }
    },
    {
      "fullUrl": "urn:uuid:d6b6dec5-5332-4a50-89d2-329662b5518c",
      "resource": {
        "resourceType": "Observation",
        "id": "d6b6dec5-5332-4a50-89d2-329662b5518c",
        "meta": {
          "profile": [
            "http://hl7.eu/fhir/laboratory/StructureDefinition/Observation-resultslab-eu-lab"
          ]
        },
        "performer": [
          {
            "display": "The Central European Lab"
          }
        ],
        "category": [
          {
            "coding": [
              {
                "system": "http://terminology.hl7.org/CodeSystem/observation-category",
                "code": "laboratory"
              }
            ]
          }
        ],
        "code": {
          "coding": [
            {
              "code": "2093-3",
              "system": "http://loinc.org",
              "display": "Cholesterol [Mass/volume] in Serum or Plasma"
            }
          ],
          "text": "Cholesterol [Mass/volume] in Serum or Plasma"
        },
        "valueQuantity": {
          "system": "http://unitsofmeasure.org",
          "value": 189.2,
          "unit": "mg/dL",
          "code": "mg/dL"
        },
        "referenceRange": [
          {
            "low": {
              "value": 0,
              "code": "mg/dL",
              "system": "http://unitsofmeasure.org"
            }
          },
          {
            "high": {
              "value": 200,
              "code": "mg/dL",
              "system": "http://unitsofmeasure.org"
            }
          }
        ],
        "text": {
          "status": "generated",
          "div": "<div xmlns=\"http://www.w3.org/1999/xhtml\"><table class=\"hl7__eu__lab__report\"><tr><th>Test</th><th>18-Mar-2016</th><th>Reference&#xA0;Range</th><th>Unit</th></tr><tr><td>Cholesterol [Mass/volume] in Serum or Plasma</td><td>189.2</td><td>0 - 200</td><td></td><td>mg/dL</td></tr></table></div>"
        },
        "status": "final",
        "subject": {
          "reference": "urn:uuid:03e5b2f7-6f48-481a-a1b9-cc7b79fbee47",
          "display": "Marlene Gerlach"
        },
        "effectiveDateTime": "2016-03-18T19:24:33Z",
        "specimen": {
          "reference": "urn:uuid:ea1f062b-e5b7-44e8-bbc6-2eba1be35b4a"
        }
      }
    },
    {
      "fullUrl": "urn:uuid:3fcd2e26-147d-4137-bc66-7fa257d31dca",
      "resource": {
        "resourceType": "Observation",
        "id": "3fcd2e26-147d-4137-bc66-7fa257d31dca",
        "meta": {
          "profile": [
            "http://hl7.eu/fhir/laboratory/StructureDefinition/Observation-resultslab-eu-lab"
          ]
        },
        "performer": [
          {
            "display": "The Central European Lab"
          }
        ],
        "category": [
          {
            "coding": [
              {
                "system": "http://terminology.hl7.org/CodeSystem/observation-category",
                "code": "laboratory"
              }
            ]
          }
        ],
        "code": {
          "coding": [
            {
              "code": "2571-8",
              "system": "http://loinc.org",
              "display": "Triglyceride [Mass/volume] in Serum or Plasma"
            }
          ],
          "text": "Triglyceride [Mass/volume] in Serum or Plasma"
        },
        "valueQuantity": {
          "system": "http://unitsofmeasure.org",
          "value": 128.6,
          "unit": "mg/dL",
          "code": "mg/dL"
        },
        "referenceRange": [
          {
            "low": {
              "value": 0,
              "code": "mg/dL",
              "system": "http://unitsofmeasure.org"
            }
          },
          {
            "high": {
              "value": 199,
              "code": "mg/dL",
              "system": "http://unitsofmeasure.org"
            }
          }
        ],
        "text": {
          "status": "generated",
          "div": "<div xmlns=\"http://www.w3.org/1999/xhtml\"><table class=\"hl7__eu__lab__report\"><tr><th>Test</th><th>18-Mar-2016</th><th>Reference&#xA0;Range</th><th>Unit</th></tr><tr><td>Triglyceride [Mass/volume] in Serum or Plasma</td><td>128.6</td><td>0 - 199</td><td></td><td>mg/dL</td></tr></table></div>"
        },
        "status": "final",
        "subject": {
          "reference": "urn:uuid:03e5b2f7-6f48-481a-a1b9-cc7b79fbee47",
          "display": "Marlene Gerlach"
        },
        "effectiveDateTime": "2016-03-18T19:24:33Z",
        "specimen": {
          "reference": "urn:uuid:ea1f062b-e5b7-44e8-bbc6-2eba1be35b4a"
        }
      }
    },
    {
      "fullUrl": "urn:uuid:fffd411e-d233-47f4-b3de-cc61be48de1b",
      "resource": {
        "resourceType": "Observation",
        "id": "fffd411e-d233-47f4-b3de-cc61be48de1b",
        "meta": {
          "profile": [
            "http://hl7.eu/fhir/laboratory/StructureDefinition/Observation-resultslab-eu-lab"
          ]
        },
        "performer": [
          {
            "display": "The Central European Lab"
          }
        ],
        "category": [
          {
            "coding": [
              {
                "system": "http://terminology.hl7.org/CodeSystem/observation-category",
                "code": "laboratory"
              }
            ]
          }
        ],
        "code": {
          "coding": [
            {
              "code": "18262-6",
              "system": "http://loinc.org",
              "display": "Cholesterol in LDL [Mass/volume] in Serum or Plasma by Direct assay"
            }
          ],
          "text": "Cholesterol in LDL [Mass/volume] in Serum or Plasma by Direct assay"
        },
        "valueQuantity": {
          "system": "http://unitsofmeasure.org",
          "value": 121,
          "unit": "mg/dL",
          "code": "mg/dL"
        },
        "referenceRange": [
          {
            "low": {
              "value": 0,
              "code": "mg/dL",
              "system": "http://unitsofmeasure.org"
            }
          },
          {
            "high": {
              "value": 130,
              "code": "mg/dL",
              "system": "http://unitsofmeasure.org"
            }
          }
        ],
        "text": {
          "status": "generated",
          "div": "<div xmlns=\"http://www.w3.org/1999/xhtml\"><table class=\"hl7__eu__lab__report\"><tr><th>Test</th><th>18-Mar-2016</th><th>Reference&#xA0;Range</th><th>Unit</th></tr><tr><td>Cholesterol in LDL [Mass/volume] in Serum or Plasma by Direct assay</td><td>121.0</td><td>0 - 130</td><td></td><td>mg/dL</td></tr></table></div>"
        },
        "status": "final",
        "subject": {
          "reference": "urn:uuid:03e5b2f7-6f48-481a-a1b9-cc7b79fbee47",
          "display": "Marlene Gerlach"
        },
        "effectiveDateTime": "2016-03-18T19:24:33Z",
        "specimen": {
          "reference": "urn:uuid:ea1f062b-e5b7-44e8-bbc6-2eba1be35b4a"
        }
      }
    },
    {
      "fullUrl": "urn:uuid:0254cfab-6773-46c1-9a34-a3a5a9276a4b",
      "resource": {
        "resourceType": "Observation",
        "id": "0254cfab-6773-46c1-9a34-a3a5a9276a4b",
        "meta": {
          "profile": [
            "http://hl7.eu/fhir/laboratory/StructureDefinition/Observation-resultslab-eu-lab"
          ]
        },
        "performer": [
          {
            "display": "The Central European Lab"
          }
        ],
        "category": [
          {
            "coding": [
              {
                "system": "http://terminology.hl7.org/CodeSystem/observation-category",
                "code": "laboratory"
              }
            ]
          }
        ],
        "code": {
          "coding": [
            {
              "code": "2085-9",
              "system": "http://loinc.org",
              "display": "Cholesterol in HDL [Mass/volume] in Serum or Plasma"
            }
          ],
          "text": "Cholesterol in HDL [Mass/volume] in Serum or Plasma"
        },
        "valueQuantity": {
          "system": "http://unitsofmeasure.org",
          "value": 67.4,
          "unit": "mg/dL",
          "code": "mg/dL"
        },
        "referenceRange": [
          {
            "low": {
              "value": 46,
              "code": "mg/dL",
              "system": "http://unitsofmeasure.org"
            }
          },
          {
            "high": {
              "value": 77,
              "code": "mg/dL",
              "system": "http://unitsofmeasure.org"
            }
          }
        ],
        "text": {
          "status": "generated",
          "div": "<div xmlns=\"http://www.w3.org/1999/xhtml\"><table class=\"hl7__eu__lab__report\"><tr><th>Test</th><th>18-Mar-2016</th><th>Reference&#xA0;Range</th><th>Unit</th></tr><tr><td>Cholesterol in HDL [Mass/volume] in Serum or Plasma</td><td>67.4</td><td>46 - 77</td><td></td><td>mg/dL</td></tr></table></div>"
        },
        "status": "final",
        "subject": {
          "reference": "urn:uuid:03e5b2f7-6f48-481a-a1b9-cc7b79fbee47",
          "display": "Marlene Gerlach"
        },
        "effectiveDateTime": "2016-03-18T19:24:33Z",
        "specimen": {
          "reference": "urn:uuid:ea1f062b-e5b7-44e8-bbc6-2eba1be35b4a"
        }
      }
    },
    {
      "fullUrl": "urn:uuid:3d39c6e6-1769-445b-95c8-36b857f94b60",
      "resource": {
        "resourceType": "Device",
        "id": "3d39c6e6-1769-445b-95c8-36b857f94b60",
        "deviceName": [
          {
            "name": "SYNDERAI Synthetic Generator",
            "type": "manufacturer-name"
          }
        ],
        "version": [
          {
            "value": "5.0"
          }
        ],
        "text": {
          "status": "generated",
          "div": "<div xmlns=\"http://www.w3.org/1999/xhtml\">SYNDERAI Synthetic Generator v5.0</div>"
        },
        "status": "active\"",
        "distinctIdentifier": "synderai-generator-50",
        "manufacturer": "SYNDERAI Project"
      }
    },
    {
      "fullUrl": "urn:uuid:4d1dbe76-71d1-4e1a-b60f-ee88f6041c31",
      "resource": {
        "resourceType": "Provenance",
        "id": "4d1dbe76-71d1-4e1a-b60f-ee88f6041c31",
        "target": [
          {
            "reference": "Patient/03e5b2f7-6f48-481a-a1b9-cc7b79fbee47"
          },
          {
            "reference": "Bundle/52943929-1d7d-4cf4-958f-a0e7d65e411a"
          },
          {
            "reference": "Composition/1bd227d0-8da4-473f-aaa6-7b79e5aab0da"
          },
          {
            "reference": "PractitionerRole/353ad859-d65e-4848-bb88-8dd92088d175"
          },
          {
            "reference": "Practitioner/abcbbc67-56ef-4430-99a3-ddc6245e8374"
          },
          {
            "reference": "PractitionerRole/df6cceeb-595b-4820-8537-60ea60b67535"
          },
          {
            "reference": "Organization/b0219aae-877d-4b39-9786-da685b0daaf6"
          }
        ],
        "activity": {
          "text": "Synthetic Example Data Generation"
        },
        "policy": [
          "https://synderai.net/synderai-synthetic-data-policy"
        ],
        "agent": [
          {
            "type": {
              "text": "author"
            },
            "who": {
              "reference": "Device/3d39c6e6-1769-445b-95c8-36b857f94b60"
            }
          }
        ],
        "reason": [
          {
            "text": "Interoperability Testing and Training (non-clinical use)"
          }
        ],
        "text": {
          "status": "generated",
          "div": "<div xmlns=\"http://www.w3.org/1999/xhtml\">Provenance for SYNDERAI Synthetic Example Data Resource</div>"
        },
        "recorded": "2016-03-18T20:24:33Z"
      }
    },
    {
      "fullUrl": "urn:uuid:353ad859-d65e-4848-bb88-8dd92088d175",
      "resource": {
        "resourceType": "PractitionerRole",
        "id": "353ad859-d65e-4848-bb88-8dd92088d175",
        "meta": {
          "profile": [
            "http://hl7.eu/fhir/base/StructureDefinition/practitionerRole-eu"
          ]
        },
        "text": {
          "status": "generated",
          "div": "<div xmlns=\"http://www.w3.org/1999/xhtml\">Laboratory Role Id: 353ad859-d65e-4848-bb88-8dd92088d175</div>"
        },
        "practitioner": {
          "reference": "urn:uuid:abcbbc67-56ef-4430-99a3-ddc6245e8374"
        }
      }
    },
    {
      "fullUrl": "urn:uuid:abcbbc67-56ef-4430-99a3-ddc6245e8374",
      "resource": {
        "resourceType": "Practitioner",
        "id": "abcbbc67-56ef-4430-99a3-ddc6245e8374",
        "meta": {
          "profile": [
            "http://hl7.eu/fhir/base/StructureDefinition/practitioner-eu"
          ]
        },
        "identifier": [
          {
            "assigner": {
              "display": "HL7 Europe"
            },
            "system": "urn:oid:2.16.840.1.113883.2.51.999",
            "value": "bc5c01c4-52e8-496d-ba11-01d1971b7e8c"
          }
        ],
        "name": [
          {
            "prefix": [
              "dr"
            ],
            "given": [
              "Ex"
            ],
            "family": "Ample"
          }
        ],
        "address": [
          {
            "line": [
              "Laboratoire Central Européenne",
              "Boulevard du Jardin Botanique 32"
            ],
            "postalCode": "1000",
            "city": "Brussels",
            "country": "Belgium"
          }
        ],
        "text": {
          "status": "generated",
          "div": "<div xmlns=\"http://www.w3.org/1999/xhtml\">Laboratory: Laboratoire Central Européenne, 1000 Brussels, Belgium</div>"
        }
      }
    }
  ],
  "type": "document",
  "timestamp": "2016-03-18T20:24:33Z"
}
