{
  "resourceType": "Bundle",
  "id": "c1031434-e702-4f67-883d-b78f7fa9a835",
  "meta": {
    "profile": [
      "http://hl7.eu/fhir/laboratory/StructureDefinition/Bundle-eu-lab"
    ]
  },
  "identifier": {
    "assigner": {
      "display": "HL7 Europe"
    },
    "system": "urn:oid:2.16.840.1.113883.2.51.999",
    "value": "f33705fa-eb78-4863-9e02-da5006813a82"
  },
  "entry": [
    {
      "fullUrl": "urn:uuid:c5434b5e-3902-4ec8-a399-930ae27db03e",
      "resource": {
        "resourceType": "Composition",
        "id": "c5434b5e-3902-4ec8-a399-930ae27db03e",
        "meta": {
          "profile": [
            "http://hl7.eu/fhir/laboratory/StructureDefinition/Composition-eu-lab"
          ]
        },
        "identifier": {
          "assigner": {
            "display": "HL7 Europe"
          },
          "system": "urn:oid:2.16.840.1.113883.2.51.999",
          "value": "0d9ea418-d41c-4c18-b4f6-9043677898db"
        },
        "author": [
          {
            "reference": "urn:uuid:1ac5948d-762d-4286-809d-52d1f4559bb2"
          }
        ],
        "category": [
          {
            "coding": [
              {
                "code": "26436-6",
                "system": "http://loinc.org",
                "display": "Laboratory studies (set)"
              }
            ]
          }
        ],
        "type": {
          "coding": [
            {
              "code": "11502-2",
              "system": "http://loinc.org",
              "display": "Laboratory report"
            }
          ],
          "text": "Laboratory Report"
        },
        "section": [
          {
            "code": {
              "coding": [
                {
                  "code": "26436-6",
                  "system": "http://loinc.org",
                  "display": "Laboratory studies (set)"
                }
              ],
              "text": "Laboratory studies"
            },
            "section": [
              {
                "code": {
                  "coding": [
                    {
                      "code": "$18719-5",
                      "system": "http://loinc.org",
                      "display": "Chemistry studies (set)"
                    }
                  ],
                  "text": "Chemistry"
                },
                "entry": [
                  {
                    "reference": "urn:uuid:4b0467bd-725d-407b-b45e-121e9854e177"
                  },
                  {
                    "reference": "urn:uuid:61c6fbbf-bb9b-4a03-8684-6b7cdbe607e1"
                  },
                  {
                    "reference": "urn:uuid:b31f21fb-91a9-4017-9e72-0de3118df538"
                  },
                  {
                    "reference": "urn:uuid:00c87fcb-18e1-42df-abff-7ac450cf1b64"
                  },
                  {
                    "reference": "urn:uuid:90a9048a-88e9-44b6-882e-27af13273968"
                  },
                  {
                    "reference": "urn:uuid:bece5cb8-2d5f-4cdf-af0a-35d01685c4cb"
                  },
                  {
                    "reference": "urn:uuid:a1ce6147-ed4e-4ba7-a070-f24e8b3c04bc"
                  },
                  {
                    "reference": "urn:uuid:4453200c-c138-4eb5-8fb1-91832915530f"
                  },
                  {
                    "reference": "urn:uuid:34b5297f-19cc-466e-b6ce-850f4611401f"
                  },
                  {
                    "reference": "urn:uuid:822fa847-b69a-4677-9414-0387cb80770c"
                  },
                  {
                    "reference": "urn:uuid:c3a9ce2b-a5a3-4a54-b584-cfc91c75b2ba"
                  },
                  {
                    "reference": "urn:uuid:1941b9c4-a760-4298-a706-76e62b26485a"
                  },
                  {
                    "reference": "urn:uuid:5ac1c9c2-a9a4-480b-98c6-93055beeffa6"
                  }
                ],
                "text": {
                  "status": "generated",
                  "div": "<div xmlns=\"http://www.w3.org/1999/xhtml\"><h3>Chemistry</h3><table class=\"hl7__eu__lab__report\"><thead><tr><th>Test</th><th>02-MAR-2023</th><th>Reference&#xA0;Range</th><th>Unit</th></tr></thead><tbody><tr><td>Hemoglobin A1c/Hemoglobin.total in Blood</td><td>5.9</td><td>4 - 6</td><td>%</td></tr><tr><td>Glucose [Mass/volume] in Blood</td><td>84.4</td><td>70 - 140</td><td>mg/dL</td></tr><tr><td>Urea nitrogen [Mass/volume] in Blood</td><td>12.0</td><td>7 - 25</td><td>mg/dL</td></tr><tr><td>Creatinine [Mass/volume] in Blood</td><td>0.7</td><td>0.6 - 1.1</td><td>mg/dL</td></tr><tr><td>Calcium [Mass/volume] in Blood</td><td>9.5</td><td>8.5 - 10.4</td><td>mg/dL</td></tr><tr><td>Sodium [Moles/volume] in Blood</td><td>143.3</td><td>135 - 145</td><td>mmol/L</td></tr><tr><td>Potassium [Moles/volume] in Blood</td><td>4.2</td><td>3.5 - 5.1</td><td>mmol/L</td></tr><tr><td>Chloride [Moles/volume] in Blood</td><td>102.7</td><td>98 - 108</td><td>mmol/L</td></tr><tr><td>Carbon dioxide, total [Moles/volume] in Blood</td><td>25.4</td><td>22 - 29</td><td>mmol/L</td></tr><tr><td>Cholesterol [Mass/volume] in Serum or Plasma</td><td>176.8</td><td>125 - 200</td><td>mg/dL</td></tr><tr><td>Triglyceride [Mass/volume] in Serum or Plasma</td><td>128.6</td><td>35 - 150</td><td>mg/dL</td></tr><tr><td>Cholesterol in LDL [Mass/volume] in Serum or Plasma by Direct assay</td><td>98.5</td><td>0 - 130</td><td>mg/dL</td></tr><tr><td>Cholesterol in HDL [Mass/volume] in Serum or Plasma</td><td>52.6</td><td>50 - 100</td><td>mg/dL</td></tr></tbody></table></div>"
                },
                "title": "Chemistry"
              }
            ],
            "title": "Laboratory Report"
          },
          {
            "text": {
              "status": "generated",
              "div": "<div xmlns=\"http://www.w3.org/1999/xhtml\"><h3>Annotation</h3><table class=\"hl7__eu__lab__report\"><tr><th>Conclusion and Recommendations based on this report and previous findings known to us</th></tr><tr><td>All measured parameters are within normal limits. Glycemic control (HbA1c, glucose), renal function (urea, creatinine), electrolytes, lipid profile, and calcium are all unremarkable. No laboratory evidence of metabolic, renal, or lipid abnormalities at this time. No further action required from a laboratory perspective.</td></tr></table></div>"
            },
            "code": {
              "coding": [
                {
                  "system": "http://loinc.org",
                  "code": "48767-8",
                  "display": "Annotation comment"
                }
              ]
            },
            "title": "Annotation comment"
          }
        ],
        "status": "final",
        "subject": {
          "reference": "urn:uuid:f4ea449b-72af-4ba9-ad00-6ae822447ec2",
          "display": "Vincenza Porzio"
        },
        "date": "2023-03-02T19:51:27Z",
        "title": "Laboratory Report",
        "confidentiality": "N"
      }
    },
    {
      "fullUrl": "urn:uuid:2852343b-94e3-45f5-80bc-c5d04cdcf4a4",
      "resource": {
        "resourceType": "DiagnosticReport",
        "id": "2852343b-94e3-45f5-80bc-c5d04cdcf4a4",
        "meta": {
          "profile": [
            "http://hl7.eu/fhir/laboratory/StructureDefinition/DiagnosticReport-eu-lab"
          ]
        },
        "identifier": [
          {
            "assigner": {
              "display": "HL7 Europe"
            },
            "system": "urn:oid:2.16.840.1.113883.2.51.999",
            "value": "5374151d-3059-40bc-9c68-d52891e0cc2e"
          }
        ],
        "extension": [
          {
            "url": "http://hl7.org/fhir/5.0/StructureDefinition/extension-DiagnosticReport.composition",
            "valueReference": {
              "reference": "urn:uuid:0d9ea418-d41c-4c18-b4f6-9043677898db"
            }
          }
        ],
        "category": [
          {
            "coding": [
              {
                "code": "26436-6",
                "system": "http://loinc.org",
                "display": "Laboratory studies (set)"
              }
            ]
          }
        ],
        "specimen": [
          {
            "reference": "urn:uuid:40b400fb-02d6-43fa-af7f-bfc76fca1ae5"
          },
          {
            "reference": "urn:uuid:ccef52bc-75c6-434f-b59e-d58c5cdc7ebc"
          }
        ],
        "result": [
          {
            "reference": "urn:uuid:4b0467bd-725d-407b-b45e-121e9854e177"
          },
          {
            "reference": "urn:uuid:61c6fbbf-bb9b-4a03-8684-6b7cdbe607e1"
          },
          {
            "reference": "urn:uuid:b31f21fb-91a9-4017-9e72-0de3118df538"
          },
          {
            "reference": "urn:uuid:00c87fcb-18e1-42df-abff-7ac450cf1b64"
          },
          {
            "reference": "urn:uuid:90a9048a-88e9-44b6-882e-27af13273968"
          },
          {
            "reference": "urn:uuid:bece5cb8-2d5f-4cdf-af0a-35d01685c4cb"
          },
          {
            "reference": "urn:uuid:a1ce6147-ed4e-4ba7-a070-f24e8b3c04bc"
          },
          {
            "reference": "urn:uuid:4453200c-c138-4eb5-8fb1-91832915530f"
          },
          {
            "reference": "urn:uuid:34b5297f-19cc-466e-b6ce-850f4611401f"
          },
          {
            "reference": "urn:uuid:822fa847-b69a-4677-9414-0387cb80770c"
          },
          {
            "reference": "urn:uuid:c3a9ce2b-a5a3-4a54-b584-cfc91c75b2ba"
          },
          {
            "reference": "urn:uuid:1941b9c4-a760-4298-a706-76e62b26485a"
          },
          {
            "reference": "urn:uuid:5ac1c9c2-a9a4-480b-98c6-93055beeffa6"
          }
        ],
        "status": "registered",
        "code": {
          "coding": [
            {
              "code": "11502-2",
              "system": "http://loinc.org",
              "display": "Laboratory report"
            }
          ]
        },
        "subject": {
          "reference": "urn:uuid:f4ea449b-72af-4ba9-ad00-6ae822447ec2",
          "display": "Vincenza Porzio"
        }
      }
    },
    {
      "fullUrl": "urn:uuid:f4ea449b-72af-4ba9-ad00-6ae822447ec2",
      "resource": {
        "resourceType": "Patient",
        "id": "f4ea449b-72af-4ba9-ad00-6ae822447ec2",
        "meta": {
          "security": [
            {
              "system": "http://terminology.hl7.org/CodeSystem/v3-ActReason",
              "code": "HTEST"
            },
            {
              "system": "http://terminology.hl7.org/CodeSystem/v3-ActReason",
              "code": "TRAIN"
            }
          ],
          "tag": [
            {
              "system": "https://synderai.net/fhir/CodeSystem/tags",
              "code": "synthetic",
              "display": "SYNDERAI Synthetic data"
            }
          ],
          "profile": [
            "http://hl7.eu/fhir/base/StructureDefinition/patient-eu-core"
          ]
        },
        "identifier": [
          {
            "type": {
              "coding": [
                {
                  "code": "PT",
                  "system": "http://terminology.hl7.org/CodeSystem/v2-0203"
                }
              ]
            },
            "system": "http://ec.europa.eu/identifier/eci",
            "value": "9988-341158-1"
          },
          {
            "type": {
              "coding": [
                {
                  "code": "MR",
                  "system": "http://terminology.hl7.org/CodeSystem/v2-0203"
                }
              ]
            },
            "system": "http://local.setting.eu/identifier",
            "value": "559a1acd-87c3-5b56-0345-4eaff6c5aa0a"
          }
        ],
        "name": [
          {
            "family": "Porzio"
          },
          {
            "given": [
              "Vincenza"
            ]
          },
          {
            "text": "Vincenza Porzio"
          }
        ],
        "address": [
          {
            "line": [
              "Piazza Allegra, 720"
            ],
            "use": "home",
            "type": "physical",
            "postalCode": "36040",
            "city": "Grumolo Pedemonte",
            "country": "Italy"
          }
        ],
        "telecom": [
          {
            "system": "phone",
            "value": "041007473"
          }
        ],
        "extension": [
          {
            "url": "http://hl7.org/fhir/StructureDefinition/patient-nationality",
            "valueCodeableConcept": {
              "coding": [
                {
                  "code": "IT",
                  "system": "http://hl7.org/fhir/ValueSet/country"
                }
              ]
            }
          }
        ],
        "text": {
          "status": "generated",
          "div": "<div xmlns=\"http://www.w3.org/1999/xhtml\"><table class=\"hl7__ips\"><tr><td>Vincenza Porzio</td><td>female</td><td>13-Sep-1965</td></tr></table></div>"
        },
        "gender": "female",
        "birthDate": "1965-09-13"
      }
    },
    {
      "fullUrl": "urn:uuid:c0e91619-b27f-42f0-be54-38c1a19215eb",
      "resource": {
        "resourceType": "ServiceRequest",
        "id": "c0e91619-b27f-42f0-be54-38c1a19215eb",
        "meta": {
          "profile": [
            "http://hl7.eu/fhir/laboratory/StructureDefinition/ServiceRequest-eu-lab"
          ]
        },
        "identifier": [
          {
            "system": "http://example.org",
            "value": "eeaebb2a-d480-42c8-a1e3-ea1f832f3f1e"
          }
        ],
        "specimen": [
          {
            "reference": "urn:uuid:40b400fb-02d6-43fa-af7f-bfc76fca1ae5"
          },
          {
            "reference": "urn:uuid:ccef52bc-75c6-434f-b59e-d58c5cdc7ebc"
          }
        ],
        "reasonCode": [
          {
            "coding": [
              {
                "code": "40055000",
                "system": "http://snomed.info/sct",
                "display": "Chronic sinusitis"
              }
            ]
          },
          {
            "coding": [
              {
                "code": "15777000",
                "system": "http://snomed.info/sct",
                "display": "Prediabetes"
              }
            ]
          },
          {
            "coding": [
              {
                "code": "239873007",
                "system": "http://snomed.info/sct",
                "display": "Osteoarthritis of knee"
              }
            ]
          },
          {
            "coding": [
              {
                "code": "6525002",
                "system": "http://snomed.info/sct",
                "display": "Dependent drug abuse"
              }
            ]
          },
          {
            "coding": [
              {
                "code": "196416002",
                "system": "http://snomed.info/sct",
                "display": "Impacted molars"
              }
            ]
          },
          {
            "coding": [
              {
                "code": "124171000119105",
                "system": "http://snomed.info/sct",
                "display": "Chronic intractable migraine without aura"
              }
            ]
          }
        ],
        "status": "active",
        "intent": "order",
        "code": {
          "coding": [
            {
              "code": "108252007",
              "system": "http://snomed.info/sct",
              "display": "Laboratory procedure"
            }
          ]
        },
        "subject": {
          "reference": "urn:uuid:f4ea449b-72af-4ba9-ad00-6ae822447ec2",
          "display": "Vincenza Porzio"
        },
        "requester": {
          "reference": "urn:uuid:4f27aeaa-8264-4e06-85f1-a5847d98c8f0"
        }
      }
    },
    {
      "fullUrl": "urn:uuid:4f27aeaa-8264-4e06-85f1-a5847d98c8f0",
      "resource": {
        "resourceType": "PractitionerRole",
        "id": "4f27aeaa-8264-4e06-85f1-a5847d98c8f0",
        "meta": {
          "profile": [
            "http://hl7.eu/fhir/base/StructureDefinition/practitionerRole-eu"
          ]
        },
        "text": {
          "status": "generated",
          "div": "<div xmlns=\"http://www.w3.org/1999/xhtml\">Provider Role Id: 4f27aeaa-8264-4e06-85f1-a5847d98c8f0</div>"
        },
        "organization": {
          "reference": "urn:uuid:2c614121-48e2-433a-91b5-4e893a33e442"
        }
      }
    },
    {
      "fullUrl": "urn:uuid:2c614121-48e2-433a-91b5-4e893a33e442",
      "resource": {
        "resourceType": "Organization",
        "id": "2c614121-48e2-433a-91b5-4e893a33e442",
        "meta": {
          "profile": [
            "http://hl7.eu/fhir/base/StructureDefinition/organization-eu"
          ]
        },
        "identifier": [
          {
            "assigner": {
              "display": "HL7 Europe"
            },
            "system": "urn:oid:2.16.840.1.113883.2.51.999",
            "value": "a2ad6d35-b3fc-4c5b-9de4-41a47788e702"
          }
        ],
        "address": [
          {
            "country": "Italy"
          }
        ],
        "text": {
          "status": "generated",
          "div": "<div xmlns=\"http://www.w3.org/1999/xhtml\">Provider Organization: Villa Margherita</div>"
        },
        "name": "Villa Margherita"
      }
    },
    {
      "fullUrl": "urn:uuid:40b400fb-02d6-43fa-af7f-bfc76fca1ae5",
      "resource": {
        "resourceType": "Specimen",
        "id": "40b400fb-02d6-43fa-af7f-bfc76fca1ae5",
        "meta": {
          "profile": [
            "http://hl7.eu/fhir/laboratory/StructureDefinition/Specimen-eu-lab"
          ]
        },
        "collection": {
          "collectedDateTime": "2023-03-02"
        },
        "text": {
          "status": "generated",
          "div": "<div xmlns=\"http://www.w3.org/1999/xhtml\"><table class=\"hl7__eu__lab__report\"><tr><th>Specimen</th><th>Collection Date</th></tr><tr><td>Whole blood specimen (specimen)</td><td><span class=\"nb\">02-Mar-2023</span></td></tr></table></div>"
        },
        "type": {
          "coding": [
            {
              "code": "258580003",
              "system": "http://snomed.info/sct",
              "display": "Whole blood specimen (specimen)"
            }
          ]
        }
      }
    },
    {
      "fullUrl": "urn:uuid:ccef52bc-75c6-434f-b59e-d58c5cdc7ebc",
      "resource": {
        "resourceType": "Specimen",
        "id": "ccef52bc-75c6-434f-b59e-d58c5cdc7ebc",
        "meta": {
          "profile": [
            "http://hl7.eu/fhir/laboratory/StructureDefinition/Specimen-eu-lab"
          ]
        },
        "collection": {
          "collectedDateTime": "2023-03-02"
        },
        "text": {
          "status": "generated",
          "div": "<div xmlns=\"http://www.w3.org/1999/xhtml\"><table class=\"hl7__eu__lab__report\"><tr><th>Specimen</th><th>Collection Date</th></tr><tr><td>Acellular blood (serum or plasma) specimen</td><td><span class=\"nb\">02-Mar-2023</span></td></tr></table></div>"
        },
        "type": {
          "coding": [
            {
              "code": "122592007",
              "system": "http://snomed.info/sct",
              "display": "Acellular blood (serum or plasma) specimen"
            }
          ]
        }
      }
    },
    {
      "fullUrl": "urn:uuid:4b0467bd-725d-407b-b45e-121e9854e177",
      "resource": {
        "resourceType": "Observation",
        "id": "4b0467bd-725d-407b-b45e-121e9854e177",
        "meta": {
          "profile": [
            "http://hl7.eu/fhir/laboratory/StructureDefinition/Observation-resultslab-eu-lab"
          ]
        },
        "performer": [
          {
            "display": "The Central European Lab"
          }
        ],
        "category": [
          {
            "coding": [
              {
                "system": "http://terminology.hl7.org/CodeSystem/observation-category",
                "code": "laboratory"
              }
            ]
          }
        ],
        "code": {
          "coding": [
            {
              "code": "4548-4",
              "system": "http://loinc.org",
              "display": "Hemoglobin A1c/Hemoglobin.total in Blood"
            }
          ],
          "text": "Hemoglobin A1c/Hemoglobin.total in Blood"
        },
        "valueQuantity": {
          "system": "http://unitsofmeasure.org",
          "value": 5.9,
          "unit": "%",
          "code": "%"
        },
        "referenceRange": [
          {
            "low": {
              "value": 4,
              "code": "%",
              "system": "http://unitsofmeasure.org"
            }
          },
          {
            "high": {
              "value": 6,
              "code": "%",
              "system": "http://unitsofmeasure.org"
            }
          }
        ],
        "text": {
          "status": "generated",
          "div": "<div xmlns=\"http://www.w3.org/1999/xhtml\"><table class=\"hl7__eu__lab__report\"><tr><th>Test</th><th>02-Mar-2023</th><th>Reference&#xA0;Range</th><th>Unit</th></tr><tr><td>Hemoglobin A1c/Hemoglobin.total in Blood</td><td>5.9</td><td>4 - 6</td><td></td><td>%</td></tr></table></div>"
        },
        "status": "final",
        "subject": {
          "reference": "urn:uuid:f4ea449b-72af-4ba9-ad00-6ae822447ec2",
          "display": "Vincenza Porzio"
        },
        "effectiveDateTime": "2023-03-02T18:51:27Z",
        "specimen": {
          "reference": "urn:uuid:40b400fb-02d6-43fa-af7f-bfc76fca1ae5"
        }
      }
    },
    {
      "fullUrl": "urn:uuid:61c6fbbf-bb9b-4a03-8684-6b7cdbe607e1",
      "resource": {
        "resourceType": "Observation",
        "id": "61c6fbbf-bb9b-4a03-8684-6b7cdbe607e1",
        "meta": {
          "profile": [
            "http://hl7.eu/fhir/laboratory/StructureDefinition/Observation-resultslab-eu-lab"
          ]
        },
        "performer": [
          {
            "display": "The Central European Lab"
          }
        ],
        "category": [
          {
            "coding": [
              {
                "system": "http://terminology.hl7.org/CodeSystem/observation-category",
                "code": "laboratory"
              }
            ]
          }
        ],
        "code": {
          "coding": [
            {
              "code": "2339-0",
              "system": "http://loinc.org",
              "display": "Glucose [Mass/volume] in Blood"
            }
          ],
          "text": "Glucose [Mass/volume] in Blood"
        },
        "valueQuantity": {
          "system": "http://unitsofmeasure.org",
          "value": 84.4,
          "unit": "mg/dL",
          "code": "mg/dL"
        },
        "referenceRange": [
          {
            "low": {
              "value": 70,
              "code": "mg/dL",
              "system": "http://unitsofmeasure.org"
            }
          },
          {
            "high": {
              "value": 140,
              "code": "mg/dL",
              "system": "http://unitsofmeasure.org"
            }
          }
        ],
        "text": {
          "status": "generated",
          "div": "<div xmlns=\"http://www.w3.org/1999/xhtml\"><table class=\"hl7__eu__lab__report\"><tr><th>Test</th><th>02-Mar-2023</th><th>Reference&#xA0;Range</th><th>Unit</th></tr><tr><td>Glucose [Mass/volume] in Blood</td><td>84.4</td><td>70 - 140</td><td></td><td>mg/dL</td></tr></table></div>"
        },
        "status": "final",
        "subject": {
          "reference": "urn:uuid:f4ea449b-72af-4ba9-ad00-6ae822447ec2",
          "display": "Vincenza Porzio"
        },
        "effectiveDateTime": "2023-03-02T18:51:27Z",
        "specimen": {
          "reference": "urn:uuid:40b400fb-02d6-43fa-af7f-bfc76fca1ae5"
        }
      }
    },
    {
      "fullUrl": "urn:uuid:b31f21fb-91a9-4017-9e72-0de3118df538",
      "resource": {
        "resourceType": "Observation",
        "id": "b31f21fb-91a9-4017-9e72-0de3118df538",
        "meta": {
          "profile": [
            "http://hl7.eu/fhir/laboratory/StructureDefinition/Observation-resultslab-eu-lab"
          ]
        },
        "performer": [
          {
            "display": "The Central European Lab"
          }
        ],
        "category": [
          {
            "coding": [
              {
                "system": "http://terminology.hl7.org/CodeSystem/observation-category",
                "code": "laboratory"
              }
            ]
          }
        ],
        "code": {
          "coding": [
            {
              "code": "6299-2",
              "system": "http://loinc.org",
              "display": "Urea nitrogen [Mass/volume] in Blood"
            }
          ],
          "text": "Urea nitrogen [Mass/volume] in Blood"
        },
        "valueQuantity": {
          "system": "http://unitsofmeasure.org",
          "value": 12,
          "unit": "mg/dL",
          "code": "mg/dL"
        },
        "referenceRange": [
          {
            "low": {
              "value": 7,
              "code": "mg/dL",
              "system": "http://unitsofmeasure.org"
            }
          },
          {
            "high": {
              "value": 25,
              "code": "mg/dL",
              "system": "http://unitsofmeasure.org"
            }
          }
        ],
        "text": {
          "status": "generated",
          "div": "<div xmlns=\"http://www.w3.org/1999/xhtml\"><table class=\"hl7__eu__lab__report\"><tr><th>Test</th><th>02-Mar-2023</th><th>Reference&#xA0;Range</th><th>Unit</th></tr><tr><td>Urea nitrogen [Mass/volume] in Blood</td><td>12.0</td><td>7 - 25</td><td></td><td>mg/dL</td></tr></table></div>"
        },
        "status": "final",
        "subject": {
          "reference": "urn:uuid:f4ea449b-72af-4ba9-ad00-6ae822447ec2",
          "display": "Vincenza Porzio"
        },
        "effectiveDateTime": "2023-03-02T18:51:27Z",
        "specimen": {
          "reference": "urn:uuid:40b400fb-02d6-43fa-af7f-bfc76fca1ae5"
        }
      }
    },
    {
      "fullUrl": "urn:uuid:00c87fcb-18e1-42df-abff-7ac450cf1b64",
      "resource": {
        "resourceType": "Observation",
        "id": "00c87fcb-18e1-42df-abff-7ac450cf1b64",
        "meta": {
          "profile": [
            "http://hl7.eu/fhir/laboratory/StructureDefinition/Observation-resultslab-eu-lab"
          ]
        },
        "performer": [
          {
            "display": "The Central European Lab"
          }
        ],
        "category": [
          {
            "coding": [
              {
                "system": "http://terminology.hl7.org/CodeSystem/observation-category",
                "code": "laboratory"
              }
            ]
          }
        ],
        "code": {
          "coding": [
            {
              "code": "38483-4",
              "system": "http://loinc.org",
              "display": "Creatinine [Mass/volume] in Blood"
            }
          ],
          "text": "Creatinine [Mass/volume] in Blood"
        },
        "valueQuantity": {
          "system": "http://unitsofmeasure.org",
          "value": 0.7,
          "unit": "mg/dL",
          "code": "mg/dL"
        },
        "referenceRange": [
          {
            "low": {
              "value": 0.6,
              "code": "mg/dL",
              "system": "http://unitsofmeasure.org"
            }
          },
          {
            "high": {
              "value": 1.1,
              "code": "mg/dL",
              "system": "http://unitsofmeasure.org"
            }
          }
        ],
        "text": {
          "status": "generated",
          "div": "<div xmlns=\"http://www.w3.org/1999/xhtml\"><table class=\"hl7__eu__lab__report\"><tr><th>Test</th><th>02-Mar-2023</th><th>Reference&#xA0;Range</th><th>Unit</th></tr><tr><td>Creatinine [Mass/volume] in Blood</td><td>0.7</td><td>0.6 - 1.1</td><td></td><td>mg/dL</td></tr></table></div>"
        },
        "status": "final",
        "subject": {
          "reference": "urn:uuid:f4ea449b-72af-4ba9-ad00-6ae822447ec2",
          "display": "Vincenza Porzio"
        },
        "effectiveDateTime": "2023-03-02T18:51:27Z",
        "specimen": {
          "reference": "urn:uuid:40b400fb-02d6-43fa-af7f-bfc76fca1ae5"
        }
      }
    },
    {
      "fullUrl": "urn:uuid:90a9048a-88e9-44b6-882e-27af13273968",
      "resource": {
        "resourceType": "Observation",
        "id": "90a9048a-88e9-44b6-882e-27af13273968",
        "meta": {
          "profile": [
            "http://hl7.eu/fhir/laboratory/StructureDefinition/Observation-resultslab-eu-lab"
          ]
        },
        "performer": [
          {
            "display": "The Central European Lab"
          }
        ],
        "category": [
          {
            "coding": [
              {
                "system": "http://terminology.hl7.org/CodeSystem/observation-category",
                "code": "laboratory"
              }
            ]
          }
        ],
        "code": {
          "coding": [
            {
              "code": "49765-1",
              "system": "http://loinc.org",
              "display": "Calcium [Mass/volume] in Blood"
            }
          ],
          "text": "Calcium [Mass/volume] in Blood"
        },
        "valueQuantity": {
          "system": "http://unitsofmeasure.org",
          "value": 9.5,
          "unit": "mg/dL",
          "code": "mg/dL"
        },
        "referenceRange": [
          {
            "low": {
              "value": 8.5,
              "code": "mg/dL",
              "system": "http://unitsofmeasure.org"
            }
          },
          {
            "high": {
              "value": 10.4,
              "code": "mg/dL",
              "system": "http://unitsofmeasure.org"
            }
          }
        ],
        "text": {
          "status": "generated",
          "div": "<div xmlns=\"http://www.w3.org/1999/xhtml\"><table class=\"hl7__eu__lab__report\"><tr><th>Test</th><th>02-Mar-2023</th><th>Reference&#xA0;Range</th><th>Unit</th></tr><tr><td>Calcium [Mass/volume] in Blood</td><td>9.5</td><td>8.5 - 10.4</td><td></td><td>mg/dL</td></tr></table></div>"
        },
        "status": "final",
        "subject": {
          "reference": "urn:uuid:f4ea449b-72af-4ba9-ad00-6ae822447ec2",
          "display": "Vincenza Porzio"
        },
        "effectiveDateTime": "2023-03-02T18:51:27Z",
        "specimen": {
          "reference": "urn:uuid:40b400fb-02d6-43fa-af7f-bfc76fca1ae5"
        }
      }
    },
    {
      "fullUrl": "urn:uuid:bece5cb8-2d5f-4cdf-af0a-35d01685c4cb",
      "resource": {
        "resourceType": "Observation",
        "id": "bece5cb8-2d5f-4cdf-af0a-35d01685c4cb",
        "meta": {
          "profile": [
            "http://hl7.eu/fhir/laboratory/StructureDefinition/Observation-resultslab-eu-lab"
          ]
        },
        "performer": [
          {
            "display": "The Central European Lab"
          }
        ],
        "category": [
          {
            "coding": [
              {
                "system": "http://terminology.hl7.org/CodeSystem/observation-category",
                "code": "laboratory"
              }
            ]
          }
        ],
        "code": {
          "coding": [
            {
              "code": "2947-0",
              "system": "http://loinc.org",
              "display": "Sodium [Moles/volume] in Blood"
            }
          ],
          "text": "Sodium [Moles/volume] in Blood"
        },
        "valueQuantity": {
          "system": "http://unitsofmeasure.org",
          "value": 143.3,
          "unit": "mmol/L",
          "code": "mmol/L"
        },
        "referenceRange": [
          {
            "low": {
              "value": 135,
              "code": "mmol/L",
              "system": "http://unitsofmeasure.org"
            }
          },
          {
            "high": {
              "value": 145,
              "code": "mmol/L",
              "system": "http://unitsofmeasure.org"
            }
          }
        ],
        "text": {
          "status": "generated",
          "div": "<div xmlns=\"http://www.w3.org/1999/xhtml\"><table class=\"hl7__eu__lab__report\"><tr><th>Test</th><th>02-Mar-2023</th><th>Reference&#xA0;Range</th><th>Unit</th></tr><tr><td>Sodium [Moles/volume] in Blood</td><td>143.3</td><td>135 - 145</td><td></td><td>mmol/L</td></tr></table></div>"
        },
        "status": "final",
        "subject": {
          "reference": "urn:uuid:f4ea449b-72af-4ba9-ad00-6ae822447ec2",
          "display": "Vincenza Porzio"
        },
        "effectiveDateTime": "2023-03-02T18:51:27Z",
        "specimen": {
          "reference": "urn:uuid:40b400fb-02d6-43fa-af7f-bfc76fca1ae5"
        }
      }
    },
    {
      "fullUrl": "urn:uuid:a1ce6147-ed4e-4ba7-a070-f24e8b3c04bc",
      "resource": {
        "resourceType": "Observation",
        "id": "a1ce6147-ed4e-4ba7-a070-f24e8b3c04bc",
        "meta": {
          "profile": [
            "http://hl7.eu/fhir/laboratory/StructureDefinition/Observation-resultslab-eu-lab"
          ]
        },
        "performer": [
          {
            "display": "The Central European Lab"
          }
        ],
        "category": [
          {
            "coding": [
              {
                "system": "http://terminology.hl7.org/CodeSystem/observation-category",
                "code": "laboratory"
              }
            ]
          }
        ],
        "code": {
          "coding": [
            {
              "code": "6298-4",
              "system": "http://loinc.org",
              "display": "Potassium [Moles/volume] in Blood"
            }
          ],
          "text": "Potassium [Moles/volume] in Blood"
        },
        "valueQuantity": {
          "system": "http://unitsofmeasure.org",
          "value": 4.2,
          "unit": "mmol/L",
          "code": "mmol/L"
        },
        "referenceRange": [
          {
            "low": {
              "value": 3.5,
              "code": "mmol/L",
              "system": "http://unitsofmeasure.org"
            }
          },
          {
            "high": {
              "value": 5.1,
              "code": "mmol/L",
              "system": "http://unitsofmeasure.org"
            }
          }
        ],
        "text": {
          "status": "generated",
          "div": "<div xmlns=\"http://www.w3.org/1999/xhtml\"><table class=\"hl7__eu__lab__report\"><tr><th>Test</th><th>02-Mar-2023</th><th>Reference&#xA0;Range</th><th>Unit</th></tr><tr><td>Potassium [Moles/volume] in Blood</td><td>4.2</td><td>3.5 - 5.1</td><td></td><td>mmol/L</td></tr></table></div>"
        },
        "status": "final",
        "subject": {
          "reference": "urn:uuid:f4ea449b-72af-4ba9-ad00-6ae822447ec2",
          "display": "Vincenza Porzio"
        },
        "effectiveDateTime": "2023-03-02T18:51:27Z",
        "specimen": {
          "reference": "urn:uuid:40b400fb-02d6-43fa-af7f-bfc76fca1ae5"
        }
      }
    },
    {
      "fullUrl": "urn:uuid:4453200c-c138-4eb5-8fb1-91832915530f",
      "resource": {
        "resourceType": "Observation",
        "id": "4453200c-c138-4eb5-8fb1-91832915530f",
        "meta": {
          "profile": [
            "http://hl7.eu/fhir/laboratory/StructureDefinition/Observation-resultslab-eu-lab"
          ]
        },
        "performer": [
          {
            "display": "The Central European Lab"
          }
        ],
        "category": [
          {
            "coding": [
              {
                "system": "http://terminology.hl7.org/CodeSystem/observation-category",
                "code": "laboratory"
              }
            ]
          }
        ],
        "code": {
          "coding": [
            {
              "code": "2069-3",
              "system": "http://loinc.org",
              "display": "Chloride [Moles/volume] in Blood"
            }
          ],
          "text": "Chloride [Moles/volume] in Blood"
        },
        "valueQuantity": {
          "system": "http://unitsofmeasure.org",
          "value": 102.7,
          "unit": "mmol/L",
          "code": "mmol/L"
        },
        "referenceRange": [
          {
            "low": {
              "value": 98,
              "code": "mmol/L",
              "system": "http://unitsofmeasure.org"
            }
          },
          {
            "high": {
              "value": 108,
              "code": "mmol/L",
              "system": "http://unitsofmeasure.org"
            }
          }
        ],
        "text": {
          "status": "generated",
          "div": "<div xmlns=\"http://www.w3.org/1999/xhtml\"><table class=\"hl7__eu__lab__report\"><tr><th>Test</th><th>02-Mar-2023</th><th>Reference&#xA0;Range</th><th>Unit</th></tr><tr><td>Chloride [Moles/volume] in Blood</td><td>102.7</td><td>98 - 108</td><td></td><td>mmol/L</td></tr></table></div>"
        },
        "status": "final",
        "subject": {
          "reference": "urn:uuid:f4ea449b-72af-4ba9-ad00-6ae822447ec2",
          "display": "Vincenza Porzio"
        },
        "effectiveDateTime": "2023-03-02T18:51:27Z",
        "specimen": {
          "reference": "urn:uuid:40b400fb-02d6-43fa-af7f-bfc76fca1ae5"
        }
      }
    },
    {
      "fullUrl": "urn:uuid:34b5297f-19cc-466e-b6ce-850f4611401f",
      "resource": {
        "resourceType": "Observation",
        "id": "34b5297f-19cc-466e-b6ce-850f4611401f",
        "meta": {
          "profile": [
            "http://hl7.eu/fhir/laboratory/StructureDefinition/Observation-resultslab-eu-lab"
          ]
        },
        "performer": [
          {
            "display": "The Central European Lab"
          }
        ],
        "category": [
          {
            "coding": [
              {
                "system": "http://terminology.hl7.org/CodeSystem/observation-category",
                "code": "laboratory"
              }
            ]
          }
        ],
        "code": {
          "coding": [
            {
              "code": "20565-8",
              "system": "http://loinc.org",
              "display": "Carbon dioxide, total [Moles/volume] in Blood"
            }
          ],
          "text": "Carbon dioxide, total [Moles/volume] in Blood"
        },
        "valueQuantity": {
          "system": "http://unitsofmeasure.org",
          "value": 25.4,
          "unit": "mmol/L",
          "code": "mmol/L"
        },
        "referenceRange": [
          {
            "low": {
              "value": 22,
              "code": "mmol/L",
              "system": "http://unitsofmeasure.org"
            }
          },
          {
            "high": {
              "value": 29,
              "code": "mmol/L",
              "system": "http://unitsofmeasure.org"
            }
          }
        ],
        "text": {
          "status": "generated",
          "div": "<div xmlns=\"http://www.w3.org/1999/xhtml\"><table class=\"hl7__eu__lab__report\"><tr><th>Test</th><th>02-Mar-2023</th><th>Reference&#xA0;Range</th><th>Unit</th></tr><tr><td>Carbon dioxide, total [Moles/volume] in Blood</td><td>25.4</td><td>22 - 29</td><td></td><td>mmol/L</td></tr></table></div>"
        },
        "status": "final",
        "subject": {
          "reference": "urn:uuid:f4ea449b-72af-4ba9-ad00-6ae822447ec2",
          "display": "Vincenza Porzio"
        },
        "effectiveDateTime": "2023-03-02T18:51:27Z",
        "specimen": {
          "reference": "urn:uuid:40b400fb-02d6-43fa-af7f-bfc76fca1ae5"
        }
      }
    },
    {
      "fullUrl": "urn:uuid:822fa847-b69a-4677-9414-0387cb80770c",
      "resource": {
        "resourceType": "Observation",
        "id": "822fa847-b69a-4677-9414-0387cb80770c",
        "meta": {
          "profile": [
            "http://hl7.eu/fhir/laboratory/StructureDefinition/Observation-resultslab-eu-lab"
          ]
        },
        "performer": [
          {
            "display": "The Central European Lab"
          }
        ],
        "category": [
          {
            "coding": [
              {
                "system": "http://terminology.hl7.org/CodeSystem/observation-category",
                "code": "laboratory"
              }
            ]
          }
        ],
        "code": {
          "coding": [
            {
              "code": "2093-3",
              "system": "http://loinc.org",
              "display": "Cholesterol [Mass/volume] in Serum or Plasma"
            }
          ],
          "text": "Cholesterol [Mass/volume] in Serum or Plasma"
        },
        "valueQuantity": {
          "system": "http://unitsofmeasure.org",
          "value": 176.8,
          "unit": "mg/dL",
          "code": "mg/dL"
        },
        "referenceRange": [
          {
            "low": {
              "value": 125,
              "code": "mg/dL",
              "system": "http://unitsofmeasure.org"
            }
          },
          {
            "high": {
              "value": 200,
              "code": "mg/dL",
              "system": "http://unitsofmeasure.org"
            }
          }
        ],
        "text": {
          "status": "generated",
          "div": "<div xmlns=\"http://www.w3.org/1999/xhtml\"><table class=\"hl7__eu__lab__report\"><tr><th>Test</th><th>02-Mar-2023</th><th>Reference&#xA0;Range</th><th>Unit</th></tr><tr><td>Cholesterol [Mass/volume] in Serum or Plasma</td><td>176.8</td><td>125 - 200</td><td></td><td>mg/dL</td></tr></table></div>"
        },
        "status": "final",
        "subject": {
          "reference": "urn:uuid:f4ea449b-72af-4ba9-ad00-6ae822447ec2",
          "display": "Vincenza Porzio"
        },
        "effectiveDateTime": "2023-03-02T18:51:27Z",
        "specimen": {
          "reference": "urn:uuid:ccef52bc-75c6-434f-b59e-d58c5cdc7ebc"
        }
      }
    },
    {
      "fullUrl": "urn:uuid:c3a9ce2b-a5a3-4a54-b584-cfc91c75b2ba",
      "resource": {
        "resourceType": "Observation",
        "id": "c3a9ce2b-a5a3-4a54-b584-cfc91c75b2ba",
        "meta": {
          "profile": [
            "http://hl7.eu/fhir/laboratory/StructureDefinition/Observation-resultslab-eu-lab"
          ]
        },
        "performer": [
          {
            "display": "The Central European Lab"
          }
        ],
        "category": [
          {
            "coding": [
              {
                "system": "http://terminology.hl7.org/CodeSystem/observation-category",
                "code": "laboratory"
              }
            ]
          }
        ],
        "code": {
          "coding": [
            {
              "code": "2571-8",
              "system": "http://loinc.org",
              "display": "Triglyceride [Mass/volume] in Serum or Plasma"
            }
          ],
          "text": "Triglyceride [Mass/volume] in Serum or Plasma"
        },
        "valueQuantity": {
          "system": "http://unitsofmeasure.org",
          "value": 128.6,
          "unit": "mg/dL",
          "code": "mg/dL"
        },
        "referenceRange": [
          {
            "low": {
              "value": 35,
              "code": "mg/dL",
              "system": "http://unitsofmeasure.org"
            }
          },
          {
            "high": {
              "value": 150,
              "code": "mg/dL",
              "system": "http://unitsofmeasure.org"
            }
          }
        ],
        "text": {
          "status": "generated",
          "div": "<div xmlns=\"http://www.w3.org/1999/xhtml\"><table class=\"hl7__eu__lab__report\"><tr><th>Test</th><th>02-Mar-2023</th><th>Reference&#xA0;Range</th><th>Unit</th></tr><tr><td>Triglyceride [Mass/volume] in Serum or Plasma</td><td>128.6</td><td>35 - 150</td><td></td><td>mg/dL</td></tr></table></div>"
        },
        "status": "final",
        "subject": {
          "reference": "urn:uuid:f4ea449b-72af-4ba9-ad00-6ae822447ec2",
          "display": "Vincenza Porzio"
        },
        "effectiveDateTime": "2023-03-02T18:51:27Z",
        "specimen": {
          "reference": "urn:uuid:ccef52bc-75c6-434f-b59e-d58c5cdc7ebc"
        }
      }
    },
    {
      "fullUrl": "urn:uuid:1941b9c4-a760-4298-a706-76e62b26485a",
      "resource": {
        "resourceType": "Observation",
        "id": "1941b9c4-a760-4298-a706-76e62b26485a",
        "meta": {
          "profile": [
            "http://hl7.eu/fhir/laboratory/StructureDefinition/Observation-resultslab-eu-lab"
          ]
        },
        "performer": [
          {
            "display": "The Central European Lab"
          }
        ],
        "category": [
          {
            "coding": [
              {
                "system": "http://terminology.hl7.org/CodeSystem/observation-category",
                "code": "laboratory"
              }
            ]
          }
        ],
        "code": {
          "coding": [
            {
              "code": "18262-6",
              "system": "http://loinc.org",
              "display": "Cholesterol in LDL [Mass/volume] in Serum or Plasma by Direct assay"
            }
          ],
          "text": "Cholesterol in LDL [Mass/volume] in Serum or Plasma by Direct assay"
        },
        "valueQuantity": {
          "system": "http://unitsofmeasure.org",
          "value": 98.5,
          "unit": "mg/dL",
          "code": "mg/dL"
        },
        "referenceRange": [
          {
            "low": {
              "value": 0,
              "code": "mg/dL",
              "system": "http://unitsofmeasure.org"
            }
          },
          {
            "high": {
              "value": 130,
              "code": "mg/dL",
              "system": "http://unitsofmeasure.org"
            }
          }
        ],
        "text": {
          "status": "generated",
          "div": "<div xmlns=\"http://www.w3.org/1999/xhtml\"><table class=\"hl7__eu__lab__report\"><tr><th>Test</th><th>02-Mar-2023</th><th>Reference&#xA0;Range</th><th>Unit</th></tr><tr><td>Cholesterol in LDL [Mass/volume] in Serum or Plasma by Direct assay</td><td>98.5</td><td>0 - 130</td><td></td><td>mg/dL</td></tr></table></div>"
        },
        "status": "final",
        "subject": {
          "reference": "urn:uuid:f4ea449b-72af-4ba9-ad00-6ae822447ec2",
          "display": "Vincenza Porzio"
        },
        "effectiveDateTime": "2023-03-02T18:51:27Z",
        "specimen": {
          "reference": "urn:uuid:ccef52bc-75c6-434f-b59e-d58c5cdc7ebc"
        }
      }
    },
    {
      "fullUrl": "urn:uuid:5ac1c9c2-a9a4-480b-98c6-93055beeffa6",
      "resource": {
        "resourceType": "Observation",
        "id": "5ac1c9c2-a9a4-480b-98c6-93055beeffa6",
        "meta": {
          "profile": [
            "http://hl7.eu/fhir/laboratory/StructureDefinition/Observation-resultslab-eu-lab"
          ]
        },
        "performer": [
          {
            "display": "The Central European Lab"
          }
        ],
        "category": [
          {
            "coding": [
              {
                "system": "http://terminology.hl7.org/CodeSystem/observation-category",
                "code": "laboratory"
              }
            ]
          }
        ],
        "code": {
          "coding": [
            {
              "code": "2085-9",
              "system": "http://loinc.org",
              "display": "Cholesterol in HDL [Mass/volume] in Serum or Plasma"
            }
          ],
          "text": "Cholesterol in HDL [Mass/volume] in Serum or Plasma"
        },
        "valueQuantity": {
          "system": "http://unitsofmeasure.org",
          "value": 52.6,
          "unit": "mg/dL",
          "code": "mg/dL"
        },
        "referenceRange": [
          {
            "low": {
              "value": 50,
              "code": "mg/dL",
              "system": "http://unitsofmeasure.org"
            }
          },
          {
            "high": {
              "value": 100,
              "code": "mg/dL",
              "system": "http://unitsofmeasure.org"
            }
          }
        ],
        "text": {
          "status": "generated",
          "div": "<div xmlns=\"http://www.w3.org/1999/xhtml\"><table class=\"hl7__eu__lab__report\"><tr><th>Test</th><th>02-Mar-2023</th><th>Reference&#xA0;Range</th><th>Unit</th></tr><tr><td>Cholesterol in HDL [Mass/volume] in Serum or Plasma</td><td>52.6</td><td>50 - 100</td><td></td><td>mg/dL</td></tr></table></div>"
        },
        "status": "final",
        "subject": {
          "reference": "urn:uuid:f4ea449b-72af-4ba9-ad00-6ae822447ec2",
          "display": "Vincenza Porzio"
        },
        "effectiveDateTime": "2023-03-02T18:51:27Z",
        "specimen": {
          "reference": "urn:uuid:ccef52bc-75c6-434f-b59e-d58c5cdc7ebc"
        }
      }
    },
    {
      "fullUrl": "urn:uuid:e4e31e0d-2a7c-412b-b63d-2b61897509ea",
      "resource": {
        "resourceType": "Device",
        "id": "e4e31e0d-2a7c-412b-b63d-2b61897509ea",
        "deviceName": [
          {
            "name": "SYNDERAI Synthetic Generator",
            "type": "manufacturer-name"
          }
        ],
        "version": [
          {
            "value": "5.0"
          }
        ],
        "text": {
          "status": "generated",
          "div": "<div xmlns=\"http://www.w3.org/1999/xhtml\">SYNDERAI Synthetic Generator v5.0</div>"
        },
        "status": "active\"",
        "distinctIdentifier": "synderai-generator-50",
        "manufacturer": "SYNDERAI Project"
      }
    },
    {
      "fullUrl": "urn:uuid:40b7dc60-7a08-4e13-963f-94851b971fc6",
      "resource": {
        "resourceType": "Provenance",
        "id": "40b7dc60-7a08-4e13-963f-94851b971fc6",
        "target": [
          {
            "reference": "Patient/f4ea449b-72af-4ba9-ad00-6ae822447ec2"
          },
          {
            "reference": "Bundle/c1031434-e702-4f67-883d-b78f7fa9a835"
          },
          {
            "reference": "Composition/c5434b5e-3902-4ec8-a399-930ae27db03e"
          },
          {
            "reference": "PractitionerRole/1ac5948d-762d-4286-809d-52d1f4559bb2"
          },
          {
            "reference": "Practitioner/b4b350e5-84d3-4ea9-b758-05f037e2bc76"
          },
          {
            "reference": "PractitionerRole/4f27aeaa-8264-4e06-85f1-a5847d98c8f0"
          },
          {
            "reference": "Organization/2c614121-48e2-433a-91b5-4e893a33e442"
          }
        ],
        "activity": {
          "text": "Synthetic Example Data Generation"
        },
        "policy": [
          "https://synderai.net/synderai-synthetic-data-policy"
        ],
        "agent": [
          {
            "type": {
              "text": "author"
            },
            "who": {
              "reference": "Device/e4e31e0d-2a7c-412b-b63d-2b61897509ea"
            }
          }
        ],
        "reason": [
          {
            "text": "Interoperability Testing and Training (non-clinical use)"
          }
        ],
        "text": {
          "status": "generated",
          "div": "<div xmlns=\"http://www.w3.org/1999/xhtml\">Provenance for SYNDERAI Synthetic Example Data Resource</div>"
        },
        "recorded": "2023-03-02T19:51:27Z"
      }
    },
    {
      "fullUrl": "urn:uuid:1ac5948d-762d-4286-809d-52d1f4559bb2",
      "resource": {
        "resourceType": "PractitionerRole",
        "id": "1ac5948d-762d-4286-809d-52d1f4559bb2",
        "meta": {
          "profile": [
            "http://hl7.eu/fhir/base/StructureDefinition/practitionerRole-eu"
          ]
        },
        "text": {
          "status": "generated",
          "div": "<div xmlns=\"http://www.w3.org/1999/xhtml\">Laboratory Role Id: 1ac5948d-762d-4286-809d-52d1f4559bb2</div>"
        },
        "practitioner": {
          "reference": "urn:uuid:b4b350e5-84d3-4ea9-b758-05f037e2bc76"
        }
      }
    },
    {
      "fullUrl": "urn:uuid:b4b350e5-84d3-4ea9-b758-05f037e2bc76",
      "resource": {
        "resourceType": "Practitioner",
        "id": "b4b350e5-84d3-4ea9-b758-05f037e2bc76",
        "meta": {
          "profile": [
            "http://hl7.eu/fhir/base/StructureDefinition/practitioner-eu"
          ]
        },
        "identifier": [
          {
            "assigner": {
              "display": "HL7 Europe"
            },
            "system": "urn:oid:2.16.840.1.113883.2.51.999",
            "value": "b607b389-88ff-4076-9551-b37e5ff7281b"
          }
        ],
        "name": [
          {
            "prefix": [
              "dr"
            ],
            "given": [
              "Ex"
            ],
            "family": "Ample"
          }
        ],
        "address": [
          {
            "line": [
              "Laboratoire Central Europenne",
              "Boulevard du Jardin Botanique 32"
            ],
            "postalCode": "1000",
            "city": "Brussels",
            "country": "Belgium"
          }
        ],
        "text": {
          "status": "generated",
          "div": "<div xmlns=\"http://www.w3.org/1999/xhtml\">Laboratory: Laboratoire Central Europenne, 1000 Brussels, Belgium</div>"
        }
      }
    }
  ],
  "type": "document",
  "timestamp": "2023-03-02T19:51:27Z"
}
