{
  "resourceType": "Bundle",
  "id": "0237eed0-53a8-40e1-9a59-8c1c7a2107cd",
  "meta": {
    "profile": [
      "http://hl7.eu/fhir/laboratory/StructureDefinition/Bundle-eu-lab"
    ]
  },
  "identifier": {
    "assigner": {
      "display": "HL7 Europe"
    },
    "system": "urn:oid:2.16.840.1.113883.2.51.999",
    "value": "10adb463-5a20-4676-b8a6-b810f248eca2"
  },
  "entry": [
    {
      "fullUrl": "urn:uuid:1315307e-97d5-49a4-8e1f-c3cb578508e2",
      "resource": {
        "resourceType": "Composition",
        "id": "1315307e-97d5-49a4-8e1f-c3cb578508e2",
        "meta": {
          "profile": [
            "http://hl7.eu/fhir/laboratory/StructureDefinition/Composition-eu-lab"
          ]
        },
        "identifier": {
          "assigner": {
            "display": "HL7 Europe"
          },
          "system": "urn:oid:2.16.840.1.113883.2.51.999",
          "value": "b5262a41-6f84-4246-8e23-1498aeef8cb6"
        },
        "author": [
          {
            "reference": "urn:uuid:052269f4-6421-4f67-8fc7-e8acbb0f0fc2"
          }
        ],
        "category": [
          {
            "coding": [
              {
                "code": "26436-6",
                "system": "http://loinc.org",
                "display": "Laboratory studies (set)"
              }
            ]
          }
        ],
        "type": {
          "coding": [
            {
              "code": "11502-2",
              "system": "http://loinc.org",
              "display": "Laboratory report"
            }
          ],
          "text": "Laboratory Report"
        },
        "section": [
          {
            "code": {
              "coding": [
                {
                  "code": "26436-6",
                  "system": "http://loinc.org",
                  "display": "Laboratory studies (set)"
                }
              ],
              "text": "Laboratory studies"
            },
            "section": [
              {
                "code": {
                  "coding": [
                    {
                      "code": "$18719-5",
                      "system": "http://loinc.org",
                      "display": "Chemistry studies (set)"
                    }
                  ],
                  "text": "Chemistry"
                },
                "entry": [
                  {
                    "reference": "urn:uuid:f2c3a2c7-eced-4605-bfae-51503d87e6a8"
                  },
                  {
                    "reference": "urn:uuid:d9758d0b-f409-4fd0-8a20-8c539cda04a4"
                  },
                  {
                    "reference": "urn:uuid:5142912d-017c-474d-925d-30e2bee9b2ec"
                  },
                  {
                    "reference": "urn:uuid:55a09d19-ad45-4320-8e3f-87c4f8a6f0ff"
                  },
                  {
                    "reference": "urn:uuid:fb5df26d-eb3e-4231-a92c-04af0aaeb6a6"
                  },
                  {
                    "reference": "urn:uuid:e35d0ea3-01b8-4c1c-a07d-d0562fe90e33"
                  },
                  {
                    "reference": "urn:uuid:3a62016b-bac2-4160-92ce-a0d39ac1e3e4"
                  },
                  {
                    "reference": "urn:uuid:7a876993-98b8-4306-a7ff-75cb40da134b"
                  },
                  {
                    "reference": "urn:uuid:d3be580c-386b-4303-9efc-d91b43fbd6d3"
                  }
                ],
                "text": {
                  "status": "generated",
                  "div": "<div xmlns=\"http://www.w3.org/1999/xhtml\"><h3>Chemistry</h3><table class=\"hl7__eu__lab__report\"><thead><tr><th>Test</th><th>06-APR-2020</th><th>Reference&#xA0;Range</th><th>Unit</th></tr></thead><tbody><tr><td>Hemoglobin A1c/Hemoglobin.total in Blood</td><td><strong>6.1 H</strong></td><td>4 - 6</td><td>%</td></tr><tr><td>Glucose [Mass/volume] in Blood</td><td>84.4</td><td>70 - 140</td><td>mg/dL</td></tr><tr><td>Urea nitrogen [Mass/volume] in Blood</td><td>13.9</td><td>7 - 20</td><td>mg/dL</td></tr><tr><td>Creatinine [Mass/volume] in Blood</td><td>0.9</td><td>0.9 - 1.3</td><td>mg/dL</td></tr><tr><td>Calcium [Mass/volume] in Blood</td><td>9.1</td><td>8.5 - 10.5</td><td>mg/dL</td></tr><tr><td>Sodium [Moles/volume] in Blood</td><td>137.5</td><td>135 - 145</td><td>mmol/L</td></tr><tr><td>Potassium [Moles/volume] in Blood</td><td>4.4</td><td>3.5 - 5</td><td>mmol/L</td></tr><tr><td>Chloride [Moles/volume] in Blood</td><td>103.2</td><td>98 - 110</td><td>mmol/L</td></tr><tr><td>Carbon dioxide, total [Moles/volume] in Blood</td><td>24.9</td><td>22 - 32</td><td>mmol/L</td></tr></tbody></table></div>"
                },
                "title": "Chemistry"
              }
            ],
            "title": "Laboratory Report"
          },
          {
            "text": {
              "status": "generated",
              "div": "<div xmlns=\"http://www.w3.org/1999/xhtml\"><h3>Annotation</h3><table class=\"hl7__eu__lab__report\"><tr><th>Conclusion and Recommendations based on this report and previous findings known to us</th></tr><tr><td>All measured parameters are within normal limits except for a mildly elevated HbA1c (6.1%), indicating impaired glucose metabolism or prediabetes. Renal function, electrolytes, and glucose are normal. Recommend clinical follow-up for glycemic control and possible lifestyle modification.</td></tr></table></div>"
            },
            "code": {
              "coding": [
                {
                  "system": "http://loinc.org",
                  "code": "48767-8",
                  "display": "Annotation comment"
                }
              ]
            },
            "title": "Annotation comment"
          }
        ],
        "status": "final",
        "subject": {
          "reference": "urn:uuid:6c164b11-cc77-4e71-b1af-91632777003c",
          "display": "Alessio Fanucci"
        },
        "date": "2020-04-06T09:49:06Z",
        "title": "Laboratory Report",
        "confidentiality": "N"
      }
    },
    {
      "fullUrl": "urn:uuid:f4aab15b-5773-4a6d-965a-d8044a05e7ae",
      "resource": {
        "resourceType": "DiagnosticReport",
        "id": "f4aab15b-5773-4a6d-965a-d8044a05e7ae",
        "meta": {
          "profile": [
            "http://hl7.eu/fhir/laboratory/StructureDefinition/DiagnosticReport-eu-lab"
          ]
        },
        "identifier": [
          {
            "assigner": {
              "display": "HL7 Europe"
            },
            "system": "urn:oid:2.16.840.1.113883.2.51.999",
            "value": "877ea263-4b3c-465a-969a-be4d6c8bedec"
          }
        ],
        "extension": [
          {
            "url": "http://hl7.org/fhir/5.0/StructureDefinition/extension-DiagnosticReport.composition",
            "valueReference": {
              "reference": "urn:uuid:b5262a41-6f84-4246-8e23-1498aeef8cb6"
            }
          }
        ],
        "category": [
          {
            "coding": [
              {
                "code": "26436-6",
                "system": "http://loinc.org",
                "display": "Laboratory studies (set)"
              }
            ]
          }
        ],
        "specimen": [
          {
            "reference": "urn:uuid:f971e640-63ce-46f1-81e0-3d292aff7308"
          }
        ],
        "result": [
          {
            "reference": "urn:uuid:f2c3a2c7-eced-4605-bfae-51503d87e6a8"
          },
          {
            "reference": "urn:uuid:d9758d0b-f409-4fd0-8a20-8c539cda04a4"
          },
          {
            "reference": "urn:uuid:5142912d-017c-474d-925d-30e2bee9b2ec"
          },
          {
            "reference": "urn:uuid:55a09d19-ad45-4320-8e3f-87c4f8a6f0ff"
          },
          {
            "reference": "urn:uuid:fb5df26d-eb3e-4231-a92c-04af0aaeb6a6"
          },
          {
            "reference": "urn:uuid:e35d0ea3-01b8-4c1c-a07d-d0562fe90e33"
          },
          {
            "reference": "urn:uuid:3a62016b-bac2-4160-92ce-a0d39ac1e3e4"
          },
          {
            "reference": "urn:uuid:7a876993-98b8-4306-a7ff-75cb40da134b"
          },
          {
            "reference": "urn:uuid:d3be580c-386b-4303-9efc-d91b43fbd6d3"
          }
        ],
        "status": "registered",
        "code": {
          "coding": [
            {
              "code": "11502-2",
              "system": "http://loinc.org",
              "display": "Laboratory report"
            }
          ]
        },
        "subject": {
          "reference": "urn:uuid:6c164b11-cc77-4e71-b1af-91632777003c",
          "display": "Alessio Fanucci"
        }
      }
    },
    {
      "fullUrl": "urn:uuid:6c164b11-cc77-4e71-b1af-91632777003c",
      "resource": {
        "resourceType": "Patient",
        "id": "6c164b11-cc77-4e71-b1af-91632777003c",
        "meta": {
          "security": [
            {
              "system": "http://terminology.hl7.org/CodeSystem/v3-ActReason",
              "code": "HTEST"
            },
            {
              "system": "http://terminology.hl7.org/CodeSystem/v3-ActReason",
              "code": "TRAIN"
            }
          ],
          "tag": [
            {
              "system": "https://synderai.net/fhir/CodeSystem/tags",
              "code": "synthetic",
              "display": "SYNDERAI Synthetic data"
            }
          ],
          "profile": [
            "http://hl7.eu/fhir/base/StructureDefinition/patient-eu-core"
          ]
        },
        "identifier": [
          {
            "type": {
              "coding": [
                {
                  "code": "PT",
                  "system": "http://terminology.hl7.org/CodeSystem/v2-0203"
                }
              ]
            },
            "system": "http://ec.europa.eu/identifier/eci",
            "value": "4754-874768-3"
          },
          {
            "type": {
              "coding": [
                {
                  "code": "MR",
                  "system": "http://terminology.hl7.org/CodeSystem/v2-0203"
                }
              ]
            },
            "system": "http://local.setting.eu/identifier",
            "value": "4b888823-bdd8-59a3-b785-e7ba28e6a7b5"
          }
        ],
        "name": [
          {
            "family": "Fanucci"
          },
          {
            "given": [
              "Alessio"
            ]
          },
          {
            "text": "Alessio Fanucci"
          }
        ],
        "address": [
          {
            "line": [
              "Incrocio Combi, 822"
            ],
            "use": "home",
            "type": "physical",
            "postalCode": "33015",
            "city": "Moggio Udinese",
            "country": "Italy"
          }
        ],
        "telecom": [
          {
            "system": "phone",
            "value": "0125684636"
          }
        ],
        "extension": [
          {
            "url": "http://hl7.org/fhir/StructureDefinition/patient-nationality",
            "valueCodeableConcept": {
              "coding": [
                {
                  "code": "IT",
                  "system": "http://hl7.org/fhir/ValueSet/country"
                }
              ]
            }
          }
        ],
        "text": {
          "status": "generated",
          "div": "<div xmlns=\"http://www.w3.org/1999/xhtml\"><table class=\"hl7__ips\"><tr><td>Alessio Fanucci</td><td>male</td><td>12-Sep-1964</td></tr></table></div>"
        },
        "gender": "male",
        "birthDate": "1964-09-12"
      }
    },
    {
      "fullUrl": "urn:uuid:843dfcc4-2d92-4d31-bb25-9016dc1a2159",
      "resource": {
        "resourceType": "ServiceRequest",
        "id": "843dfcc4-2d92-4d31-bb25-9016dc1a2159",
        "meta": {
          "profile": [
            "http://hl7.eu/fhir/laboratory/StructureDefinition/ServiceRequest-eu-lab"
          ]
        },
        "identifier": [
          {
            "system": "http://example.org",
            "value": "1870229e-372e-47bd-9c5f-3f85741d5935"
          }
        ],
        "specimen": [
          {
            "reference": "urn:uuid:f971e640-63ce-46f1-81e0-3d292aff7308"
          }
        ],
        "reasonCode": [
          {
            "coding": [
              {
                "code": "15777000",
                "system": "http://snomed.info/sct",
                "display": "Prediabetes"
              }
            ]
          },
          {
            "coding": [
              {
                "code": "271737000",
                "system": "http://snomed.info/sct",
                "display": "Anemia"
              }
            ]
          },
          {
            "coding": [
              {
                "code": "40055000",
                "system": "http://snomed.info/sct",
                "display": "Chronic sinusitis"
              }
            ]
          }
        ],
        "status": "active",
        "intent": "order",
        "code": {
          "coding": [
            {
              "code": "108252007",
              "system": "http://snomed.info/sct",
              "display": "Laboratory procedure"
            }
          ]
        },
        "subject": {
          "reference": "urn:uuid:6c164b11-cc77-4e71-b1af-91632777003c",
          "display": "Alessio Fanucci"
        },
        "requester": {
          "reference": "urn:uuid:b666a506-6aad-42e9-b612-7f68c7e3eb1a"
        }
      }
    },
    {
      "fullUrl": "urn:uuid:b666a506-6aad-42e9-b612-7f68c7e3eb1a",
      "resource": {
        "resourceType": "PractitionerRole",
        "id": "b666a506-6aad-42e9-b612-7f68c7e3eb1a",
        "meta": {
          "profile": [
            "http://hl7.eu/fhir/base/StructureDefinition/practitionerRole-eu"
          ]
        },
        "text": {
          "status": "generated",
          "div": "<div xmlns=\"http://www.w3.org/1999/xhtml\">Provider Role Id: b666a506-6aad-42e9-b612-7f68c7e3eb1a</div>"
        },
        "organization": {
          "reference": "urn:uuid:1978d119-a39f-4d03-9ad6-5e65788ec70e"
        }
      }
    },
    {
      "fullUrl": "urn:uuid:1978d119-a39f-4d03-9ad6-5e65788ec70e",
      "resource": {
        "resourceType": "Organization",
        "id": "1978d119-a39f-4d03-9ad6-5e65788ec70e",
        "meta": {
          "profile": [
            "http://hl7.eu/fhir/base/StructureDefinition/organization-eu"
          ]
        },
        "identifier": [
          {
            "assigner": {
              "display": "HL7 Europe"
            },
            "system": "urn:oid:2.16.840.1.113883.2.51.999",
            "value": "7b238ffb-76ef-42c6-b2da-47634f4fbac9"
          }
        ],
        "address": [
          {
            "city": "Artegna",
            "postalCode": "33011",
            "country": "Italy"
          }
        ],
        "text": {
          "status": "generated",
          "div": "<div xmlns=\"http://www.w3.org/1999/xhtml\">Provider Organization: Ambulatori</div>"
        },
        "name": "Ambulatori"
      }
    },
    {
      "fullUrl": "urn:uuid:f971e640-63ce-46f1-81e0-3d292aff7308",
      "resource": {
        "resourceType": "Specimen",
        "id": "f971e640-63ce-46f1-81e0-3d292aff7308",
        "meta": {
          "profile": [
            "http://hl7.eu/fhir/laboratory/StructureDefinition/Specimen-eu-lab"
          ]
        },
        "collection": {
          "collectedDateTime": "2020-04-06"
        },
        "text": {
          "status": "generated",
          "div": "<div xmlns=\"http://www.w3.org/1999/xhtml\"><table class=\"hl7__eu__lab__report\"><tr><th>Specimen</th><th>Collection Date</th></tr><tr><td>Whole blood specimen (specimen)</td><td><span class=\"nb\">06-Apr-2020</span></td></tr></table></div>"
        },
        "type": {
          "coding": [
            {
              "code": "258580003",
              "system": "http://snomed.info/sct",
              "display": "Whole blood specimen (specimen)"
            }
          ]
        }
      }
    },
    {
      "fullUrl": "urn:uuid:f2c3a2c7-eced-4605-bfae-51503d87e6a8",
      "resource": {
        "resourceType": "Observation",
        "id": "f2c3a2c7-eced-4605-bfae-51503d87e6a8",
        "meta": {
          "profile": [
            "http://hl7.eu/fhir/laboratory/StructureDefinition/Observation-resultslab-eu-lab"
          ]
        },
        "performer": [
          {
            "display": "The Central European Lab"
          }
        ],
        "category": [
          {
            "coding": [
              {
                "system": "http://terminology.hl7.org/CodeSystem/observation-category",
                "code": "laboratory"
              }
            ]
          }
        ],
        "code": {
          "coding": [
            {
              "code": "4548-4",
              "system": "http://loinc.org",
              "display": "Hemoglobin A1c/Hemoglobin.total in Blood"
            }
          ],
          "text": "Hemoglobin A1c/Hemoglobin.total in Blood"
        },
        "valueQuantity": {
          "system": "http://unitsofmeasure.org",
          "value": 6.1,
          "unit": "%",
          "code": "%"
        },
        "referenceRange": [
          {
            "low": {
              "value": 4,
              "code": "%",
              "system": "http://unitsofmeasure.org"
            }
          },
          {
            "high": {
              "value": 6,
              "code": "%",
              "system": "http://unitsofmeasure.org"
            }
          }
        ],
        "interpretation": [
          {
            "coding": [
              {
                "code": "H",
                "system": "http://terminology.hl7.org/CodeSystem/v3-ObservationInterpretation",
                "display": "High"
              }
            ]
          }
        ],
        "text": {
          "status": "generated",
          "div": "<div xmlns=\"http://www.w3.org/1999/xhtml\"><table class=\"hl7__eu__lab__report\"><tr><th>Test</th><th>06-Apr-2020</th><th>Reference&#xA0;Range</th><th>Unit</th></tr><tr><td>Hemoglobin A1c/Hemoglobin.total in Blood</td><td>6.1</td><td>4 - 6</td><td>H</td><td>%</td></tr></table></div>"
        },
        "status": "final",
        "subject": {
          "reference": "urn:uuid:6c164b11-cc77-4e71-b1af-91632777003c",
          "display": "Alessio Fanucci"
        },
        "effectiveDateTime": "2020-04-06T07:49:06Z",
        "specimen": {
          "reference": "urn:uuid:f971e640-63ce-46f1-81e0-3d292aff7308"
        }
      }
    },
    {
      "fullUrl": "urn:uuid:d9758d0b-f409-4fd0-8a20-8c539cda04a4",
      "resource": {
        "resourceType": "Observation",
        "id": "d9758d0b-f409-4fd0-8a20-8c539cda04a4",
        "meta": {
          "profile": [
            "http://hl7.eu/fhir/laboratory/StructureDefinition/Observation-resultslab-eu-lab"
          ]
        },
        "performer": [
          {
            "display": "The Central European Lab"
          }
        ],
        "category": [
          {
            "coding": [
              {
                "system": "http://terminology.hl7.org/CodeSystem/observation-category",
                "code": "laboratory"
              }
            ]
          }
        ],
        "code": {
          "coding": [
            {
              "code": "2339-0",
              "system": "http://loinc.org",
              "display": "Glucose [Mass/volume] in Blood"
            }
          ],
          "text": "Glucose [Mass/volume] in Blood"
        },
        "valueQuantity": {
          "system": "http://unitsofmeasure.org",
          "value": 84.4,
          "unit": "mg/dL",
          "code": "mg/dL"
        },
        "referenceRange": [
          {
            "low": {
              "value": 70,
              "code": "mg/dL",
              "system": "http://unitsofmeasure.org"
            }
          },
          {
            "high": {
              "value": 140,
              "code": "mg/dL",
              "system": "http://unitsofmeasure.org"
            }
          }
        ],
        "text": {
          "status": "generated",
          "div": "<div xmlns=\"http://www.w3.org/1999/xhtml\"><table class=\"hl7__eu__lab__report\"><tr><th>Test</th><th>06-Apr-2020</th><th>Reference&#xA0;Range</th><th>Unit</th></tr><tr><td>Glucose [Mass/volume] in Blood</td><td>84.4</td><td>70 - 140</td><td></td><td>mg/dL</td></tr></table></div>"
        },
        "status": "final",
        "subject": {
          "reference": "urn:uuid:6c164b11-cc77-4e71-b1af-91632777003c",
          "display": "Alessio Fanucci"
        },
        "effectiveDateTime": "2020-04-06T07:49:06Z",
        "specimen": {
          "reference": "urn:uuid:f971e640-63ce-46f1-81e0-3d292aff7308"
        }
      }
    },
    {
      "fullUrl": "urn:uuid:5142912d-017c-474d-925d-30e2bee9b2ec",
      "resource": {
        "resourceType": "Observation",
        "id": "5142912d-017c-474d-925d-30e2bee9b2ec",
        "meta": {
          "profile": [
            "http://hl7.eu/fhir/laboratory/StructureDefinition/Observation-resultslab-eu-lab"
          ]
        },
        "performer": [
          {
            "display": "The Central European Lab"
          }
        ],
        "category": [
          {
            "coding": [
              {
                "system": "http://terminology.hl7.org/CodeSystem/observation-category",
                "code": "laboratory"
              }
            ]
          }
        ],
        "code": {
          "coding": [
            {
              "code": "6299-2",
              "system": "http://loinc.org",
              "display": "Urea nitrogen [Mass/volume] in Blood"
            }
          ],
          "text": "Urea nitrogen [Mass/volume] in Blood"
        },
        "valueQuantity": {
          "system": "http://unitsofmeasure.org",
          "value": 13.9,
          "unit": "mg/dL",
          "code": "mg/dL"
        },
        "referenceRange": [
          {
            "low": {
              "value": 7,
              "code": "mg/dL",
              "system": "http://unitsofmeasure.org"
            }
          },
          {
            "high": {
              "value": 20,
              "code": "mg/dL",
              "system": "http://unitsofmeasure.org"
            }
          }
        ],
        "text": {
          "status": "generated",
          "div": "<div xmlns=\"http://www.w3.org/1999/xhtml\"><table class=\"hl7__eu__lab__report\"><tr><th>Test</th><th>06-Apr-2020</th><th>Reference&#xA0;Range</th><th>Unit</th></tr><tr><td>Urea nitrogen [Mass/volume] in Blood</td><td>13.9</td><td>7 - 20</td><td></td><td>mg/dL</td></tr></table></div>"
        },
        "status": "final",
        "subject": {
          "reference": "urn:uuid:6c164b11-cc77-4e71-b1af-91632777003c",
          "display": "Alessio Fanucci"
        },
        "effectiveDateTime": "2020-04-06T07:49:06Z",
        "specimen": {
          "reference": "urn:uuid:f971e640-63ce-46f1-81e0-3d292aff7308"
        }
      }
    },
    {
      "fullUrl": "urn:uuid:55a09d19-ad45-4320-8e3f-87c4f8a6f0ff",
      "resource": {
        "resourceType": "Observation",
        "id": "55a09d19-ad45-4320-8e3f-87c4f8a6f0ff",
        "meta": {
          "profile": [
            "http://hl7.eu/fhir/laboratory/StructureDefinition/Observation-resultslab-eu-lab"
          ]
        },
        "performer": [
          {
            "display": "The Central European Lab"
          }
        ],
        "category": [
          {
            "coding": [
              {
                "system": "http://terminology.hl7.org/CodeSystem/observation-category",
                "code": "laboratory"
              }
            ]
          }
        ],
        "code": {
          "coding": [
            {
              "code": "38483-4",
              "system": "http://loinc.org",
              "display": "Creatinine [Mass/volume] in Blood"
            }
          ],
          "text": "Creatinine [Mass/volume] in Blood"
        },
        "valueQuantity": {
          "system": "http://unitsofmeasure.org",
          "value": 0.9,
          "unit": "mg/dL",
          "code": "mg/dL"
        },
        "referenceRange": [
          {
            "low": {
              "value": 0.9,
              "code": "mg/dL",
              "system": "http://unitsofmeasure.org"
            }
          },
          {
            "high": {
              "value": 1.3,
              "code": "mg/dL",
              "system": "http://unitsofmeasure.org"
            }
          }
        ],
        "text": {
          "status": "generated",
          "div": "<div xmlns=\"http://www.w3.org/1999/xhtml\"><table class=\"hl7__eu__lab__report\"><tr><th>Test</th><th>06-Apr-2020</th><th>Reference&#xA0;Range</th><th>Unit</th></tr><tr><td>Creatinine [Mass/volume] in Blood</td><td>0.9</td><td>0.9 - 1.3</td><td></td><td>mg/dL</td></tr></table></div>"
        },
        "status": "final",
        "subject": {
          "reference": "urn:uuid:6c164b11-cc77-4e71-b1af-91632777003c",
          "display": "Alessio Fanucci"
        },
        "effectiveDateTime": "2020-04-06T07:49:06Z",
        "specimen": {
          "reference": "urn:uuid:f971e640-63ce-46f1-81e0-3d292aff7308"
        }
      }
    },
    {
      "fullUrl": "urn:uuid:fb5df26d-eb3e-4231-a92c-04af0aaeb6a6",
      "resource": {
        "resourceType": "Observation",
        "id": "fb5df26d-eb3e-4231-a92c-04af0aaeb6a6",
        "meta": {
          "profile": [
            "http://hl7.eu/fhir/laboratory/StructureDefinition/Observation-resultslab-eu-lab"
          ]
        },
        "performer": [
          {
            "display": "The Central European Lab"
          }
        ],
        "category": [
          {
            "coding": [
              {
                "system": "http://terminology.hl7.org/CodeSystem/observation-category",
                "code": "laboratory"
              }
            ]
          }
        ],
        "code": {
          "coding": [
            {
              "code": "49765-1",
              "system": "http://loinc.org",
              "display": "Calcium [Mass/volume] in Blood"
            }
          ],
          "text": "Calcium [Mass/volume] in Blood"
        },
        "valueQuantity": {
          "system": "http://unitsofmeasure.org",
          "value": 9.1,
          "unit": "mg/dL",
          "code": "mg/dL"
        },
        "referenceRange": [
          {
            "low": {
              "value": 8.5,
              "code": "mg/dL",
              "system": "http://unitsofmeasure.org"
            }
          },
          {
            "high": {
              "value": 10.5,
              "code": "mg/dL",
              "system": "http://unitsofmeasure.org"
            }
          }
        ],
        "text": {
          "status": "generated",
          "div": "<div xmlns=\"http://www.w3.org/1999/xhtml\"><table class=\"hl7__eu__lab__report\"><tr><th>Test</th><th>06-Apr-2020</th><th>Reference&#xA0;Range</th><th>Unit</th></tr><tr><td>Calcium [Mass/volume] in Blood</td><td>9.1</td><td>8.5 - 10.5</td><td></td><td>mg/dL</td></tr></table></div>"
        },
        "status": "final",
        "subject": {
          "reference": "urn:uuid:6c164b11-cc77-4e71-b1af-91632777003c",
          "display": "Alessio Fanucci"
        },
        "effectiveDateTime": "2020-04-06T07:49:06Z",
        "specimen": {
          "reference": "urn:uuid:f971e640-63ce-46f1-81e0-3d292aff7308"
        }
      }
    },
    {
      "fullUrl": "urn:uuid:e35d0ea3-01b8-4c1c-a07d-d0562fe90e33",
      "resource": {
        "resourceType": "Observation",
        "id": "e35d0ea3-01b8-4c1c-a07d-d0562fe90e33",
        "meta": {
          "profile": [
            "http://hl7.eu/fhir/laboratory/StructureDefinition/Observation-resultslab-eu-lab"
          ]
        },
        "performer": [
          {
            "display": "The Central European Lab"
          }
        ],
        "category": [
          {
            "coding": [
              {
                "system": "http://terminology.hl7.org/CodeSystem/observation-category",
                "code": "laboratory"
              }
            ]
          }
        ],
        "code": {
          "coding": [
            {
              "code": "2947-0",
              "system": "http://loinc.org",
              "display": "Sodium [Moles/volume] in Blood"
            }
          ],
          "text": "Sodium [Moles/volume] in Blood"
        },
        "valueQuantity": {
          "system": "http://unitsofmeasure.org",
          "value": 137.5,
          "unit": "mmol/L",
          "code": "mmol/L"
        },
        "referenceRange": [
          {
            "low": {
              "value": 135,
              "code": "mmol/L",
              "system": "http://unitsofmeasure.org"
            }
          },
          {
            "high": {
              "value": 145,
              "code": "mmol/L",
              "system": "http://unitsofmeasure.org"
            }
          }
        ],
        "text": {
          "status": "generated",
          "div": "<div xmlns=\"http://www.w3.org/1999/xhtml\"><table class=\"hl7__eu__lab__report\"><tr><th>Test</th><th>06-Apr-2020</th><th>Reference&#xA0;Range</th><th>Unit</th></tr><tr><td>Sodium [Moles/volume] in Blood</td><td>137.5</td><td>135 - 145</td><td></td><td>mmol/L</td></tr></table></div>"
        },
        "status": "final",
        "subject": {
          "reference": "urn:uuid:6c164b11-cc77-4e71-b1af-91632777003c",
          "display": "Alessio Fanucci"
        },
        "effectiveDateTime": "2020-04-06T07:49:06Z",
        "specimen": {
          "reference": "urn:uuid:f971e640-63ce-46f1-81e0-3d292aff7308"
        }
      }
    },
    {
      "fullUrl": "urn:uuid:3a62016b-bac2-4160-92ce-a0d39ac1e3e4",
      "resource": {
        "resourceType": "Observation",
        "id": "3a62016b-bac2-4160-92ce-a0d39ac1e3e4",
        "meta": {
          "profile": [
            "http://hl7.eu/fhir/laboratory/StructureDefinition/Observation-resultslab-eu-lab"
          ]
        },
        "performer": [
          {
            "display": "The Central European Lab"
          }
        ],
        "category": [
          {
            "coding": [
              {
                "system": "http://terminology.hl7.org/CodeSystem/observation-category",
                "code": "laboratory"
              }
            ]
          }
        ],
        "code": {
          "coding": [
            {
              "code": "6298-4",
              "system": "http://loinc.org",
              "display": "Potassium [Moles/volume] in Blood"
            }
          ],
          "text": "Potassium [Moles/volume] in Blood"
        },
        "valueQuantity": {
          "system": "http://unitsofmeasure.org",
          "value": 4.4,
          "unit": "mmol/L",
          "code": "mmol/L"
        },
        "referenceRange": [
          {
            "low": {
              "value": 3.5,
              "code": "mmol/L",
              "system": "http://unitsofmeasure.org"
            }
          },
          {
            "high": {
              "value": 5,
              "code": "mmol/L",
              "system": "http://unitsofmeasure.org"
            }
          }
        ],
        "text": {
          "status": "generated",
          "div": "<div xmlns=\"http://www.w3.org/1999/xhtml\"><table class=\"hl7__eu__lab__report\"><tr><th>Test</th><th>06-Apr-2020</th><th>Reference&#xA0;Range</th><th>Unit</th></tr><tr><td>Potassium [Moles/volume] in Blood</td><td>4.4</td><td>3.5 - 5</td><td></td><td>mmol/L</td></tr></table></div>"
        },
        "status": "final",
        "subject": {
          "reference": "urn:uuid:6c164b11-cc77-4e71-b1af-91632777003c",
          "display": "Alessio Fanucci"
        },
        "effectiveDateTime": "2020-04-06T07:49:06Z",
        "specimen": {
          "reference": "urn:uuid:f971e640-63ce-46f1-81e0-3d292aff7308"
        }
      }
    },
    {
      "fullUrl": "urn:uuid:7a876993-98b8-4306-a7ff-75cb40da134b",
      "resource": {
        "resourceType": "Observation",
        "id": "7a876993-98b8-4306-a7ff-75cb40da134b",
        "meta": {
          "profile": [
            "http://hl7.eu/fhir/laboratory/StructureDefinition/Observation-resultslab-eu-lab"
          ]
        },
        "performer": [
          {
            "display": "The Central European Lab"
          }
        ],
        "category": [
          {
            "coding": [
              {
                "system": "http://terminology.hl7.org/CodeSystem/observation-category",
                "code": "laboratory"
              }
            ]
          }
        ],
        "code": {
          "coding": [
            {
              "code": "2069-3",
              "system": "http://loinc.org",
              "display": "Chloride [Moles/volume] in Blood"
            }
          ],
          "text": "Chloride [Moles/volume] in Blood"
        },
        "valueQuantity": {
          "system": "http://unitsofmeasure.org",
          "value": 103.2,
          "unit": "mmol/L",
          "code": "mmol/L"
        },
        "referenceRange": [
          {
            "low": {
              "value": 98,
              "code": "mmol/L",
              "system": "http://unitsofmeasure.org"
            }
          },
          {
            "high": {
              "value": 110,
              "code": "mmol/L",
              "system": "http://unitsofmeasure.org"
            }
          }
        ],
        "text": {
          "status": "generated",
          "div": "<div xmlns=\"http://www.w3.org/1999/xhtml\"><table class=\"hl7__eu__lab__report\"><tr><th>Test</th><th>06-Apr-2020</th><th>Reference&#xA0;Range</th><th>Unit</th></tr><tr><td>Chloride [Moles/volume] in Blood</td><td>103.2</td><td>98 - 110</td><td></td><td>mmol/L</td></tr></table></div>"
        },
        "status": "final",
        "subject": {
          "reference": "urn:uuid:6c164b11-cc77-4e71-b1af-91632777003c",
          "display": "Alessio Fanucci"
        },
        "effectiveDateTime": "2020-04-06T07:49:06Z",
        "specimen": {
          "reference": "urn:uuid:f971e640-63ce-46f1-81e0-3d292aff7308"
        }
      }
    },
    {
      "fullUrl": "urn:uuid:d3be580c-386b-4303-9efc-d91b43fbd6d3",
      "resource": {
        "resourceType": "Observation",
        "id": "d3be580c-386b-4303-9efc-d91b43fbd6d3",
        "meta": {
          "profile": [
            "http://hl7.eu/fhir/laboratory/StructureDefinition/Observation-resultslab-eu-lab"
          ]
        },
        "performer": [
          {
            "display": "The Central European Lab"
          }
        ],
        "category": [
          {
            "coding": [
              {
                "system": "http://terminology.hl7.org/CodeSystem/observation-category",
                "code": "laboratory"
              }
            ]
          }
        ],
        "code": {
          "coding": [
            {
              "code": "20565-8",
              "system": "http://loinc.org",
              "display": "Carbon dioxide, total [Moles/volume] in Blood"
            }
          ],
          "text": "Carbon dioxide, total [Moles/volume] in Blood"
        },
        "valueQuantity": {
          "system": "http://unitsofmeasure.org",
          "value": 24.9,
          "unit": "mmol/L",
          "code": "mmol/L"
        },
        "referenceRange": [
          {
            "low": {
              "value": 22,
              "code": "mmol/L",
              "system": "http://unitsofmeasure.org"
            }
          },
          {
            "high": {
              "value": 32,
              "code": "mmol/L",
              "system": "http://unitsofmeasure.org"
            }
          }
        ],
        "text": {
          "status": "generated",
          "div": "<div xmlns=\"http://www.w3.org/1999/xhtml\"><table class=\"hl7__eu__lab__report\"><tr><th>Test</th><th>06-Apr-2020</th><th>Reference&#xA0;Range</th><th>Unit</th></tr><tr><td>Carbon dioxide, total [Moles/volume] in Blood</td><td>24.9</td><td>22 - 32</td><td></td><td>mmol/L</td></tr></table></div>"
        },
        "status": "final",
        "subject": {
          "reference": "urn:uuid:6c164b11-cc77-4e71-b1af-91632777003c",
          "display": "Alessio Fanucci"
        },
        "effectiveDateTime": "2020-04-06T07:49:06Z",
        "specimen": {
          "reference": "urn:uuid:f971e640-63ce-46f1-81e0-3d292aff7308"
        }
      }
    },
    {
      "fullUrl": "urn:uuid:d6e62afb-18da-4724-97bb-96596eaeadb6",
      "resource": {
        "resourceType": "Device",
        "id": "d6e62afb-18da-4724-97bb-96596eaeadb6",
        "deviceName": [
          {
            "name": "SYNDERAI Synthetic Generator",
            "type": "manufacturer-name"
          }
        ],
        "version": [
          {
            "value": "5.0"
          }
        ],
        "text": {
          "status": "generated",
          "div": "<div xmlns=\"http://www.w3.org/1999/xhtml\">SYNDERAI Synthetic Generator v5.0</div>"
        },
        "status": "active\"",
        "distinctIdentifier": "synderai-generator-50",
        "manufacturer": "SYNDERAI Project"
      }
    },
    {
      "fullUrl": "urn:uuid:8013fb0d-f04c-42d0-b60b-1b7e32fca719",
      "resource": {
        "resourceType": "Provenance",
        "id": "8013fb0d-f04c-42d0-b60b-1b7e32fca719",
        "target": [
          {
            "reference": "Patient/6c164b11-cc77-4e71-b1af-91632777003c"
          },
          {
            "reference": "Bundle/0237eed0-53a8-40e1-9a59-8c1c7a2107cd"
          },
          {
            "reference": "Composition/1315307e-97d5-49a4-8e1f-c3cb578508e2"
          },
          {
            "reference": "PractitionerRole/052269f4-6421-4f67-8fc7-e8acbb0f0fc2"
          },
          {
            "reference": "Practitioner/78a4a681-36fa-4001-bfba-09a39e5844aa"
          },
          {
            "reference": "PractitionerRole/b666a506-6aad-42e9-b612-7f68c7e3eb1a"
          },
          {
            "reference": "Organization/1978d119-a39f-4d03-9ad6-5e65788ec70e"
          }
        ],
        "activity": {
          "text": "Synthetic Example Data Generation"
        },
        "policy": [
          "https://synderai.net/synderai-synthetic-data-policy"
        ],
        "agent": [
          {
            "type": {
              "text": "author"
            },
            "who": {
              "reference": "Device/d6e62afb-18da-4724-97bb-96596eaeadb6"
            }
          }
        ],
        "reason": [
          {
            "text": "Interoperability Testing and Training (non-clinical use)"
          }
        ],
        "text": {
          "status": "generated",
          "div": "<div xmlns=\"http://www.w3.org/1999/xhtml\">Provenance for SYNDERAI Synthetic Example Data Resource</div>"
        },
        "recorded": "2020-04-06T09:49:06Z"
      }
    },
    {
      "fullUrl": "urn:uuid:052269f4-6421-4f67-8fc7-e8acbb0f0fc2",
      "resource": {
        "resourceType": "PractitionerRole",
        "id": "052269f4-6421-4f67-8fc7-e8acbb0f0fc2",
        "meta": {
          "profile": [
            "http://hl7.eu/fhir/base/StructureDefinition/practitionerRole-eu"
          ]
        },
        "text": {
          "status": "generated",
          "div": "<div xmlns=\"http://www.w3.org/1999/xhtml\">Laboratory Role Id: 052269f4-6421-4f67-8fc7-e8acbb0f0fc2</div>"
        },
        "practitioner": {
          "reference": "urn:uuid:78a4a681-36fa-4001-bfba-09a39e5844aa"
        }
      }
    },
    {
      "fullUrl": "urn:uuid:78a4a681-36fa-4001-bfba-09a39e5844aa",
      "resource": {
        "resourceType": "Practitioner",
        "id": "78a4a681-36fa-4001-bfba-09a39e5844aa",
        "meta": {
          "profile": [
            "http://hl7.eu/fhir/base/StructureDefinition/practitioner-eu"
          ]
        },
        "identifier": [
          {
            "assigner": {
              "display": "HL7 Europe"
            },
            "system": "urn:oid:2.16.840.1.113883.2.51.999",
            "value": "1ec9c162-390e-4c91-89ae-f429af39193c"
          }
        ],
        "name": [
          {
            "prefix": [
              "dr"
            ],
            "given": [
              "Ex"
            ],
            "family": "Ample"
          }
        ],
        "address": [
          {
            "line": [
              "Laboratoire Central Européenne",
              "Boulevard du Jardin Botanique 32"
            ],
            "postalCode": "1000",
            "city": "Brussels",
            "country": "Belgium"
          }
        ],
        "text": {
          "status": "generated",
          "div": "<div xmlns=\"http://www.w3.org/1999/xhtml\">Laboratory: Laboratoire Central Européenne, 1000 Brussels, Belgium</div>"
        }
      }
    }
  ],
  "type": "document",
  "timestamp": "2020-04-06T09:49:06Z"
}
