{
  "resourceType": "Bundle",
  "id": "9b2e9796-1d15-4b54-ac0c-ebbc789a992f",
  "meta": {
    "profile": [
      "http://hl7.eu/fhir/laboratory/StructureDefinition/Bundle-eu-lab"
    ]
  },
  "identifier": {
    "assigner": {
      "display": "HL7 Europe"
    },
    "system": "urn:oid:2.16.840.1.113883.2.51.999",
    "value": "20fe34fb-466e-45e7-a88b-45a3406fbbe7"
  },
  "entry": [
    {
      "fullUrl": "urn:uuid:d157f0f9-22bd-49f5-8211-6c4b80a39632",
      "resource": {
        "resourceType": "Composition",
        "id": "d157f0f9-22bd-49f5-8211-6c4b80a39632",
        "meta": {
          "profile": [
            "http://hl7.eu/fhir/laboratory/StructureDefinition/Composition-eu-lab"
          ]
        },
        "identifier": {
          "assigner": {
            "display": "HL7 Europe"
          },
          "system": "urn:oid:2.16.840.1.113883.2.51.999",
          "value": "e6d0554a-fb2a-4de4-ab08-d4e3ef1396a5"
        },
        "author": [
          {
            "reference": "urn:uuid:538ead11-3c77-4b35-b7ed-9eb041a4c820"
          }
        ],
        "category": [
          {
            "coding": [
              {
                "code": "26436-6",
                "system": "http://loinc.org",
                "display": "Laboratory studies (set)"
              }
            ]
          }
        ],
        "type": {
          "coding": [
            {
              "code": "11502-2",
              "system": "http://loinc.org",
              "display": "Laboratory report"
            }
          ],
          "text": "Laboratory Report"
        },
        "section": [
          {
            "code": {
              "coding": [
                {
                  "code": "26436-6",
                  "system": "http://loinc.org",
                  "display": "Laboratory studies (set)"
                }
              ],
              "text": "Laboratory studies"
            },
            "section": [
              {
                "code": {
                  "coding": [
                    {
                      "code": "$18719-5",
                      "system": "http://loinc.org",
                      "display": "Chemistry studies (set)"
                    }
                  ],
                  "text": "Chemistry"
                },
                "entry": [
                  {
                    "reference": "urn:uuid:ed4ea9ca-681a-49e8-8243-66d301d81150"
                  },
                  {
                    "reference": "urn:uuid:3b6f96fc-ede6-41a8-b1fc-981565840496"
                  },
                  {
                    "reference": "urn:uuid:6518752a-4e42-4755-b0a1-88b8cafa9800"
                  },
                  {
                    "reference": "urn:uuid:7c14a122-ee62-439c-a07b-b7dcb8a00895"
                  },
                  {
                    "reference": "urn:uuid:7e7a4fe3-f4f0-4f9f-b192-7b4216498149"
                  },
                  {
                    "reference": "urn:uuid:8bea9a89-5b19-404c-a638-6b1330a9d1a4"
                  },
                  {
                    "reference": "urn:uuid:723b6cf2-3cfa-45f4-bcc6-b1fc7b4f37b7"
                  },
                  {
                    "reference": "urn:uuid:643cea22-8dfd-4130-9401-8e1268cc383f"
                  },
                  {
                    "reference": "urn:uuid:24df9186-bcbb-45b3-b00c-10f45c1dc2cf"
                  },
                  {
                    "reference": "urn:uuid:62d07ace-5b6b-4640-910e-59598994d4c6"
                  },
                  {
                    "reference": "urn:uuid:00595b40-f59e-4e5e-a7df-2548c240c1f7"
                  },
                  {
                    "reference": "urn:uuid:bfd15747-991e-4d93-956c-93915437fa7b"
                  },
                  {
                    "reference": "urn:uuid:1ebe8768-86c9-4d3f-8796-3e6eb2e78682"
                  },
                  {
                    "reference": "urn:uuid:b1166f21-5732-479c-8bfb-97b8ffad864e"
                  },
                  {
                    "reference": "urn:uuid:0485402e-fc75-49e5-b680-85bd437bcc04"
                  },
                  {
                    "reference": "urn:uuid:cc6cd904-ba5e-4d0c-91d5-cc1eeae0b62a"
                  },
                  {
                    "reference": "urn:uuid:ed7da00e-84da-4d4b-a3e0-1772617c2f13"
                  },
                  {
                    "reference": "urn:uuid:26ec10b3-0346-41e9-9f58-77f624e55b35"
                  }
                ],
                "text": {
                  "status": "generated",
                  "div": "<div xmlns=\"http://www.w3.org/1999/xhtml\"><h3>Chemistry</h3><table class=\"hl7__eu__lab__report\"><thead><tr><th>Test</th><th>20-MAR-2019</th><th>Reference&#xA0;Range</th><th>Unit</th></tr></thead><tbody><tr><td>Glucose [Mass/volume] in Serum or Plasma</td><td>81.1</td><td>70 - 140</td><td>mg/dL</td></tr><tr><td>Urea nitrogen [Mass/volume] in Serum or Plasma</td><td>15.3</td><td>7 - 20</td><td>mg/dL</td></tr><tr><td>Creatinine [Mass/volume] in Serum or Plasma</td><td><strong>1.9 H</strong></td><td>0.9 - 1.3</td><td>mg/dL</td></tr><tr><td>Calcium [Mass/volume] in Serum or Plasma</td><td>9.7</td><td>8.5 - 10.5</td><td>mg/dL</td></tr><tr><td>Sodium [Moles/volume] in Serum or Plasma</td><td>141.0</td><td>135 - 145</td><td>mmol/L</td></tr><tr><td>Potassium [Moles/volume] in Serum or Plasma</td><td>4.1</td><td>3.5 - 5</td><td>mmol/L</td></tr><tr><td>Chloride [Moles/volume] in Serum or Plasma</td><td>106.8</td><td>98 - 108</td><td>mmol/L</td></tr><tr><td>Carbon dioxide, total [Moles/volume] in Serum or Plasma</td><td>25.5</td><td>22 - 29</td><td>mmol/L</td></tr><tr><td>Ketones [Presence] in Urine by Test strip</td><td>Urine ketone test = ++</td><td></td><td></td></tr><tr><td>Hemoglobin A1c/Hemoglobin.total in Blood</td><td><strong>3.2 L</strong></td><td>4.3 - 6.4</td><td>%</td></tr><tr><td>Glucose [Mass/volume] in Blood</td><td>81.1</td><td>70 - 140</td><td>mg/dL</td></tr><tr><td>Urea nitrogen [Mass/volume] in Blood</td><td>15.3</td><td>7 - 20</td><td>mg/dL</td></tr><tr><td>Creatinine [Mass/volume] in Blood</td><td><strong>7.7 H</strong></td><td>0.6 - 1.3</td><td>mg/dL</td></tr><tr><td>Calcium [Mass/volume] in Blood</td><td>9.7</td><td>8.5 - 10.5</td><td>mg/dL</td></tr><tr><td>Sodium [Moles/volume] in Blood</td><td>141.0</td><td>135 - 145</td><td>mmol/L</td></tr><tr><td>Potassium [Moles/volume] in Blood</td><td>4.1</td><td>3.5 - 5.3</td><td>mmol/L</td></tr><tr><td>Chloride [Moles/volume] in Blood</td><td>106.8</td><td>98 - 110</td><td>mmol/L</td></tr><tr><td>Carbon dioxide, total [Moles/volume] in Blood</td><td>25.5</td><td>22 - 29</td><td>mmol/L</td></tr></tbody></table></div>"
                },
                "title": "Chemistry"
              },
              {
                "code": {
                  "coding": [
                    {
                      "code": "$18729-4",
                      "system": "http://loinc.org",
                      "display": "Urinalysis studies (set)"
                    }
                  ],
                  "text": "Urinalysis"
                },
                "entry": [
                  {
                    "reference": "urn:uuid:636964dc-8694-4d9f-8742-2e6d23427f8e"
                  },
                  {
                    "reference": "urn:uuid:f1ffd436-9773-4da8-ae9d-1f83eaae5302"
                  },
                  {
                    "reference": "urn:uuid:a3d08ceb-2953-4e0d-ae12-ed21d684f1fa"
                  },
                  {
                    "reference": "urn:uuid:e563cfeb-15cf-4e5f-b4bc-b942e1bbccd7"
                  },
                  {
                    "reference": "urn:uuid:d3629fad-72f7-4a40-92f1-bfcfba6a9df4"
                  },
                  {
                    "reference": "urn:uuid:0770b31e-2b9d-4c06-95b3-169373412cd1"
                  },
                  {
                    "reference": "urn:uuid:8c9ace98-e033-4db3-bd7d-26c22413b860"
                  },
                  {
                    "reference": "urn:uuid:9d2b9266-d033-404f-b6f7-90090cae5589"
                  },
                  {
                    "reference": "urn:uuid:d7979a7d-65cb-42cb-95b9-2e6c5498ecf2"
                  },
                  {
                    "reference": "urn:uuid:573eca4a-95db-4a8a-bc98-8b0e861477f9"
                  },
                  {
                    "reference": "urn:uuid:2ef0ab4a-3282-49b1-8fd6-4748edd40b2b"
                  },
                  {
                    "reference": "urn:uuid:9b95f544-ff1c-4de0-9315-d28289565bc7"
                  }
                ],
                "text": {
                  "status": "generated",
                  "div": "<div xmlns=\"http://www.w3.org/1999/xhtml\"><h3>Urinalysis</h3><table class=\"hl7__eu__lab__report\"><thead><tr><th>Test</th><th>20-MAR-2019</th><th>Reference&#xA0;Range</th><th>Unit</th></tr></thead><tbody><tr><td>Glucose [Mass/volume] in Urine by Test strip</td><td>0.8</td><td>0 - 0.8</td><td>mg/dL</td></tr><tr><td>Glucose [Presence] in Urine by Test strip</td><td>++</td><td></td><td></td></tr><tr><td>Bilirubin.total [Mass/volume] in Urine by Test strip</td><td>0.7</td><td>0.2 - 1</td><td>mg/dL</td></tr><tr><td>Bilirubin.total [Presence] in Urine by Test strip</td><td>Finding of bilirubin in urine</td><td></td><td></td></tr><tr><td>Ketones [Mass/volume] in Urine by Test strip</td><td><strong>14.7 H</strong></td><td>0 - 5</td><td>mg/dL</td></tr><tr><td>Specific gravity of Urine by Test strip</td><td><strong>1.0 L</strong></td><td>1.005 - 1.03</td><td>{nominal}</td></tr><tr><td>pH of Urine by Test strip</td><td>6.2</td><td>4.6 - 7</td><td>pH</td></tr><tr><td>Protein [Mass/volume] in Urine by Test strip</td><td><strong>327.7 H</strong></td><td>0 - 150</td><td>mg/dL</td></tr><tr><td>Protein [Presence] in Urine by Test strip</td><td>Urine protein test = ++</td><td></td><td></td></tr><tr><td>Nitrite [Presence] in Urine by Test strip</td><td>Urine nitrite negative</td><td></td><td></td></tr><tr><td>Hemoglobin [Presence] in Urine by Test strip</td><td>Urine blood test = negative</td><td></td><td></td></tr><tr><td>Leukocyte esterase [Presence] in Urine by Test strip</td><td>Urine leukocyte test negative</td><td></td><td></td></tr></tbody></table></div>"
                },
                "title": "Urinalysis"
              },
              {
                "code": {
                  "coding": [
                    {
                      "code": "$LP7846-1",
                      "system": "http://loinc.org",
                      "display": "Specimen information"
                    }
                  ],
                  "text": "Specimen information"
                },
                "entry": [
                  {
                    "reference": "urn:uuid:14d5625f-5655-46a0-99a7-e386f25ddc9a"
                  },
                  {
                    "reference": "urn:uuid:9a7b9072-468d-4aef-8053-3ddc17afca04"
                  },
                  {
                    "reference": "urn:uuid:4cd4a249-2c9d-42a3-9aed-1930c399d455"
                  },
                  {
                    "reference": "urn:uuid:160737d9-6a97-4a1f-a91f-9c55e55866f4"
                  }
                ],
                "text": {
                  "status": "generated",
                  "div": "<div xmlns=\"http://www.w3.org/1999/xhtml\"><h3>Specimen information</h3><table class=\"hl7__eu__lab__report\"><thead><tr><th>Test</th><th>20-MAR-2019</th><th>Specimen</th><th></th></tr></thead><tbody><tr><td>Appearance of Urine</td><td>Cloudy urine</td><td>Urine</td><td></td></tr><tr><td>Odor of Urine</td><td>Urine smell ammoniacal</td><td>Urine</td><td></td></tr><tr><td>Clarity of Urine</td><td>Translucent</td><td>Urine</td><td></td></tr><tr><td>Color of Urine</td><td>Brown color</td><td>Urine</td><td></td></tr></tbody></table></div>"
                },
                "title": "Specimen information"
              }
            ],
            "title": "Laboratory Report"
          },
          {
            "text": {
              "status": "generated",
              "div": "<div xmlns=\"http://www.w3.org/1999/xhtml\"><h3>Annotation</h3><table class=\"hl7__eu__lab__report\"><tr><th>Conclusion and Recommendations based on this report and previous findings known to us</th></tr><tr><td>The patient shows markedly elevated creatinine in both serum and blood, indicating significant renal dysfunction. Urinalysis reveals proteinuria, ketonuria, glucosuria, low specific gravity, and abnormal urine appearance, supporting possible nephrotic syndrome or acute kidney injury. Hemoglobin A1c is low, suggesting no chronic hyperglycemia. Immediate nephrology evaluation is recommended for further assessment and management of renal impairment and associated metabolic disturbances.</td></tr></table></div>"
            },
            "code": {
              "coding": [
                {
                  "system": "http://loinc.org",
                  "code": "48767-8",
                  "display": "Annotation comment"
                }
              ]
            },
            "title": "Annotation comment"
          }
        ],
        "status": "final",
        "subject": {
          "reference": "urn:uuid:cd864572-6465-450d-b49d-31137942896b",
          "display": "Θεμιστοκλής Λιναρδάκη"
        },
        "date": "2019-03-20T07:16:00Z",
        "title": "Laboratory Report",
        "confidentiality": "N"
      }
    },
    {
      "fullUrl": "urn:uuid:e19dd624-d0fb-40e8-bbc1-051d26b180db",
      "resource": {
        "resourceType": "DiagnosticReport",
        "id": "e19dd624-d0fb-40e8-bbc1-051d26b180db",
        "meta": {
          "profile": [
            "http://hl7.eu/fhir/laboratory/StructureDefinition/DiagnosticReport-eu-lab"
          ]
        },
        "identifier": [
          {
            "assigner": {
              "display": "HL7 Europe"
            },
            "system": "urn:oid:2.16.840.1.113883.2.51.999",
            "value": "89a07a94-d7e8-48a1-8b67-71dc3e58b56a"
          }
        ],
        "extension": [
          {
            "url": "http://hl7.org/fhir/5.0/StructureDefinition/extension-DiagnosticReport.composition",
            "valueReference": {
              "reference": "urn:uuid:e6d0554a-fb2a-4de4-ab08-d4e3ef1396a5"
            }
          }
        ],
        "category": [
          {
            "coding": [
              {
                "code": "26436-6",
                "system": "http://loinc.org",
                "display": "Laboratory studies (set)"
              }
            ]
          }
        ],
        "specimen": [
          {
            "reference": "urn:uuid:41bc1cb4-320d-49b3-831a-a1fab47187a6"
          },
          {
            "reference": "urn:uuid:f4cedffe-dc76-401d-a822-c0767422b90b"
          },
          {
            "reference": "urn:uuid:3e9f1fc7-b262-4620-89d2-52f6e0c02a67"
          }
        ],
        "result": [
          {
            "reference": "urn:uuid:ed4ea9ca-681a-49e8-8243-66d301d81150"
          },
          {
            "reference": "urn:uuid:3b6f96fc-ede6-41a8-b1fc-981565840496"
          },
          {
            "reference": "urn:uuid:6518752a-4e42-4755-b0a1-88b8cafa9800"
          },
          {
            "reference": "urn:uuid:7c14a122-ee62-439c-a07b-b7dcb8a00895"
          },
          {
            "reference": "urn:uuid:7e7a4fe3-f4f0-4f9f-b192-7b4216498149"
          },
          {
            "reference": "urn:uuid:8bea9a89-5b19-404c-a638-6b1330a9d1a4"
          },
          {
            "reference": "urn:uuid:723b6cf2-3cfa-45f4-bcc6-b1fc7b4f37b7"
          },
          {
            "reference": "urn:uuid:643cea22-8dfd-4130-9401-8e1268cc383f"
          },
          {
            "reference": "urn:uuid:14d5625f-5655-46a0-99a7-e386f25ddc9a"
          },
          {
            "reference": "urn:uuid:9a7b9072-468d-4aef-8053-3ddc17afca04"
          },
          {
            "reference": "urn:uuid:4cd4a249-2c9d-42a3-9aed-1930c399d455"
          },
          {
            "reference": "urn:uuid:160737d9-6a97-4a1f-a91f-9c55e55866f4"
          },
          {
            "reference": "urn:uuid:636964dc-8694-4d9f-8742-2e6d23427f8e"
          },
          {
            "reference": "urn:uuid:f1ffd436-9773-4da8-ae9d-1f83eaae5302"
          },
          {
            "reference": "urn:uuid:a3d08ceb-2953-4e0d-ae12-ed21d684f1fa"
          },
          {
            "reference": "urn:uuid:e563cfeb-15cf-4e5f-b4bc-b942e1bbccd7"
          },
          {
            "reference": "urn:uuid:d3629fad-72f7-4a40-92f1-bfcfba6a9df4"
          },
          {
            "reference": "urn:uuid:24df9186-bcbb-45b3-b00c-10f45c1dc2cf"
          },
          {
            "reference": "urn:uuid:0770b31e-2b9d-4c06-95b3-169373412cd1"
          },
          {
            "reference": "urn:uuid:8c9ace98-e033-4db3-bd7d-26c22413b860"
          },
          {
            "reference": "urn:uuid:9d2b9266-d033-404f-b6f7-90090cae5589"
          },
          {
            "reference": "urn:uuid:d7979a7d-65cb-42cb-95b9-2e6c5498ecf2"
          },
          {
            "reference": "urn:uuid:573eca4a-95db-4a8a-bc98-8b0e861477f9"
          },
          {
            "reference": "urn:uuid:2ef0ab4a-3282-49b1-8fd6-4748edd40b2b"
          },
          {
            "reference": "urn:uuid:9b95f544-ff1c-4de0-9315-d28289565bc7"
          },
          {
            "reference": "urn:uuid:62d07ace-5b6b-4640-910e-59598994d4c6"
          },
          {
            "reference": "urn:uuid:00595b40-f59e-4e5e-a7df-2548c240c1f7"
          },
          {
            "reference": "urn:uuid:bfd15747-991e-4d93-956c-93915437fa7b"
          },
          {
            "reference": "urn:uuid:1ebe8768-86c9-4d3f-8796-3e6eb2e78682"
          },
          {
            "reference": "urn:uuid:b1166f21-5732-479c-8bfb-97b8ffad864e"
          },
          {
            "reference": "urn:uuid:0485402e-fc75-49e5-b680-85bd437bcc04"
          },
          {
            "reference": "urn:uuid:cc6cd904-ba5e-4d0c-91d5-cc1eeae0b62a"
          },
          {
            "reference": "urn:uuid:ed7da00e-84da-4d4b-a3e0-1772617c2f13"
          },
          {
            "reference": "urn:uuid:26ec10b3-0346-41e9-9f58-77f624e55b35"
          }
        ],
        "status": "registered",
        "code": {
          "coding": [
            {
              "code": "11502-2",
              "system": "http://loinc.org",
              "display": "Laboratory report"
            }
          ]
        },
        "subject": {
          "reference": "urn:uuid:cd864572-6465-450d-b49d-31137942896b",
          "display": "Θεμιστοκλής Λιναρδάκη"
        }
      }
    },
    {
      "fullUrl": "urn:uuid:cd864572-6465-450d-b49d-31137942896b",
      "resource": {
        "resourceType": "Patient",
        "id": "cd864572-6465-450d-b49d-31137942896b",
        "meta": {
          "security": [
            {
              "system": "http://terminology.hl7.org/CodeSystem/v3-ActReason",
              "code": "HTEST"
            },
            {
              "system": "http://terminology.hl7.org/CodeSystem/v3-ActReason",
              "code": "TRAIN"
            }
          ],
          "tag": [
            {
              "system": "https://synderai.net/fhir/CodeSystem/tags",
              "code": "synthetic",
              "display": "SYNDERAI Synthetic data"
            }
          ],
          "profile": [
            "http://hl7.eu/fhir/base/StructureDefinition/patient-eu-core"
          ]
        },
        "identifier": [
          {
            "type": {
              "coding": [
                {
                  "code": "PT",
                  "system": "http://terminology.hl7.org/CodeSystem/v2-0203"
                }
              ]
            },
            "system": "http://ec.europa.eu/identifier/eci",
            "value": "5962-476889-7"
          },
          {
            "type": {
              "coding": [
                {
                  "code": "MR",
                  "system": "http://terminology.hl7.org/CodeSystem/v2-0203"
                }
              ]
            },
            "system": "http://local.setting.eu/identifier",
            "value": "925e2603-2ef9-6bdf-1330-2ebf526636c4"
          }
        ],
        "name": [
          {
            "family": "Λιναρδάκη"
          },
          {
            "given": [
              "Θεμιστοκλής"
            ]
          },
          {
            "text": "Θεμιστοκλής Λιναρδάκη"
          }
        ],
        "address": [
          {
            "line": [
              "Αμαρύνθου 54-58"
            ],
            "use": "home",
            "type": "physical",
            "postalCode": "262 21",
            "city": "Πάτρα",
            "country": "Greece"
          }
        ],
        "telecom": [
          {
            "system": "phone",
            "value": "+302226364480"
          }
        ],
        "extension": [
          {
            "url": "http://hl7.org/fhir/StructureDefinition/patient-nationality",
            "valueCodeableConcept": {
              "coding": [
                {
                  "code": "GR",
                  "system": "http://hl7.org/fhir/ValueSet/country"
                }
              ]
            }
          }
        ],
        "text": {
          "status": "generated",
          "div": "<div xmlns=\"http://www.w3.org/1999/xhtml\"><table class=\"hl7__ips\"><tr><td>Θεμιστοκλής Λιναρδάκη</td><td>male</td><td>21-Jan-1974</td></tr></table></div>"
        },
        "gender": "male",
        "birthDate": "1974-01-21"
      }
    },
    {
      "fullUrl": "urn:uuid:d5f17231-2092-45a7-b1b9-2d7b3073fc92",
      "resource": {
        "resourceType": "ServiceRequest",
        "id": "d5f17231-2092-45a7-b1b9-2d7b3073fc92",
        "meta": {
          "profile": [
            "http://hl7.eu/fhir/laboratory/StructureDefinition/ServiceRequest-eu-lab"
          ]
        },
        "identifier": [
          {
            "system": "http://example.org",
            "value": "96299c15-3320-4112-8c5f-98a112a4b3cf"
          }
        ],
        "specimen": [
          {
            "reference": "urn:uuid:41bc1cb4-320d-49b3-831a-a1fab47187a6"
          },
          {
            "reference": "urn:uuid:f4cedffe-dc76-401d-a822-c0767422b90b"
          },
          {
            "reference": "urn:uuid:3e9f1fc7-b262-4620-89d2-52f6e0c02a67"
          }
        ],
        "reasonCode": [
          {
            "coding": [
              {
                "code": "237602007",
                "system": "http://snomed.info/sct",
                "display": "Metabolic syndrome X"
              }
            ]
          },
          {
            "coding": [
              {
                "code": "433144002",
                "system": "http://snomed.info/sct",
                "display": "Chronic kidney disease stage 3"
              }
            ]
          },
          {
            "coding": [
              {
                "code": "157141000119108",
                "system": "http://snomed.info/sct",
                "display": "Proteinuria due to type 2 diabetes mellitus"
              }
            ]
          },
          {
            "coding": [
              {
                "code": "431856006",
                "system": "http://snomed.info/sct",
                "display": "Chronic kidney disease stage 2"
              }
            ]
          },
          {
            "coding": [
              {
                "code": "90781000119102",
                "system": "http://snomed.info/sct",
                "display": "Microalbuminuria due to type 2 diabetes mellitus"
              }
            ]
          },
          {
            "coding": [
              {
                "code": "127013003",
                "system": "http://snomed.info/sct",
                "display": "Disorder of kidney due to diabetes mellitus"
              }
            ]
          },
          {
            "coding": [
              {
                "code": "431855005",
                "system": "http://snomed.info/sct",
                "display": "Chronic kidney disease stage 1"
              }
            ]
          },
          {
            "coding": [
              {
                "code": "59621000",
                "system": "http://snomed.info/sct",
                "display": "Essential hypertension"
              }
            ]
          },
          {
            "coding": [
              {
                "code": "15777000",
                "system": "http://snomed.info/sct",
                "display": "Prediabetes"
              }
            ]
          },
          {
            "coding": [
              {
                "code": "271737000",
                "system": "http://snomed.info/sct",
                "display": "Anemia"
              }
            ]
          }
        ],
        "status": "active",
        "intent": "order",
        "code": {
          "coding": [
            {
              "code": "108252007",
              "system": "http://snomed.info/sct",
              "display": "Laboratory procedure"
            }
          ]
        },
        "subject": {
          "reference": "urn:uuid:cd864572-6465-450d-b49d-31137942896b",
          "display": "Θεμιστοκλής Λιναρδάκη"
        },
        "requester": {
          "reference": "urn:uuid:b3e7dcb6-e7ec-4b70-88e5-2f372bd97eb9"
        }
      }
    },
    {
      "fullUrl": "urn:uuid:b3e7dcb6-e7ec-4b70-88e5-2f372bd97eb9",
      "resource": {
        "resourceType": "PractitionerRole",
        "id": "b3e7dcb6-e7ec-4b70-88e5-2f372bd97eb9",
        "meta": {
          "profile": [
            "http://hl7.eu/fhir/base/StructureDefinition/practitionerRole-eu"
          ]
        },
        "text": {
          "status": "generated",
          "div": "<div xmlns=\"http://www.w3.org/1999/xhtml\">Provider Role Id: b3e7dcb6-e7ec-4b70-88e5-2f372bd97eb9</div>"
        },
        "organization": {
          "reference": "urn:uuid:784907fa-2a63-4ece-bd79-30d94ae2e99a"
        }
      }
    },
    {
      "fullUrl": "urn:uuid:784907fa-2a63-4ece-bd79-30d94ae2e99a",
      "resource": {
        "resourceType": "Organization",
        "id": "784907fa-2a63-4ece-bd79-30d94ae2e99a",
        "meta": {
          "profile": [
            "http://hl7.eu/fhir/base/StructureDefinition/organization-eu"
          ]
        },
        "identifier": [
          {
            "assigner": {
              "display": "HL7 Europe"
            },
            "system": "urn:oid:2.16.840.1.113883.2.51.999",
            "value": "cc1825cd-3d9d-41e4-a772-493cd1b59f36"
          }
        ],
        "address": [
          {
            "line": [
              "211 Odós Filellinon"
            ],
            "city": "Patras",
            "postalCode": "262 21",
            "country": "Greece"
          }
        ],
        "text": {
          "status": "generated",
          "div": "<div xmlns=\"http://www.w3.org/1999/xhtml\">Provider Organization: Dr. Dimitris Economou</div>"
        },
        "name": "Dr. Dimitris Economou"
      }
    },
    {
      "fullUrl": "urn:uuid:41bc1cb4-320d-49b3-831a-a1fab47187a6",
      "resource": {
        "resourceType": "Specimen",
        "id": "41bc1cb4-320d-49b3-831a-a1fab47187a6",
        "meta": {
          "profile": [
            "http://hl7.eu/fhir/laboratory/StructureDefinition/Specimen-eu-lab"
          ]
        },
        "collection": {
          "collectedDateTime": "2019-03-20"
        },
        "text": {
          "status": "generated",
          "div": "<div xmlns=\"http://www.w3.org/1999/xhtml\"><table class=\"hl7__eu__lab__report\"><tr><th>Specimen</th><th>Collection Date</th></tr><tr><td>Acellular blood (serum or plasma) specimen</td><td><span class=\"nb\">20-Mar-2019</span></td></tr></table></div>"
        },
        "type": {
          "coding": [
            {
              "code": "122592007",
              "system": "http://snomed.info/sct",
              "display": "Acellular blood (serum or plasma) specimen"
            }
          ]
        }
      }
    },
    {
      "fullUrl": "urn:uuid:f4cedffe-dc76-401d-a822-c0767422b90b",
      "resource": {
        "resourceType": "Specimen",
        "id": "f4cedffe-dc76-401d-a822-c0767422b90b",
        "meta": {
          "profile": [
            "http://hl7.eu/fhir/laboratory/StructureDefinition/Specimen-eu-lab"
          ]
        },
        "collection": {
          "collectedDateTime": "2019-03-20"
        },
        "text": {
          "status": "generated",
          "div": "<div xmlns=\"http://www.w3.org/1999/xhtml\"><table class=\"hl7__eu__lab__report\"><tr><th>Specimen</th><th>Collection Date</th></tr><tr><td>Urine specimen</td><td><span class=\"nb\">20-Mar-2019</span></td></tr></table></div>"
        },
        "type": {
          "coding": [
            {
              "code": "122575003",
              "system": "http://snomed.info/sct",
              "display": "Urine specimen"
            }
          ]
        }
      }
    },
    {
      "fullUrl": "urn:uuid:3e9f1fc7-b262-4620-89d2-52f6e0c02a67",
      "resource": {
        "resourceType": "Specimen",
        "id": "3e9f1fc7-b262-4620-89d2-52f6e0c02a67",
        "meta": {
          "profile": [
            "http://hl7.eu/fhir/laboratory/StructureDefinition/Specimen-eu-lab"
          ]
        },
        "collection": {
          "collectedDateTime": "2019-03-20"
        },
        "text": {
          "status": "generated",
          "div": "<div xmlns=\"http://www.w3.org/1999/xhtml\"><table class=\"hl7__eu__lab__report\"><tr><th>Specimen</th><th>Collection Date</th></tr><tr><td>Whole blood specimen (specimen)</td><td><span class=\"nb\">20-Mar-2019</span></td></tr></table></div>"
        },
        "type": {
          "coding": [
            {
              "code": "258580003",
              "system": "http://snomed.info/sct",
              "display": "Whole blood specimen (specimen)"
            }
          ]
        }
      }
    },
    {
      "fullUrl": "urn:uuid:ed4ea9ca-681a-49e8-8243-66d301d81150",
      "resource": {
        "resourceType": "Observation",
        "id": "ed4ea9ca-681a-49e8-8243-66d301d81150",
        "meta": {
          "profile": [
            "http://hl7.eu/fhir/laboratory/StructureDefinition/Observation-resultslab-eu-lab"
          ]
        },
        "performer": [
          {
            "display": "The Central European Lab"
          }
        ],
        "category": [
          {
            "coding": [
              {
                "system": "http://terminology.hl7.org/CodeSystem/observation-category",
                "code": "laboratory"
              }
            ]
          }
        ],
        "code": {
          "coding": [
            {
              "code": "2345-7",
              "system": "http://loinc.org",
              "display": "Glucose [Mass/volume] in Serum or Plasma"
            }
          ],
          "text": "Glucose [Mass/volume] in Serum or Plasma"
        },
        "valueQuantity": {
          "system": "http://unitsofmeasure.org",
          "value": 81.1,
          "unit": "mg/dL",
          "code": "mg/dL"
        },
        "referenceRange": [
          {
            "low": {
              "value": 70,
              "code": "mg/dL",
              "system": "http://unitsofmeasure.org"
            }
          },
          {
            "high": {
              "value": 140,
              "code": "mg/dL",
              "system": "http://unitsofmeasure.org"
            }
          }
        ],
        "text": {
          "status": "generated",
          "div": "<div xmlns=\"http://www.w3.org/1999/xhtml\"><table class=\"hl7__eu__lab__report\"><tr><th>Test</th><th>20-Mar-2019</th><th>Reference&#xA0;Range</th><th>Unit</th></tr><tr><td>Glucose [Mass/volume] in Serum or Plasma</td><td>81.1</td><td>70 - 140</td><td></td><td>mg/dL</td></tr></table></div>"
        },
        "status": "final",
        "subject": {
          "reference": "urn:uuid:cd864572-6465-450d-b49d-31137942896b",
          "display": "Θεμιστοκλής Λιναρδάκη"
        },
        "effectiveDateTime": "2019-03-20T06:16:00Z",
        "specimen": {
          "reference": "urn:uuid:41bc1cb4-320d-49b3-831a-a1fab47187a6"
        }
      }
    },
    {
      "fullUrl": "urn:uuid:3b6f96fc-ede6-41a8-b1fc-981565840496",
      "resource": {
        "resourceType": "Observation",
        "id": "3b6f96fc-ede6-41a8-b1fc-981565840496",
        "meta": {
          "profile": [
            "http://hl7.eu/fhir/laboratory/StructureDefinition/Observation-resultslab-eu-lab"
          ]
        },
        "performer": [
          {
            "display": "The Central European Lab"
          }
        ],
        "category": [
          {
            "coding": [
              {
                "system": "http://terminology.hl7.org/CodeSystem/observation-category",
                "code": "laboratory"
              }
            ]
          }
        ],
        "code": {
          "coding": [
            {
              "code": "3094-0",
              "system": "http://loinc.org",
              "display": "Urea nitrogen [Mass/volume] in Serum or Plasma"
            }
          ],
          "text": "Urea nitrogen [Mass/volume] in Serum or Plasma"
        },
        "valueQuantity": {
          "system": "http://unitsofmeasure.org",
          "value": 15.3,
          "unit": "mg/dL",
          "code": "mg/dL"
        },
        "referenceRange": [
          {
            "low": {
              "value": 7,
              "code": "mg/dL",
              "system": "http://unitsofmeasure.org"
            }
          },
          {
            "high": {
              "value": 20,
              "code": "mg/dL",
              "system": "http://unitsofmeasure.org"
            }
          }
        ],
        "text": {
          "status": "generated",
          "div": "<div xmlns=\"http://www.w3.org/1999/xhtml\"><table class=\"hl7__eu__lab__report\"><tr><th>Test</th><th>20-Mar-2019</th><th>Reference&#xA0;Range</th><th>Unit</th></tr><tr><td>Urea nitrogen [Mass/volume] in Serum or Plasma</td><td>15.3</td><td>7 - 20</td><td></td><td>mg/dL</td></tr></table></div>"
        },
        "status": "final",
        "subject": {
          "reference": "urn:uuid:cd864572-6465-450d-b49d-31137942896b",
          "display": "Θεμιστοκλής Λιναρδάκη"
        },
        "effectiveDateTime": "2019-03-20T06:16:00Z",
        "specimen": {
          "reference": "urn:uuid:41bc1cb4-320d-49b3-831a-a1fab47187a6"
        }
      }
    },
    {
      "fullUrl": "urn:uuid:6518752a-4e42-4755-b0a1-88b8cafa9800",
      "resource": {
        "resourceType": "Observation",
        "id": "6518752a-4e42-4755-b0a1-88b8cafa9800",
        "meta": {
          "profile": [
            "http://hl7.eu/fhir/laboratory/StructureDefinition/Observation-resultslab-eu-lab"
          ]
        },
        "performer": [
          {
            "display": "The Central European Lab"
          }
        ],
        "category": [
          {
            "coding": [
              {
                "system": "http://terminology.hl7.org/CodeSystem/observation-category",
                "code": "laboratory"
              }
            ]
          }
        ],
        "code": {
          "coding": [
            {
              "code": "2160-0",
              "system": "http://loinc.org",
              "display": "Creatinine [Mass/volume] in Serum or Plasma"
            }
          ],
          "text": "Creatinine [Mass/volume] in Serum or Plasma"
        },
        "valueQuantity": {
          "system": "http://unitsofmeasure.org",
          "value": 1.9,
          "unit": "mg/dL",
          "code": "mg/dL"
        },
        "referenceRange": [
          {
            "low": {
              "value": 0.9,
              "code": "mg/dL",
              "system": "http://unitsofmeasure.org"
            }
          },
          {
            "high": {
              "value": 1.3,
              "code": "mg/dL",
              "system": "http://unitsofmeasure.org"
            }
          }
        ],
        "interpretation": [
          {
            "coding": [
              {
                "code": "H",
                "system": "http://terminology.hl7.org/CodeSystem/v3-ObservationInterpretation",
                "display": "High"
              }
            ]
          }
        ],
        "text": {
          "status": "generated",
          "div": "<div xmlns=\"http://www.w3.org/1999/xhtml\"><table class=\"hl7__eu__lab__report\"><tr><th>Test</th><th>20-Mar-2019</th><th>Reference&#xA0;Range</th><th>Unit</th></tr><tr><td>Creatinine [Mass/volume] in Serum or Plasma</td><td>1.9</td><td>0.9 - 1.3</td><td>H</td><td>mg/dL</td></tr></table></div>"
        },
        "status": "final",
        "subject": {
          "reference": "urn:uuid:cd864572-6465-450d-b49d-31137942896b",
          "display": "Θεμιστοκλής Λιναρδάκη"
        },
        "effectiveDateTime": "2019-03-20T06:16:00Z",
        "specimen": {
          "reference": "urn:uuid:41bc1cb4-320d-49b3-831a-a1fab47187a6"
        }
      }
    },
    {
      "fullUrl": "urn:uuid:7c14a122-ee62-439c-a07b-b7dcb8a00895",
      "resource": {
        "resourceType": "Observation",
        "id": "7c14a122-ee62-439c-a07b-b7dcb8a00895",
        "meta": {
          "profile": [
            "http://hl7.eu/fhir/laboratory/StructureDefinition/Observation-resultslab-eu-lab"
          ]
        },
        "performer": [
          {
            "display": "The Central European Lab"
          }
        ],
        "category": [
          {
            "coding": [
              {
                "system": "http://terminology.hl7.org/CodeSystem/observation-category",
                "code": "laboratory"
              }
            ]
          }
        ],
        "code": {
          "coding": [
            {
              "code": "17861-6",
              "system": "http://loinc.org",
              "display": "Calcium [Mass/volume] in Serum or Plasma"
            }
          ],
          "text": "Calcium [Mass/volume] in Serum or Plasma"
        },
        "valueQuantity": {
          "system": "http://unitsofmeasure.org",
          "value": 9.7,
          "unit": "mg/dL",
          "code": "mg/dL"
        },
        "referenceRange": [
          {
            "low": {
              "value": 8.5,
              "code": "mg/dL",
              "system": "http://unitsofmeasure.org"
            }
          },
          {
            "high": {
              "value": 10.5,
              "code": "mg/dL",
              "system": "http://unitsofmeasure.org"
            }
          }
        ],
        "text": {
          "status": "generated",
          "div": "<div xmlns=\"http://www.w3.org/1999/xhtml\"><table class=\"hl7__eu__lab__report\"><tr><th>Test</th><th>20-Mar-2019</th><th>Reference&#xA0;Range</th><th>Unit</th></tr><tr><td>Calcium [Mass/volume] in Serum or Plasma</td><td>9.7</td><td>8.5 - 10.5</td><td></td><td>mg/dL</td></tr></table></div>"
        },
        "status": "final",
        "subject": {
          "reference": "urn:uuid:cd864572-6465-450d-b49d-31137942896b",
          "display": "Θεμιστοκλής Λιναρδάκη"
        },
        "effectiveDateTime": "2019-03-20T06:16:00Z",
        "specimen": {
          "reference": "urn:uuid:41bc1cb4-320d-49b3-831a-a1fab47187a6"
        }
      }
    },
    {
      "fullUrl": "urn:uuid:7e7a4fe3-f4f0-4f9f-b192-7b4216498149",
      "resource": {
        "resourceType": "Observation",
        "id": "7e7a4fe3-f4f0-4f9f-b192-7b4216498149",
        "meta": {
          "profile": [
            "http://hl7.eu/fhir/laboratory/StructureDefinition/Observation-resultslab-eu-lab"
          ]
        },
        "performer": [
          {
            "display": "The Central European Lab"
          }
        ],
        "category": [
          {
            "coding": [
              {
                "system": "http://terminology.hl7.org/CodeSystem/observation-category",
                "code": "laboratory"
              }
            ]
          }
        ],
        "code": {
          "coding": [
            {
              "code": "2951-2",
              "system": "http://loinc.org",
              "display": "Sodium [Moles/volume] in Serum or Plasma"
            }
          ],
          "text": "Sodium [Moles/volume] in Serum or Plasma"
        },
        "valueQuantity": {
          "system": "http://unitsofmeasure.org",
          "value": 141,
          "unit": "mmol/L",
          "code": "mmol/L"
        },
        "referenceRange": [
          {
            "low": {
              "value": 135,
              "code": "mmol/L",
              "system": "http://unitsofmeasure.org"
            }
          },
          {
            "high": {
              "value": 145,
              "code": "mmol/L",
              "system": "http://unitsofmeasure.org"
            }
          }
        ],
        "text": {
          "status": "generated",
          "div": "<div xmlns=\"http://www.w3.org/1999/xhtml\"><table class=\"hl7__eu__lab__report\"><tr><th>Test</th><th>20-Mar-2019</th><th>Reference&#xA0;Range</th><th>Unit</th></tr><tr><td>Sodium [Moles/volume] in Serum or Plasma</td><td>141.0</td><td>135 - 145</td><td></td><td>mmol/L</td></tr></table></div>"
        },
        "status": "final",
        "subject": {
          "reference": "urn:uuid:cd864572-6465-450d-b49d-31137942896b",
          "display": "Θεμιστοκλής Λιναρδάκη"
        },
        "effectiveDateTime": "2019-03-20T06:16:00Z",
        "specimen": {
          "reference": "urn:uuid:41bc1cb4-320d-49b3-831a-a1fab47187a6"
        }
      }
    },
    {
      "fullUrl": "urn:uuid:8bea9a89-5b19-404c-a638-6b1330a9d1a4",
      "resource": {
        "resourceType": "Observation",
        "id": "8bea9a89-5b19-404c-a638-6b1330a9d1a4",
        "meta": {
          "profile": [
            "http://hl7.eu/fhir/laboratory/StructureDefinition/Observation-resultslab-eu-lab"
          ]
        },
        "performer": [
          {
            "display": "The Central European Lab"
          }
        ],
        "category": [
          {
            "coding": [
              {
                "system": "http://terminology.hl7.org/CodeSystem/observation-category",
                "code": "laboratory"
              }
            ]
          }
        ],
        "code": {
          "coding": [
            {
              "code": "2823-3",
              "system": "http://loinc.org",
              "display": "Potassium [Moles/volume] in Serum or Plasma"
            }
          ],
          "text": "Potassium [Moles/volume] in Serum or Plasma"
        },
        "valueQuantity": {
          "system": "http://unitsofmeasure.org",
          "value": 4.1,
          "unit": "mmol/L",
          "code": "mmol/L"
        },
        "referenceRange": [
          {
            "low": {
              "value": 3.5,
              "code": "mmol/L",
              "system": "http://unitsofmeasure.org"
            }
          },
          {
            "high": {
              "value": 5,
              "code": "mmol/L",
              "system": "http://unitsofmeasure.org"
            }
          }
        ],
        "text": {
          "status": "generated",
          "div": "<div xmlns=\"http://www.w3.org/1999/xhtml\"><table class=\"hl7__eu__lab__report\"><tr><th>Test</th><th>20-Mar-2019</th><th>Reference&#xA0;Range</th><th>Unit</th></tr><tr><td>Potassium [Moles/volume] in Serum or Plasma</td><td>4.1</td><td>3.5 - 5</td><td></td><td>mmol/L</td></tr></table></div>"
        },
        "status": "final",
        "subject": {
          "reference": "urn:uuid:cd864572-6465-450d-b49d-31137942896b",
          "display": "Θεμιστοκλής Λιναρδάκη"
        },
        "effectiveDateTime": "2019-03-20T06:16:00Z",
        "specimen": {
          "reference": "urn:uuid:41bc1cb4-320d-49b3-831a-a1fab47187a6"
        }
      }
    },
    {
      "fullUrl": "urn:uuid:723b6cf2-3cfa-45f4-bcc6-b1fc7b4f37b7",
      "resource": {
        "resourceType": "Observation",
        "id": "723b6cf2-3cfa-45f4-bcc6-b1fc7b4f37b7",
        "meta": {
          "profile": [
            "http://hl7.eu/fhir/laboratory/StructureDefinition/Observation-resultslab-eu-lab"
          ]
        },
        "performer": [
          {
            "display": "The Central European Lab"
          }
        ],
        "category": [
          {
            "coding": [
              {
                "system": "http://terminology.hl7.org/CodeSystem/observation-category",
                "code": "laboratory"
              }
            ]
          }
        ],
        "code": {
          "coding": [
            {
              "code": "2075-0",
              "system": "http://loinc.org",
              "display": "Chloride [Moles/volume] in Serum or Plasma"
            }
          ],
          "text": "Chloride [Moles/volume] in Serum or Plasma"
        },
        "valueQuantity": {
          "system": "http://unitsofmeasure.org",
          "value": 106.8,
          "unit": "mmol/L",
          "code": "mmol/L"
        },
        "referenceRange": [
          {
            "low": {
              "value": 98,
              "code": "mmol/L",
              "system": "http://unitsofmeasure.org"
            }
          },
          {
            "high": {
              "value": 108,
              "code": "mmol/L",
              "system": "http://unitsofmeasure.org"
            }
          }
        ],
        "text": {
          "status": "generated",
          "div": "<div xmlns=\"http://www.w3.org/1999/xhtml\"><table class=\"hl7__eu__lab__report\"><tr><th>Test</th><th>20-Mar-2019</th><th>Reference&#xA0;Range</th><th>Unit</th></tr><tr><td>Chloride [Moles/volume] in Serum or Plasma</td><td>106.8</td><td>98 - 108</td><td></td><td>mmol/L</td></tr></table></div>"
        },
        "status": "final",
        "subject": {
          "reference": "urn:uuid:cd864572-6465-450d-b49d-31137942896b",
          "display": "Θεμιστοκλής Λιναρδάκη"
        },
        "effectiveDateTime": "2019-03-20T06:16:00Z",
        "specimen": {
          "reference": "urn:uuid:41bc1cb4-320d-49b3-831a-a1fab47187a6"
        }
      }
    },
    {
      "fullUrl": "urn:uuid:643cea22-8dfd-4130-9401-8e1268cc383f",
      "resource": {
        "resourceType": "Observation",
        "id": "643cea22-8dfd-4130-9401-8e1268cc383f",
        "meta": {
          "profile": [
            "http://hl7.eu/fhir/laboratory/StructureDefinition/Observation-resultslab-eu-lab"
          ]
        },
        "performer": [
          {
            "display": "The Central European Lab"
          }
        ],
        "category": [
          {
            "coding": [
              {
                "system": "http://terminology.hl7.org/CodeSystem/observation-category",
                "code": "laboratory"
              }
            ]
          }
        ],
        "code": {
          "coding": [
            {
              "code": "2028-9",
              "system": "http://loinc.org",
              "display": "Carbon dioxide, total [Moles/volume] in Serum or Plasma"
            }
          ],
          "text": "Carbon dioxide, total [Moles/volume] in Serum or Plasma"
        },
        "valueQuantity": {
          "system": "http://unitsofmeasure.org",
          "value": 25.5,
          "unit": "mmol/L",
          "code": "mmol/L"
        },
        "referenceRange": [
          {
            "low": {
              "value": 22,
              "code": "mmol/L",
              "system": "http://unitsofmeasure.org"
            }
          },
          {
            "high": {
              "value": 29,
              "code": "mmol/L",
              "system": "http://unitsofmeasure.org"
            }
          }
        ],
        "text": {
          "status": "generated",
          "div": "<div xmlns=\"http://www.w3.org/1999/xhtml\"><table class=\"hl7__eu__lab__report\"><tr><th>Test</th><th>20-Mar-2019</th><th>Reference&#xA0;Range</th><th>Unit</th></tr><tr><td>Carbon dioxide, total [Moles/volume] in Serum or Plasma</td><td>25.5</td><td>22 - 29</td><td></td><td>mmol/L</td></tr></table></div>"
        },
        "status": "final",
        "subject": {
          "reference": "urn:uuid:cd864572-6465-450d-b49d-31137942896b",
          "display": "Θεμιστοκλής Λιναρδάκη"
        },
        "effectiveDateTime": "2019-03-20T06:16:00Z",
        "specimen": {
          "reference": "urn:uuid:41bc1cb4-320d-49b3-831a-a1fab47187a6"
        }
      }
    },
    {
      "fullUrl": "urn:uuid:14d5625f-5655-46a0-99a7-e386f25ddc9a",
      "resource": {
        "resourceType": "Observation",
        "id": "14d5625f-5655-46a0-99a7-e386f25ddc9a",
        "meta": {
          "profile": [
            "http://hl7.eu/fhir/laboratory/StructureDefinition/Observation-resultslab-eu-lab"
          ]
        },
        "performer": [
          {
            "display": "The Central European Lab"
          }
        ],
        "category": [
          {
            "coding": [
              {
                "system": "http://terminology.hl7.org/CodeSystem/observation-category",
                "code": "laboratory"
              }
            ]
          }
        ],
        "code": {
          "coding": [
            {
              "code": "5767-9",
              "system": "http://loinc.org",
              "display": "Appearance of Urine"
            }
          ],
          "text": "Appearance of Urine"
        },
        "text": {
          "status": "generated",
          "div": "<div xmlns=\"http://www.w3.org/1999/xhtml\"><table class=\"hl7__eu__lab__report\"><tr><th>Test</th><th>20-Mar-2019</th><th>Reference&#xA0;Range</th><th>Unit</th></tr><tr><td>Appearance of Urine</td></tr></table></div>"
        },
        "status": "final",
        "subject": {
          "reference": "urn:uuid:cd864572-6465-450d-b49d-31137942896b",
          "display": "Θεμιστοκλής Λιναρδάκη"
        },
        "effectiveDateTime": "2019-03-20T06:16:00Z",
        "specimen": {
          "reference": "urn:uuid:f4cedffe-dc76-401d-a822-c0767422b90b"
        }
      }
    },
    {
      "fullUrl": "urn:uuid:9a7b9072-468d-4aef-8053-3ddc17afca04",
      "resource": {
        "resourceType": "Observation",
        "id": "9a7b9072-468d-4aef-8053-3ddc17afca04",
        "meta": {
          "profile": [
            "http://hl7.eu/fhir/laboratory/StructureDefinition/Observation-resultslab-eu-lab"
          ]
        },
        "performer": [
          {
            "display": "The Central European Lab"
          }
        ],
        "category": [
          {
            "coding": [
              {
                "system": "http://terminology.hl7.org/CodeSystem/observation-category",
                "code": "laboratory"
              }
            ]
          }
        ],
        "code": {
          "coding": [
            {
              "code": "34533-0",
              "system": "http://loinc.org",
              "display": "Odor of Urine"
            }
          ],
          "text": "Odor of Urine"
        },
        "text": {
          "status": "generated",
          "div": "<div xmlns=\"http://www.w3.org/1999/xhtml\"><table class=\"hl7__eu__lab__report\"><tr><th>Test</th><th>20-Mar-2019</th><th>Reference&#xA0;Range</th><th>Unit</th></tr><tr><td>Odor of Urine</td></tr></table></div>"
        },
        "status": "final",
        "subject": {
          "reference": "urn:uuid:cd864572-6465-450d-b49d-31137942896b",
          "display": "Θεμιστοκλής Λιναρδάκη"
        },
        "effectiveDateTime": "2019-03-20T06:16:00Z",
        "specimen": {
          "reference": "urn:uuid:f4cedffe-dc76-401d-a822-c0767422b90b"
        }
      }
    },
    {
      "fullUrl": "urn:uuid:4cd4a249-2c9d-42a3-9aed-1930c399d455",
      "resource": {
        "resourceType": "Observation",
        "id": "4cd4a249-2c9d-42a3-9aed-1930c399d455",
        "meta": {
          "profile": [
            "http://hl7.eu/fhir/laboratory/StructureDefinition/Observation-resultslab-eu-lab"
          ]
        },
        "performer": [
          {
            "display": "The Central European Lab"
          }
        ],
        "category": [
          {
            "coding": [
              {
                "system": "http://terminology.hl7.org/CodeSystem/observation-category",
                "code": "laboratory"
              }
            ]
          }
        ],
        "code": {
          "coding": [
            {
              "code": "32167-9",
              "system": "http://loinc.org",
              "display": "Clarity of Urine"
            }
          ],
          "text": "Clarity of Urine"
        },
        "text": {
          "status": "generated",
          "div": "<div xmlns=\"http://www.w3.org/1999/xhtml\"><table class=\"hl7__eu__lab__report\"><tr><th>Test</th><th>20-Mar-2019</th><th>Reference&#xA0;Range</th><th>Unit</th></tr><tr><td>Clarity of Urine</td></tr></table></div>"
        },
        "status": "final",
        "subject": {
          "reference": "urn:uuid:cd864572-6465-450d-b49d-31137942896b",
          "display": "Θεμιστοκλής Λιναρδάκη"
        },
        "effectiveDateTime": "2019-03-20T06:16:00Z",
        "specimen": {
          "reference": "urn:uuid:f4cedffe-dc76-401d-a822-c0767422b90b"
        }
      }
    },
    {
      "fullUrl": "urn:uuid:160737d9-6a97-4a1f-a91f-9c55e55866f4",
      "resource": {
        "resourceType": "Observation",
        "id": "160737d9-6a97-4a1f-a91f-9c55e55866f4",
        "meta": {
          "profile": [
            "http://hl7.eu/fhir/laboratory/StructureDefinition/Observation-resultslab-eu-lab"
          ]
        },
        "performer": [
          {
            "display": "The Central European Lab"
          }
        ],
        "category": [
          {
            "coding": [
              {
                "system": "http://terminology.hl7.org/CodeSystem/observation-category",
                "code": "laboratory"
              }
            ]
          }
        ],
        "code": {
          "coding": [
            {
              "code": "5778-6",
              "system": "http://loinc.org",
              "display": "Color of Urine"
            }
          ],
          "text": "Color of Urine"
        },
        "text": {
          "status": "generated",
          "div": "<div xmlns=\"http://www.w3.org/1999/xhtml\"><table class=\"hl7__eu__lab__report\"><tr><th>Test</th><th>20-Mar-2019</th><th>Reference&#xA0;Range</th><th>Unit</th></tr><tr><td>Color of Urine</td></tr></table></div>"
        },
        "status": "final",
        "subject": {
          "reference": "urn:uuid:cd864572-6465-450d-b49d-31137942896b",
          "display": "Θεμιστοκλής Λιναρδάκη"
        },
        "effectiveDateTime": "2019-03-20T06:16:00Z",
        "specimen": {
          "reference": "urn:uuid:f4cedffe-dc76-401d-a822-c0767422b90b"
        }
      }
    },
    {
      "fullUrl": "urn:uuid:636964dc-8694-4d9f-8742-2e6d23427f8e",
      "resource": {
        "resourceType": "Observation",
        "id": "636964dc-8694-4d9f-8742-2e6d23427f8e",
        "meta": {
          "profile": [
            "http://hl7.eu/fhir/laboratory/StructureDefinition/Observation-resultslab-eu-lab"
          ]
        },
        "performer": [
          {
            "display": "The Central European Lab"
          }
        ],
        "category": [
          {
            "coding": [
              {
                "system": "http://terminology.hl7.org/CodeSystem/observation-category",
                "code": "laboratory"
              }
            ]
          }
        ],
        "code": {
          "coding": [
            {
              "code": "5792-7",
              "system": "http://loinc.org",
              "display": "Glucose [Mass/volume] in Urine by Test strip"
            }
          ],
          "text": "Glucose [Mass/volume] in Urine by Test strip"
        },
        "valueQuantity": {
          "system": "http://unitsofmeasure.org",
          "value": 0.8,
          "unit": "mg/dL",
          "code": "mg/dL"
        },
        "referenceRange": [
          {
            "low": {
              "value": 0,
              "code": "mg/dL",
              "system": "http://unitsofmeasure.org"
            }
          },
          {
            "high": {
              "value": 0.8,
              "code": "mg/dL",
              "system": "http://unitsofmeasure.org"
            }
          }
        ],
        "text": {
          "status": "generated",
          "div": "<div xmlns=\"http://www.w3.org/1999/xhtml\"><table class=\"hl7__eu__lab__report\"><tr><th>Test</th><th>20-Mar-2019</th><th>Reference&#xA0;Range</th><th>Unit</th></tr><tr><td>Glucose [Mass/volume] in Urine by Test strip</td><td>0.8</td><td>0 - 0.8</td><td></td><td>mg/dL</td></tr></table></div>"
        },
        "status": "final",
        "subject": {
          "reference": "urn:uuid:cd864572-6465-450d-b49d-31137942896b",
          "display": "Θεμιστοκλής Λιναρδάκη"
        },
        "effectiveDateTime": "2019-03-20T06:16:00Z",
        "specimen": {
          "reference": "urn:uuid:f4cedffe-dc76-401d-a822-c0767422b90b"
        }
      }
    },
    {
      "fullUrl": "urn:uuid:f1ffd436-9773-4da8-ae9d-1f83eaae5302",
      "resource": {
        "resourceType": "Observation",
        "id": "f1ffd436-9773-4da8-ae9d-1f83eaae5302",
        "meta": {
          "profile": [
            "http://hl7.eu/fhir/laboratory/StructureDefinition/Observation-resultslab-eu-lab"
          ]
        },
        "performer": [
          {
            "display": "The Central European Lab"
          }
        ],
        "category": [
          {
            "coding": [
              {
                "system": "http://terminology.hl7.org/CodeSystem/observation-category",
                "code": "laboratory"
              }
            ]
          }
        ],
        "code": {
          "coding": [
            {
              "code": "25428-4",
              "system": "http://loinc.org",
              "display": "Glucose [Presence] in Urine by Test strip"
            }
          ],
          "text": "Glucose [Presence] in Urine by Test strip"
        },
        "text": {
          "status": "generated",
          "div": "<div xmlns=\"http://www.w3.org/1999/xhtml\"><table class=\"hl7__eu__lab__report\"><tr><th>Test</th><th>20-Mar-2019</th><th>Reference&#xA0;Range</th><th>Unit</th></tr><tr><td>Glucose [Presence] in Urine by Test strip</td></tr></table></div>"
        },
        "status": "final",
        "subject": {
          "reference": "urn:uuid:cd864572-6465-450d-b49d-31137942896b",
          "display": "Θεμιστοκλής Λιναρδάκη"
        },
        "effectiveDateTime": "2019-03-20T06:16:00Z",
        "specimen": {
          "reference": "urn:uuid:f4cedffe-dc76-401d-a822-c0767422b90b"
        }
      }
    },
    {
      "fullUrl": "urn:uuid:a3d08ceb-2953-4e0d-ae12-ed21d684f1fa",
      "resource": {
        "resourceType": "Observation",
        "id": "a3d08ceb-2953-4e0d-ae12-ed21d684f1fa",
        "meta": {
          "profile": [
            "http://hl7.eu/fhir/laboratory/StructureDefinition/Observation-resultslab-eu-lab"
          ]
        },
        "performer": [
          {
            "display": "The Central European Lab"
          }
        ],
        "category": [
          {
            "coding": [
              {
                "system": "http://terminology.hl7.org/CodeSystem/observation-category",
                "code": "laboratory"
              }
            ]
          }
        ],
        "code": {
          "coding": [
            {
              "code": "20505-4",
              "system": "http://loinc.org",
              "display": "Bilirubin.total [Mass/volume] in Urine by Test strip"
            }
          ],
          "text": "Bilirubin.total [Mass/volume] in Urine by Test strip"
        },
        "valueQuantity": {
          "system": "http://unitsofmeasure.org",
          "value": 0.7,
          "unit": "mg/dL",
          "code": "mg/dL"
        },
        "referenceRange": [
          {
            "low": {
              "value": 0.2,
              "code": "mg/dL",
              "system": "http://unitsofmeasure.org"
            }
          },
          {
            "high": {
              "value": 1,
              "code": "mg/dL",
              "system": "http://unitsofmeasure.org"
            }
          }
        ],
        "text": {
          "status": "generated",
          "div": "<div xmlns=\"http://www.w3.org/1999/xhtml\"><table class=\"hl7__eu__lab__report\"><tr><th>Test</th><th>20-Mar-2019</th><th>Reference&#xA0;Range</th><th>Unit</th></tr><tr><td>Bilirubin.total [Mass/volume] in Urine by Test strip</td><td>0.7</td><td>0.2 - 1</td><td></td><td>mg/dL</td></tr></table></div>"
        },
        "status": "final",
        "subject": {
          "reference": "urn:uuid:cd864572-6465-450d-b49d-31137942896b",
          "display": "Θεμιστοκλής Λιναρδάκη"
        },
        "effectiveDateTime": "2019-03-20T06:16:00Z",
        "specimen": {
          "reference": "urn:uuid:f4cedffe-dc76-401d-a822-c0767422b90b"
        }
      }
    },
    {
      "fullUrl": "urn:uuid:e563cfeb-15cf-4e5f-b4bc-b942e1bbccd7",
      "resource": {
        "resourceType": "Observation",
        "id": "e563cfeb-15cf-4e5f-b4bc-b942e1bbccd7",
        "meta": {
          "profile": [
            "http://hl7.eu/fhir/laboratory/StructureDefinition/Observation-resultslab-eu-lab"
          ]
        },
        "performer": [
          {
            "display": "The Central European Lab"
          }
        ],
        "category": [
          {
            "coding": [
              {
                "system": "http://terminology.hl7.org/CodeSystem/observation-category",
                "code": "laboratory"
              }
            ]
          }
        ],
        "code": {
          "coding": [
            {
              "code": "5770-3",
              "system": "http://loinc.org",
              "display": "Bilirubin.total [Presence] in Urine by Test strip"
            }
          ],
          "text": "Bilirubin.total [Presence] in Urine by Test strip"
        },
        "text": {
          "status": "generated",
          "div": "<div xmlns=\"http://www.w3.org/1999/xhtml\"><table class=\"hl7__eu__lab__report\"><tr><th>Test</th><th>20-Mar-2019</th><th>Reference&#xA0;Range</th><th>Unit</th></tr><tr><td>Bilirubin.total [Presence] in Urine by Test strip</td></tr></table></div>"
        },
        "status": "final",
        "subject": {
          "reference": "urn:uuid:cd864572-6465-450d-b49d-31137942896b",
          "display": "Θεμιστοκλής Λιναρδάκη"
        },
        "effectiveDateTime": "2019-03-20T06:16:00Z",
        "specimen": {
          "reference": "urn:uuid:f4cedffe-dc76-401d-a822-c0767422b90b"
        }
      }
    },
    {
      "fullUrl": "urn:uuid:d3629fad-72f7-4a40-92f1-bfcfba6a9df4",
      "resource": {
        "resourceType": "Observation",
        "id": "d3629fad-72f7-4a40-92f1-bfcfba6a9df4",
        "meta": {
          "profile": [
            "http://hl7.eu/fhir/laboratory/StructureDefinition/Observation-resultslab-eu-lab"
          ]
        },
        "performer": [
          {
            "display": "The Central European Lab"
          }
        ],
        "category": [
          {
            "coding": [
              {
                "system": "http://terminology.hl7.org/CodeSystem/observation-category",
                "code": "laboratory"
              }
            ]
          }
        ],
        "code": {
          "coding": [
            {
              "code": "5797-6",
              "system": "http://loinc.org",
              "display": "Ketones [Mass/volume] in Urine by Test strip"
            }
          ],
          "text": "Ketones [Mass/volume] in Urine by Test strip"
        },
        "valueQuantity": {
          "system": "http://unitsofmeasure.org",
          "value": 14.7,
          "unit": "mg/dL",
          "code": "mg/dL"
        },
        "referenceRange": [
          {
            "low": {
              "value": 0,
              "code": "mg/dL",
              "system": "http://unitsofmeasure.org"
            }
          },
          {
            "high": {
              "value": 5,
              "code": "mg/dL",
              "system": "http://unitsofmeasure.org"
            }
          }
        ],
        "interpretation": [
          {
            "coding": [
              {
                "code": "H",
                "system": "http://terminology.hl7.org/CodeSystem/v3-ObservationInterpretation",
                "display": "High"
              }
            ]
          }
        ],
        "text": {
          "status": "generated",
          "div": "<div xmlns=\"http://www.w3.org/1999/xhtml\"><table class=\"hl7__eu__lab__report\"><tr><th>Test</th><th>20-Mar-2019</th><th>Reference&#xA0;Range</th><th>Unit</th></tr><tr><td>Ketones [Mass/volume] in Urine by Test strip</td><td>14.7</td><td>0 - 5</td><td>H</td><td>mg/dL</td></tr></table></div>"
        },
        "status": "final",
        "subject": {
          "reference": "urn:uuid:cd864572-6465-450d-b49d-31137942896b",
          "display": "Θεμιστοκλής Λιναρδάκη"
        },
        "effectiveDateTime": "2019-03-20T06:16:00Z",
        "specimen": {
          "reference": "urn:uuid:f4cedffe-dc76-401d-a822-c0767422b90b"
        }
      }
    },
    {
      "fullUrl": "urn:uuid:24df9186-bcbb-45b3-b00c-10f45c1dc2cf",
      "resource": {
        "resourceType": "Observation",
        "id": "24df9186-bcbb-45b3-b00c-10f45c1dc2cf",
        "meta": {
          "profile": [
            "http://hl7.eu/fhir/laboratory/StructureDefinition/Observation-resultslab-eu-lab"
          ]
        },
        "performer": [
          {
            "display": "The Central European Lab"
          }
        ],
        "category": [
          {
            "coding": [
              {
                "system": "http://terminology.hl7.org/CodeSystem/observation-category",
                "code": "laboratory"
              }
            ]
          }
        ],
        "code": {
          "coding": [
            {
              "code": "2514-8",
              "system": "http://loinc.org",
              "display": "Ketones [Presence] in Urine by Test strip"
            }
          ],
          "text": "Ketones [Presence] in Urine by Test strip"
        },
        "text": {
          "status": "generated",
          "div": "<div xmlns=\"http://www.w3.org/1999/xhtml\"><table class=\"hl7__eu__lab__report\"><tr><th>Test</th><th>20-Mar-2019</th><th>Reference&#xA0;Range</th><th>Unit</th></tr><tr><td>Ketones [Presence] in Urine by Test strip</td></tr></table></div>"
        },
        "status": "final",
        "subject": {
          "reference": "urn:uuid:cd864572-6465-450d-b49d-31137942896b",
          "display": "Θεμιστοκλής Λιναρδάκη"
        },
        "effectiveDateTime": "2019-03-20T06:16:00Z",
        "specimen": {
          "reference": "urn:uuid:f4cedffe-dc76-401d-a822-c0767422b90b"
        }
      }
    },
    {
      "fullUrl": "urn:uuid:0770b31e-2b9d-4c06-95b3-169373412cd1",
      "resource": {
        "resourceType": "Observation",
        "id": "0770b31e-2b9d-4c06-95b3-169373412cd1",
        "meta": {
          "profile": [
            "http://hl7.eu/fhir/laboratory/StructureDefinition/Observation-resultslab-eu-lab"
          ]
        },
        "performer": [
          {
            "display": "The Central European Lab"
          }
        ],
        "category": [
          {
            "coding": [
              {
                "system": "http://terminology.hl7.org/CodeSystem/observation-category",
                "code": "laboratory"
              }
            ]
          }
        ],
        "code": {
          "coding": [
            {
              "code": "5811-5",
              "system": "http://loinc.org",
              "display": "Specific gravity of Urine by Test strip"
            }
          ],
          "text": "Specific gravity of Urine by Test strip"
        },
        "valueQuantity": {
          "system": "http://unitsofmeasure.org",
          "value": 1,
          "unit": "{nominal}",
          "code": "{nominal}"
        },
        "referenceRange": [
          {
            "low": {
              "value": 1.005,
              "code": "g/mL",
              "system": "http://unitsofmeasure.org"
            }
          },
          {
            "high": {
              "value": 1.03,
              "code": "g/mL",
              "system": "http://unitsofmeasure.org"
            }
          }
        ],
        "interpretation": [
          {
            "coding": [
              {
                "code": "L",
                "system": "http://terminology.hl7.org/CodeSystem/v3-ObservationInterpretation",
                "display": "Low"
              }
            ]
          }
        ],
        "text": {
          "status": "generated",
          "div": "<div xmlns=\"http://www.w3.org/1999/xhtml\"><table class=\"hl7__eu__lab__report\"><tr><th>Test</th><th>20-Mar-2019</th><th>Reference&#xA0;Range</th><th>Unit</th></tr><tr><td>Specific gravity of Urine by Test strip</td><td>1.0</td><td>1.005 - 1.03</td><td>L</td><td>{nominal}</td></tr></table></div>"
        },
        "status": "final",
        "subject": {
          "reference": "urn:uuid:cd864572-6465-450d-b49d-31137942896b",
          "display": "Θεμιστοκλής Λιναρδάκη"
        },
        "effectiveDateTime": "2019-03-20T06:16:00Z",
        "specimen": {
          "reference": "urn:uuid:f4cedffe-dc76-401d-a822-c0767422b90b"
        }
      }
    },
    {
      "fullUrl": "urn:uuid:8c9ace98-e033-4db3-bd7d-26c22413b860",
      "resource": {
        "resourceType": "Observation",
        "id": "8c9ace98-e033-4db3-bd7d-26c22413b860",
        "meta": {
          "profile": [
            "http://hl7.eu/fhir/laboratory/StructureDefinition/Observation-resultslab-eu-lab"
          ]
        },
        "performer": [
          {
            "display": "The Central European Lab"
          }
        ],
        "category": [
          {
            "coding": [
              {
                "system": "http://terminology.hl7.org/CodeSystem/observation-category",
                "code": "laboratory"
              }
            ]
          }
        ],
        "code": {
          "coding": [
            {
              "code": "5803-2",
              "system": "http://loinc.org",
              "display": "pH of Urine by Test strip"
            }
          ],
          "text": "pH of Urine by Test strip"
        },
        "valueQuantity": {
          "system": "http://unitsofmeasure.org",
          "value": 6.2,
          "unit": "pH",
          "code": "pH"
        },
        "referenceRange": [
          {
            "low": {
              "value": 4.6,
              "code": "pH",
              "system": "http://unitsofmeasure.org"
            }
          },
          {
            "high": {
              "value": 7,
              "code": "pH",
              "system": "http://unitsofmeasure.org"
            }
          }
        ],
        "text": {
          "status": "generated",
          "div": "<div xmlns=\"http://www.w3.org/1999/xhtml\"><table class=\"hl7__eu__lab__report\"><tr><th>Test</th><th>20-Mar-2019</th><th>Reference&#xA0;Range</th><th>Unit</th></tr><tr><td>pH of Urine by Test strip</td><td>6.2</td><td>4.6 - 7</td><td></td><td>pH</td></tr></table></div>"
        },
        "status": "final",
        "subject": {
          "reference": "urn:uuid:cd864572-6465-450d-b49d-31137942896b",
          "display": "Θεμιστοκλής Λιναρδάκη"
        },
        "effectiveDateTime": "2019-03-20T06:16:00Z",
        "specimen": {
          "reference": "urn:uuid:f4cedffe-dc76-401d-a822-c0767422b90b"
        }
      }
    },
    {
      "fullUrl": "urn:uuid:9d2b9266-d033-404f-b6f7-90090cae5589",
      "resource": {
        "resourceType": "Observation",
        "id": "9d2b9266-d033-404f-b6f7-90090cae5589",
        "meta": {
          "profile": [
            "http://hl7.eu/fhir/laboratory/StructureDefinition/Observation-resultslab-eu-lab"
          ]
        },
        "performer": [
          {
            "display": "The Central European Lab"
          }
        ],
        "category": [
          {
            "coding": [
              {
                "system": "http://terminology.hl7.org/CodeSystem/observation-category",
                "code": "laboratory"
              }
            ]
          }
        ],
        "code": {
          "coding": [
            {
              "code": "5804-0",
              "system": "http://loinc.org",
              "display": "Protein [Mass/volume] in Urine by Test strip"
            }
          ],
          "text": "Protein [Mass/volume] in Urine by Test strip"
        },
        "valueQuantity": {
          "system": "http://unitsofmeasure.org",
          "value": 327.7,
          "unit": "mg/dL",
          "code": "mg/dL"
        },
        "referenceRange": [
          {
            "low": {
              "value": 0,
              "code": "mg/dL",
              "system": "http://unitsofmeasure.org"
            }
          },
          {
            "high": {
              "value": 150,
              "code": "mg/dL",
              "system": "http://unitsofmeasure.org"
            }
          }
        ],
        "interpretation": [
          {
            "coding": [
              {
                "code": "H",
                "system": "http://terminology.hl7.org/CodeSystem/v3-ObservationInterpretation",
                "display": "High"
              }
            ]
          }
        ],
        "text": {
          "status": "generated",
          "div": "<div xmlns=\"http://www.w3.org/1999/xhtml\"><table class=\"hl7__eu__lab__report\"><tr><th>Test</th><th>20-Mar-2019</th><th>Reference&#xA0;Range</th><th>Unit</th></tr><tr><td>Protein [Mass/volume] in Urine by Test strip</td><td>327.7</td><td>0 - 150</td><td>H</td><td>mg/dL</td></tr></table></div>"
        },
        "status": "final",
        "subject": {
          "reference": "urn:uuid:cd864572-6465-450d-b49d-31137942896b",
          "display": "Θεμιστοκλής Λιναρδάκη"
        },
        "effectiveDateTime": "2019-03-20T06:16:00Z",
        "specimen": {
          "reference": "urn:uuid:f4cedffe-dc76-401d-a822-c0767422b90b"
        }
      }
    },
    {
      "fullUrl": "urn:uuid:d7979a7d-65cb-42cb-95b9-2e6c5498ecf2",
      "resource": {
        "resourceType": "Observation",
        "id": "d7979a7d-65cb-42cb-95b9-2e6c5498ecf2",
        "meta": {
          "profile": [
            "http://hl7.eu/fhir/laboratory/StructureDefinition/Observation-resultslab-eu-lab"
          ]
        },
        "performer": [
          {
            "display": "The Central European Lab"
          }
        ],
        "category": [
          {
            "coding": [
              {
                "system": "http://terminology.hl7.org/CodeSystem/observation-category",
                "code": "laboratory"
              }
            ]
          }
        ],
        "code": {
          "coding": [
            {
              "code": "20454-5",
              "system": "http://loinc.org",
              "display": "Protein [Presence] in Urine by Test strip"
            }
          ],
          "text": "Protein [Presence] in Urine by Test strip"
        },
        "text": {
          "status": "generated",
          "div": "<div xmlns=\"http://www.w3.org/1999/xhtml\"><table class=\"hl7__eu__lab__report\"><tr><th>Test</th><th>20-Mar-2019</th><th>Reference&#xA0;Range</th><th>Unit</th></tr><tr><td>Protein [Presence] in Urine by Test strip</td></tr></table></div>"
        },
        "status": "final",
        "subject": {
          "reference": "urn:uuid:cd864572-6465-450d-b49d-31137942896b",
          "display": "Θεμιστοκλής Λιναρδάκη"
        },
        "effectiveDateTime": "2019-03-20T06:16:00Z",
        "specimen": {
          "reference": "urn:uuid:f4cedffe-dc76-401d-a822-c0767422b90b"
        }
      }
    },
    {
      "fullUrl": "urn:uuid:573eca4a-95db-4a8a-bc98-8b0e861477f9",
      "resource": {
        "resourceType": "Observation",
        "id": "573eca4a-95db-4a8a-bc98-8b0e861477f9",
        "meta": {
          "profile": [
            "http://hl7.eu/fhir/laboratory/StructureDefinition/Observation-resultslab-eu-lab"
          ]
        },
        "performer": [
          {
            "display": "The Central European Lab"
          }
        ],
        "category": [
          {
            "coding": [
              {
                "system": "http://terminology.hl7.org/CodeSystem/observation-category",
                "code": "laboratory"
              }
            ]
          }
        ],
        "code": {
          "coding": [
            {
              "code": "5802-4",
              "system": "http://loinc.org",
              "display": "Nitrite [Presence] in Urine by Test strip"
            }
          ],
          "text": "Nitrite [Presence] in Urine by Test strip"
        },
        "text": {
          "status": "generated",
          "div": "<div xmlns=\"http://www.w3.org/1999/xhtml\"><table class=\"hl7__eu__lab__report\"><tr><th>Test</th><th>20-Mar-2019</th><th>Reference&#xA0;Range</th><th>Unit</th></tr><tr><td>Nitrite [Presence] in Urine by Test strip</td></tr></table></div>"
        },
        "status": "final",
        "subject": {
          "reference": "urn:uuid:cd864572-6465-450d-b49d-31137942896b",
          "display": "Θεμιστοκλής Λιναρδάκη"
        },
        "effectiveDateTime": "2019-03-20T06:16:00Z",
        "specimen": {
          "reference": "urn:uuid:f4cedffe-dc76-401d-a822-c0767422b90b"
        }
      }
    },
    {
      "fullUrl": "urn:uuid:2ef0ab4a-3282-49b1-8fd6-4748edd40b2b",
      "resource": {
        "resourceType": "Observation",
        "id": "2ef0ab4a-3282-49b1-8fd6-4748edd40b2b",
        "meta": {
          "profile": [
            "http://hl7.eu/fhir/laboratory/StructureDefinition/Observation-resultslab-eu-lab"
          ]
        },
        "performer": [
          {
            "display": "The Central European Lab"
          }
        ],
        "category": [
          {
            "coding": [
              {
                "system": "http://terminology.hl7.org/CodeSystem/observation-category",
                "code": "laboratory"
              }
            ]
          }
        ],
        "code": {
          "coding": [
            {
              "code": "5794-3",
              "system": "http://loinc.org",
              "display": "Hemoglobin [Presence] in Urine by Test strip"
            }
          ],
          "text": "Hemoglobin [Presence] in Urine by Test strip"
        },
        "text": {
          "status": "generated",
          "div": "<div xmlns=\"http://www.w3.org/1999/xhtml\"><table class=\"hl7__eu__lab__report\"><tr><th>Test</th><th>20-Mar-2019</th><th>Reference&#xA0;Range</th><th>Unit</th></tr><tr><td>Hemoglobin [Presence] in Urine by Test strip</td></tr></table></div>"
        },
        "status": "final",
        "subject": {
          "reference": "urn:uuid:cd864572-6465-450d-b49d-31137942896b",
          "display": "Θεμιστοκλής Λιναρδάκη"
        },
        "effectiveDateTime": "2019-03-20T06:16:00Z",
        "specimen": {
          "reference": "urn:uuid:f4cedffe-dc76-401d-a822-c0767422b90b"
        }
      }
    },
    {
      "fullUrl": "urn:uuid:9b95f544-ff1c-4de0-9315-d28289565bc7",
      "resource": {
        "resourceType": "Observation",
        "id": "9b95f544-ff1c-4de0-9315-d28289565bc7",
        "meta": {
          "profile": [
            "http://hl7.eu/fhir/laboratory/StructureDefinition/Observation-resultslab-eu-lab"
          ]
        },
        "performer": [
          {
            "display": "The Central European Lab"
          }
        ],
        "category": [
          {
            "coding": [
              {
                "system": "http://terminology.hl7.org/CodeSystem/observation-category",
                "code": "laboratory"
              }
            ]
          }
        ],
        "code": {
          "coding": [
            {
              "code": "5799-2",
              "system": "http://loinc.org",
              "display": "Leukocyte esterase [Presence] in Urine by Test strip"
            }
          ],
          "text": "Leukocyte esterase [Presence] in Urine by Test strip"
        },
        "text": {
          "status": "generated",
          "div": "<div xmlns=\"http://www.w3.org/1999/xhtml\"><table class=\"hl7__eu__lab__report\"><tr><th>Test</th><th>20-Mar-2019</th><th>Reference&#xA0;Range</th><th>Unit</th></tr><tr><td>Leukocyte esterase [Presence] in Urine by Test strip</td></tr></table></div>"
        },
        "status": "final",
        "subject": {
          "reference": "urn:uuid:cd864572-6465-450d-b49d-31137942896b",
          "display": "Θεμιστοκλής Λιναρδάκη"
        },
        "effectiveDateTime": "2019-03-20T06:16:00Z",
        "specimen": {
          "reference": "urn:uuid:f4cedffe-dc76-401d-a822-c0767422b90b"
        }
      }
    },
    {
      "fullUrl": "urn:uuid:62d07ace-5b6b-4640-910e-59598994d4c6",
      "resource": {
        "resourceType": "Observation",
        "id": "62d07ace-5b6b-4640-910e-59598994d4c6",
        "meta": {
          "profile": [
            "http://hl7.eu/fhir/laboratory/StructureDefinition/Observation-resultslab-eu-lab"
          ]
        },
        "performer": [
          {
            "display": "The Central European Lab"
          }
        ],
        "category": [
          {
            "coding": [
              {
                "system": "http://terminology.hl7.org/CodeSystem/observation-category",
                "code": "laboratory"
              }
            ]
          }
        ],
        "code": {
          "coding": [
            {
              "code": "4548-4",
              "system": "http://loinc.org",
              "display": "Hemoglobin A1c/Hemoglobin.total in Blood"
            }
          ],
          "text": "Hemoglobin A1c/Hemoglobin.total in Blood"
        },
        "valueQuantity": {
          "system": "http://unitsofmeasure.org",
          "value": 3.2,
          "unit": "%",
          "code": "%"
        },
        "referenceRange": [
          {
            "low": {
              "value": 4.3,
              "code": "%",
              "system": "http://unitsofmeasure.org"
            }
          },
          {
            "high": {
              "value": 6.4,
              "code": "%",
              "system": "http://unitsofmeasure.org"
            }
          }
        ],
        "interpretation": [
          {
            "coding": [
              {
                "code": "L",
                "system": "http://terminology.hl7.org/CodeSystem/v3-ObservationInterpretation",
                "display": "Low"
              }
            ]
          }
        ],
        "text": {
          "status": "generated",
          "div": "<div xmlns=\"http://www.w3.org/1999/xhtml\"><table class=\"hl7__eu__lab__report\"><tr><th>Test</th><th>20-Mar-2019</th><th>Reference&#xA0;Range</th><th>Unit</th></tr><tr><td>Hemoglobin A1c/Hemoglobin.total in Blood</td><td>3.2</td><td>4.3 - 6.4</td><td>L</td><td>%</td></tr></table></div>"
        },
        "status": "final",
        "subject": {
          "reference": "urn:uuid:cd864572-6465-450d-b49d-31137942896b",
          "display": "Θεμιστοκλής Λιναρδάκη"
        },
        "effectiveDateTime": "2019-03-20T06:16:00Z",
        "specimen": {
          "reference": "urn:uuid:3e9f1fc7-b262-4620-89d2-52f6e0c02a67"
        }
      }
    },
    {
      "fullUrl": "urn:uuid:00595b40-f59e-4e5e-a7df-2548c240c1f7",
      "resource": {
        "resourceType": "Observation",
        "id": "00595b40-f59e-4e5e-a7df-2548c240c1f7",
        "meta": {
          "profile": [
            "http://hl7.eu/fhir/laboratory/StructureDefinition/Observation-resultslab-eu-lab"
          ]
        },
        "performer": [
          {
            "display": "The Central European Lab"
          }
        ],
        "category": [
          {
            "coding": [
              {
                "system": "http://terminology.hl7.org/CodeSystem/observation-category",
                "code": "laboratory"
              }
            ]
          }
        ],
        "code": {
          "coding": [
            {
              "code": "2339-0",
              "system": "http://loinc.org",
              "display": "Glucose [Mass/volume] in Blood"
            }
          ],
          "text": "Glucose [Mass/volume] in Blood"
        },
        "valueQuantity": {
          "system": "http://unitsofmeasure.org",
          "value": 81.1,
          "unit": "mg/dL",
          "code": "mg/dL"
        },
        "referenceRange": [
          {
            "low": {
              "value": 70,
              "code": "mg/dL",
              "system": "http://unitsofmeasure.org"
            }
          },
          {
            "high": {
              "value": 140,
              "code": "mg/dL",
              "system": "http://unitsofmeasure.org"
            }
          }
        ],
        "text": {
          "status": "generated",
          "div": "<div xmlns=\"http://www.w3.org/1999/xhtml\"><table class=\"hl7__eu__lab__report\"><tr><th>Test</th><th>20-Mar-2019</th><th>Reference&#xA0;Range</th><th>Unit</th></tr><tr><td>Glucose [Mass/volume] in Blood</td><td>81.1</td><td>70 - 140</td><td></td><td>mg/dL</td></tr></table></div>"
        },
        "status": "final",
        "subject": {
          "reference": "urn:uuid:cd864572-6465-450d-b49d-31137942896b",
          "display": "Θεμιστοκλής Λιναρδάκη"
        },
        "effectiveDateTime": "2019-03-20T06:16:00Z",
        "specimen": {
          "reference": "urn:uuid:3e9f1fc7-b262-4620-89d2-52f6e0c02a67"
        }
      }
    },
    {
      "fullUrl": "urn:uuid:bfd15747-991e-4d93-956c-93915437fa7b",
      "resource": {
        "resourceType": "Observation",
        "id": "bfd15747-991e-4d93-956c-93915437fa7b",
        "meta": {
          "profile": [
            "http://hl7.eu/fhir/laboratory/StructureDefinition/Observation-resultslab-eu-lab"
          ]
        },
        "performer": [
          {
            "display": "The Central European Lab"
          }
        ],
        "category": [
          {
            "coding": [
              {
                "system": "http://terminology.hl7.org/CodeSystem/observation-category",
                "code": "laboratory"
              }
            ]
          }
        ],
        "code": {
          "coding": [
            {
              "code": "6299-2",
              "system": "http://loinc.org",
              "display": "Urea nitrogen [Mass/volume] in Blood"
            }
          ],
          "text": "Urea nitrogen [Mass/volume] in Blood"
        },
        "valueQuantity": {
          "system": "http://unitsofmeasure.org",
          "value": 15.3,
          "unit": "mg/dL",
          "code": "mg/dL"
        },
        "referenceRange": [
          {
            "low": {
              "value": 7,
              "code": "mg/dL",
              "system": "http://unitsofmeasure.org"
            }
          },
          {
            "high": {
              "value": 20,
              "code": "mg/dL",
              "system": "http://unitsofmeasure.org"
            }
          }
        ],
        "text": {
          "status": "generated",
          "div": "<div xmlns=\"http://www.w3.org/1999/xhtml\"><table class=\"hl7__eu__lab__report\"><tr><th>Test</th><th>20-Mar-2019</th><th>Reference&#xA0;Range</th><th>Unit</th></tr><tr><td>Urea nitrogen [Mass/volume] in Blood</td><td>15.3</td><td>7 - 20</td><td></td><td>mg/dL</td></tr></table></div>"
        },
        "status": "final",
        "subject": {
          "reference": "urn:uuid:cd864572-6465-450d-b49d-31137942896b",
          "display": "Θεμιστοκλής Λιναρδάκη"
        },
        "effectiveDateTime": "2019-03-20T06:16:00Z",
        "specimen": {
          "reference": "urn:uuid:3e9f1fc7-b262-4620-89d2-52f6e0c02a67"
        }
      }
    },
    {
      "fullUrl": "urn:uuid:1ebe8768-86c9-4d3f-8796-3e6eb2e78682",
      "resource": {
        "resourceType": "Observation",
        "id": "1ebe8768-86c9-4d3f-8796-3e6eb2e78682",
        "meta": {
          "profile": [
            "http://hl7.eu/fhir/laboratory/StructureDefinition/Observation-resultslab-eu-lab"
          ]
        },
        "performer": [
          {
            "display": "The Central European Lab"
          }
        ],
        "category": [
          {
            "coding": [
              {
                "system": "http://terminology.hl7.org/CodeSystem/observation-category",
                "code": "laboratory"
              }
            ]
          }
        ],
        "code": {
          "coding": [
            {
              "code": "38483-4",
              "system": "http://loinc.org",
              "display": "Creatinine [Mass/volume] in Blood"
            }
          ],
          "text": "Creatinine [Mass/volume] in Blood"
        },
        "valueQuantity": {
          "system": "http://unitsofmeasure.org",
          "value": 7.7,
          "unit": "mg/dL",
          "code": "mg/dL"
        },
        "referenceRange": [
          {
            "low": {
              "value": 0.6,
              "code": "mg/dL",
              "system": "http://unitsofmeasure.org"
            }
          },
          {
            "high": {
              "value": 1.3,
              "code": "mg/dL",
              "system": "http://unitsofmeasure.org"
            }
          }
        ],
        "interpretation": [
          {
            "coding": [
              {
                "code": "H",
                "system": "http://terminology.hl7.org/CodeSystem/v3-ObservationInterpretation",
                "display": "High"
              }
            ]
          }
        ],
        "text": {
          "status": "generated",
          "div": "<div xmlns=\"http://www.w3.org/1999/xhtml\"><table class=\"hl7__eu__lab__report\"><tr><th>Test</th><th>20-Mar-2019</th><th>Reference&#xA0;Range</th><th>Unit</th></tr><tr><td>Creatinine [Mass/volume] in Blood</td><td>7.7</td><td>0.6 - 1.3</td><td>H</td><td>mg/dL</td></tr></table></div>"
        },
        "status": "final",
        "subject": {
          "reference": "urn:uuid:cd864572-6465-450d-b49d-31137942896b",
          "display": "Θεμιστοκλής Λιναρδάκη"
        },
        "effectiveDateTime": "2019-03-20T06:16:00Z",
        "specimen": {
          "reference": "urn:uuid:3e9f1fc7-b262-4620-89d2-52f6e0c02a67"
        }
      }
    },
    {
      "fullUrl": "urn:uuid:b1166f21-5732-479c-8bfb-97b8ffad864e",
      "resource": {
        "resourceType": "Observation",
        "id": "b1166f21-5732-479c-8bfb-97b8ffad864e",
        "meta": {
          "profile": [
            "http://hl7.eu/fhir/laboratory/StructureDefinition/Observation-resultslab-eu-lab"
          ]
        },
        "performer": [
          {
            "display": "The Central European Lab"
          }
        ],
        "category": [
          {
            "coding": [
              {
                "system": "http://terminology.hl7.org/CodeSystem/observation-category",
                "code": "laboratory"
              }
            ]
          }
        ],
        "code": {
          "coding": [
            {
              "code": "49765-1",
              "system": "http://loinc.org",
              "display": "Calcium [Mass/volume] in Blood"
            }
          ],
          "text": "Calcium [Mass/volume] in Blood"
        },
        "valueQuantity": {
          "system": "http://unitsofmeasure.org",
          "value": 9.7,
          "unit": "mg/dL",
          "code": "mg/dL"
        },
        "referenceRange": [
          {
            "low": {
              "value": 8.5,
              "code": "mg/dL",
              "system": "http://unitsofmeasure.org"
            }
          },
          {
            "high": {
              "value": 10.5,
              "code": "mg/dL",
              "system": "http://unitsofmeasure.org"
            }
          }
        ],
        "text": {
          "status": "generated",
          "div": "<div xmlns=\"http://www.w3.org/1999/xhtml\"><table class=\"hl7__eu__lab__report\"><tr><th>Test</th><th>20-Mar-2019</th><th>Reference&#xA0;Range</th><th>Unit</th></tr><tr><td>Calcium [Mass/volume] in Blood</td><td>9.7</td><td>8.5 - 10.5</td><td></td><td>mg/dL</td></tr></table></div>"
        },
        "status": "final",
        "subject": {
          "reference": "urn:uuid:cd864572-6465-450d-b49d-31137942896b",
          "display": "Θεμιστοκλής Λιναρδάκη"
        },
        "effectiveDateTime": "2019-03-20T06:16:00Z",
        "specimen": {
          "reference": "urn:uuid:3e9f1fc7-b262-4620-89d2-52f6e0c02a67"
        }
      }
    },
    {
      "fullUrl": "urn:uuid:0485402e-fc75-49e5-b680-85bd437bcc04",
      "resource": {
        "resourceType": "Observation",
        "id": "0485402e-fc75-49e5-b680-85bd437bcc04",
        "meta": {
          "profile": [
            "http://hl7.eu/fhir/laboratory/StructureDefinition/Observation-resultslab-eu-lab"
          ]
        },
        "performer": [
          {
            "display": "The Central European Lab"
          }
        ],
        "category": [
          {
            "coding": [
              {
                "system": "http://terminology.hl7.org/CodeSystem/observation-category",
                "code": "laboratory"
              }
            ]
          }
        ],
        "code": {
          "coding": [
            {
              "code": "2947-0",
              "system": "http://loinc.org",
              "display": "Sodium [Moles/volume] in Blood"
            }
          ],
          "text": "Sodium [Moles/volume] in Blood"
        },
        "valueQuantity": {
          "system": "http://unitsofmeasure.org",
          "value": 141,
          "unit": "mmol/L",
          "code": "mmol/L"
        },
        "referenceRange": [
          {
            "low": {
              "value": 135,
              "code": "mmol/L",
              "system": "http://unitsofmeasure.org"
            }
          },
          {
            "high": {
              "value": 145,
              "code": "mmol/L",
              "system": "http://unitsofmeasure.org"
            }
          }
        ],
        "text": {
          "status": "generated",
          "div": "<div xmlns=\"http://www.w3.org/1999/xhtml\"><table class=\"hl7__eu__lab__report\"><tr><th>Test</th><th>20-Mar-2019</th><th>Reference&#xA0;Range</th><th>Unit</th></tr><tr><td>Sodium [Moles/volume] in Blood</td><td>141.0</td><td>135 - 145</td><td></td><td>mmol/L</td></tr></table></div>"
        },
        "status": "final",
        "subject": {
          "reference": "urn:uuid:cd864572-6465-450d-b49d-31137942896b",
          "display": "Θεμιστοκλής Λιναρδάκη"
        },
        "effectiveDateTime": "2019-03-20T06:16:00Z",
        "specimen": {
          "reference": "urn:uuid:3e9f1fc7-b262-4620-89d2-52f6e0c02a67"
        }
      }
    },
    {
      "fullUrl": "urn:uuid:cc6cd904-ba5e-4d0c-91d5-cc1eeae0b62a",
      "resource": {
        "resourceType": "Observation",
        "id": "cc6cd904-ba5e-4d0c-91d5-cc1eeae0b62a",
        "meta": {
          "profile": [
            "http://hl7.eu/fhir/laboratory/StructureDefinition/Observation-resultslab-eu-lab"
          ]
        },
        "performer": [
          {
            "display": "The Central European Lab"
          }
        ],
        "category": [
          {
            "coding": [
              {
                "system": "http://terminology.hl7.org/CodeSystem/observation-category",
                "code": "laboratory"
              }
            ]
          }
        ],
        "code": {
          "coding": [
            {
              "code": "6298-4",
              "system": "http://loinc.org",
              "display": "Potassium [Moles/volume] in Blood"
            }
          ],
          "text": "Potassium [Moles/volume] in Blood"
        },
        "valueQuantity": {
          "system": "http://unitsofmeasure.org",
          "value": 4.1,
          "unit": "mmol/L",
          "code": "mmol/L"
        },
        "referenceRange": [
          {
            "low": {
              "value": 3.5,
              "code": "mmol/L",
              "system": "http://unitsofmeasure.org"
            }
          },
          {
            "high": {
              "value": 5.3,
              "code": "mmol/L",
              "system": "http://unitsofmeasure.org"
            }
          }
        ],
        "text": {
          "status": "generated",
          "div": "<div xmlns=\"http://www.w3.org/1999/xhtml\"><table class=\"hl7__eu__lab__report\"><tr><th>Test</th><th>20-Mar-2019</th><th>Reference&#xA0;Range</th><th>Unit</th></tr><tr><td>Potassium [Moles/volume] in Blood</td><td>4.1</td><td>3.5 - 5.3</td><td></td><td>mmol/L</td></tr></table></div>"
        },
        "status": "final",
        "subject": {
          "reference": "urn:uuid:cd864572-6465-450d-b49d-31137942896b",
          "display": "Θεμιστοκλής Λιναρδάκη"
        },
        "effectiveDateTime": "2019-03-20T06:16:00Z",
        "specimen": {
          "reference": "urn:uuid:3e9f1fc7-b262-4620-89d2-52f6e0c02a67"
        }
      }
    },
    {
      "fullUrl": "urn:uuid:ed7da00e-84da-4d4b-a3e0-1772617c2f13",
      "resource": {
        "resourceType": "Observation",
        "id": "ed7da00e-84da-4d4b-a3e0-1772617c2f13",
        "meta": {
          "profile": [
            "http://hl7.eu/fhir/laboratory/StructureDefinition/Observation-resultslab-eu-lab"
          ]
        },
        "performer": [
          {
            "display": "The Central European Lab"
          }
        ],
        "category": [
          {
            "coding": [
              {
                "system": "http://terminology.hl7.org/CodeSystem/observation-category",
                "code": "laboratory"
              }
            ]
          }
        ],
        "code": {
          "coding": [
            {
              "code": "2069-3",
              "system": "http://loinc.org",
              "display": "Chloride [Moles/volume] in Blood"
            }
          ],
          "text": "Chloride [Moles/volume] in Blood"
        },
        "valueQuantity": {
          "system": "http://unitsofmeasure.org",
          "value": 106.8,
          "unit": "mmol/L",
          "code": "mmol/L"
        },
        "referenceRange": [
          {
            "low": {
              "value": 98,
              "code": "mmol/L",
              "system": "http://unitsofmeasure.org"
            }
          },
          {
            "high": {
              "value": 110,
              "code": "mmol/L",
              "system": "http://unitsofmeasure.org"
            }
          }
        ],
        "text": {
          "status": "generated",
          "div": "<div xmlns=\"http://www.w3.org/1999/xhtml\"><table class=\"hl7__eu__lab__report\"><tr><th>Test</th><th>20-Mar-2019</th><th>Reference&#xA0;Range</th><th>Unit</th></tr><tr><td>Chloride [Moles/volume] in Blood</td><td>106.8</td><td>98 - 110</td><td></td><td>mmol/L</td></tr></table></div>"
        },
        "status": "final",
        "subject": {
          "reference": "urn:uuid:cd864572-6465-450d-b49d-31137942896b",
          "display": "Θεμιστοκλής Λιναρδάκη"
        },
        "effectiveDateTime": "2019-03-20T06:16:00Z",
        "specimen": {
          "reference": "urn:uuid:3e9f1fc7-b262-4620-89d2-52f6e0c02a67"
        }
      }
    },
    {
      "fullUrl": "urn:uuid:26ec10b3-0346-41e9-9f58-77f624e55b35",
      "resource": {
        "resourceType": "Observation",
        "id": "26ec10b3-0346-41e9-9f58-77f624e55b35",
        "meta": {
          "profile": [
            "http://hl7.eu/fhir/laboratory/StructureDefinition/Observation-resultslab-eu-lab"
          ]
        },
        "performer": [
          {
            "display": "The Central European Lab"
          }
        ],
        "category": [
          {
            "coding": [
              {
                "system": "http://terminology.hl7.org/CodeSystem/observation-category",
                "code": "laboratory"
              }
            ]
          }
        ],
        "code": {
          "coding": [
            {
              "code": "20565-8",
              "system": "http://loinc.org",
              "display": "Carbon dioxide, total [Moles/volume] in Blood"
            }
          ],
          "text": "Carbon dioxide, total [Moles/volume] in Blood"
        },
        "valueQuantity": {
          "system": "http://unitsofmeasure.org",
          "value": 25.5,
          "unit": "mmol/L",
          "code": "mmol/L"
        },
        "referenceRange": [
          {
            "low": {
              "value": 22,
              "code": "mmol/L",
              "system": "http://unitsofmeasure.org"
            }
          },
          {
            "high": {
              "value": 29,
              "code": "mmol/L",
              "system": "http://unitsofmeasure.org"
            }
          }
        ],
        "text": {
          "status": "generated",
          "div": "<div xmlns=\"http://www.w3.org/1999/xhtml\"><table class=\"hl7__eu__lab__report\"><tr><th>Test</th><th>20-Mar-2019</th><th>Reference&#xA0;Range</th><th>Unit</th></tr><tr><td>Carbon dioxide, total [Moles/volume] in Blood</td><td>25.5</td><td>22 - 29</td><td></td><td>mmol/L</td></tr></table></div>"
        },
        "status": "final",
        "subject": {
          "reference": "urn:uuid:cd864572-6465-450d-b49d-31137942896b",
          "display": "Θεμιστοκλής Λιναρδάκη"
        },
        "effectiveDateTime": "2019-03-20T06:16:00Z",
        "specimen": {
          "reference": "urn:uuid:3e9f1fc7-b262-4620-89d2-52f6e0c02a67"
        }
      }
    },
    {
      "fullUrl": "urn:uuid:9884198c-7d02-4693-ab7d-0bb0bbd5cf29",
      "resource": {
        "resourceType": "Device",
        "id": "9884198c-7d02-4693-ab7d-0bb0bbd5cf29",
        "deviceName": [
          {
            "name": "SYNDERAI Synthetic Generator",
            "type": "manufacturer-name"
          }
        ],
        "version": [
          {
            "value": "5.0"
          }
        ],
        "text": {
          "status": "generated",
          "div": "<div xmlns=\"http://www.w3.org/1999/xhtml\">SYNDERAI Synthetic Generator v5.0</div>"
        },
        "status": "active\"",
        "distinctIdentifier": "synderai-generator-50",
        "manufacturer": "SYNDERAI Project"
      }
    },
    {
      "fullUrl": "urn:uuid:193a43fb-d6fa-4d47-8c24-293c17fd217e",
      "resource": {
        "resourceType": "Provenance",
        "id": "193a43fb-d6fa-4d47-8c24-293c17fd217e",
        "target": [
          {
            "reference": "Patient/cd864572-6465-450d-b49d-31137942896b"
          },
          {
            "reference": "Bundle/9b2e9796-1d15-4b54-ac0c-ebbc789a992f"
          },
          {
            "reference": "Composition/d157f0f9-22bd-49f5-8211-6c4b80a39632"
          },
          {
            "reference": "PractitionerRole/538ead11-3c77-4b35-b7ed-9eb041a4c820"
          },
          {
            "reference": "Practitioner/0621fb60-79d8-4b49-bc36-f3a03a0d4014"
          },
          {
            "reference": "PractitionerRole/b3e7dcb6-e7ec-4b70-88e5-2f372bd97eb9"
          },
          {
            "reference": "Organization/784907fa-2a63-4ece-bd79-30d94ae2e99a"
          }
        ],
        "activity": {
          "text": "Synthetic Example Data Generation"
        },
        "policy": [
          "https://synderai.net/synderai-synthetic-data-policy"
        ],
        "agent": [
          {
            "type": {
              "text": "author"
            },
            "who": {
              "reference": "Device/9884198c-7d02-4693-ab7d-0bb0bbd5cf29"
            }
          }
        ],
        "reason": [
          {
            "text": "Interoperability Testing and Training (non-clinical use)"
          }
        ],
        "text": {
          "status": "generated",
          "div": "<div xmlns=\"http://www.w3.org/1999/xhtml\">Provenance for SYNDERAI Synthetic Example Data Resource</div>"
        },
        "recorded": "2019-03-20T07:16:00Z"
      }
    },
    {
      "fullUrl": "urn:uuid:538ead11-3c77-4b35-b7ed-9eb041a4c820",
      "resource": {
        "resourceType": "PractitionerRole",
        "id": "538ead11-3c77-4b35-b7ed-9eb041a4c820",
        "meta": {
          "profile": [
            "http://hl7.eu/fhir/base/StructureDefinition/practitionerRole-eu"
          ]
        },
        "text": {
          "status": "generated",
          "div": "<div xmlns=\"http://www.w3.org/1999/xhtml\">Laboratory Role Id: 538ead11-3c77-4b35-b7ed-9eb041a4c820</div>"
        },
        "practitioner": {
          "reference": "urn:uuid:0621fb60-79d8-4b49-bc36-f3a03a0d4014"
        }
      }
    },
    {
      "fullUrl": "urn:uuid:0621fb60-79d8-4b49-bc36-f3a03a0d4014",
      "resource": {
        "resourceType": "Practitioner",
        "id": "0621fb60-79d8-4b49-bc36-f3a03a0d4014",
        "meta": {
          "profile": [
            "http://hl7.eu/fhir/base/StructureDefinition/practitioner-eu"
          ]
        },
        "identifier": [
          {
            "assigner": {
              "display": "HL7 Europe"
            },
            "system": "urn:oid:2.16.840.1.113883.2.51.999",
            "value": "997bb799-324d-4e95-9f22-62496f796c96"
          }
        ],
        "name": [
          {
            "prefix": [
              "dr"
            ],
            "given": [
              "Ex"
            ],
            "family": "Ample"
          }
        ],
        "address": [
          {
            "line": [
              "Laboratoire Central Européenne",
              "Boulevard du Jardin Botanique 32"
            ],
            "postalCode": "1000",
            "city": "Brussels",
            "country": "Belgium"
          }
        ],
        "text": {
          "status": "generated",
          "div": "<div xmlns=\"http://www.w3.org/1999/xhtml\">Laboratory: Laboratoire Central Européenne, 1000 Brussels, Belgium</div>"
        }
      }
    }
  ],
  "type": "document",
  "timestamp": "2019-03-20T07:16:00Z"
}
