{
  "resourceType": "Bundle",
  "id": "81ae7413-85f6-40b1-a273-3ed5d3096e0a",
  "meta": {
    "profile": [
      "http://hl7.eu/fhir/laboratory/StructureDefinition/Bundle-eu-lab"
    ]
  },
  "identifier": {
    "assigner": {
      "display": "HL7 Europe"
    },
    "system": "urn:oid:2.16.840.1.113883.2.51.999",
    "value": "167564aa-c085-4be9-bd73-a0475ae13213"
  },
  "entry": [
    {
      "fullUrl": "urn:uuid:e6a2cfa6-f883-479c-87d7-ea334b176d4d",
      "resource": {
        "resourceType": "Composition",
        "id": "e6a2cfa6-f883-479c-87d7-ea334b176d4d",
        "meta": {
          "profile": [
            "http://hl7.eu/fhir/laboratory/StructureDefinition/Composition-eu-lab"
          ]
        },
        "identifier": {
          "assigner": {
            "display": "HL7 Europe"
          },
          "system": "urn:oid:2.16.840.1.113883.2.51.999",
          "value": "58d81486-3960-41ef-8dc4-191b99363304"
        },
        "author": [
          {
            "reference": "urn:uuid:b9d86951-273f-49b9-a475-6f3ca7969e57"
          }
        ],
        "category": [
          {
            "coding": [
              {
                "code": "26436-6",
                "system": "http://loinc.org",
                "display": "Laboratory studies (set)"
              }
            ]
          }
        ],
        "type": {
          "coding": [
            {
              "code": "11502-2",
              "system": "http://loinc.org",
              "display": "Laboratory report"
            }
          ],
          "text": "Laboratory Report"
        },
        "section": [
          {
            "code": {
              "coding": [
                {
                  "code": "26436-6",
                  "system": "http://loinc.org",
                  "display": "Laboratory studies (set)"
                }
              ],
              "text": "Laboratory studies"
            },
            "section": [
              {
                "code": {
                  "coding": [
                    {
                      "code": "$18719-5",
                      "system": "http://loinc.org",
                      "display": "Chemistry studies (set)"
                    }
                  ],
                  "text": "Chemistry"
                },
                "entry": [
                  {
                    "reference": "urn:uuid:8b79b356-0032-4979-94b6-ae07552af986"
                  },
                  {
                    "reference": "urn:uuid:902a5234-9ef2-4a41-a507-eeb073ef4be0"
                  },
                  {
                    "reference": "urn:uuid:1822b8f5-49a0-4e99-912e-28e94913deae"
                  },
                  {
                    "reference": "urn:uuid:da6dc2b0-4610-4b42-843e-6f003d2fed0c"
                  },
                  {
                    "reference": "urn:uuid:28403385-2d92-4c3b-837d-eba419ec1cec"
                  },
                  {
                    "reference": "urn:uuid:4419124e-06c6-42bd-800a-0ded77d54f27"
                  },
                  {
                    "reference": "urn:uuid:41f45acb-bad2-4452-b9a0-84b3646e1be5"
                  },
                  {
                    "reference": "urn:uuid:1ffd7097-5804-49cd-9b7b-f56e3210e6ac"
                  },
                  {
                    "reference": "urn:uuid:55ba8d7a-307c-4ac4-9699-b04b08c87909"
                  }
                ],
                "text": {
                  "status": "generated",
                  "div": "<div xmlns=\"http://www.w3.org/1999/xhtml\"><h3>Chemistry</h3><table class=\"hl7__eu__lab__report\"><thead><tr><th>Test</th><th>01-APR-2021</th><th>Reference&#xA0;Range</th><th>Unit</th></tr></thead><tbody><tr><td>Glucose [Mass/volume] in Serum or Plasma</td><td>86.4</td><td>70 - 140</td><td>mg/dL</td></tr><tr><td>Urea nitrogen [Mass/volume] in Serum or Plasma</td><td>8.5</td><td>7 - 50</td><td>mg/dL</td></tr><tr><td>Creatinine [Mass/volume] in Serum or Plasma</td><td><strong>1.9 H</strong></td><td>0.6 - 1.1</td><td>mg/dL</td></tr><tr><td>Calcium [Mass/volume] in Serum or Plasma</td><td>9.5</td><td>8.5 - 10.5</td><td>mg/dL</td></tr><tr><td>Sodium [Moles/volume] in Serum or Plasma</td><td>137.1</td><td>135 - 145</td><td>mmol/L</td></tr><tr><td>Potassium [Moles/volume] in Serum or Plasma</td><td>4.9</td><td>3.5 - 5.1</td><td>mmol/L</td></tr><tr><td>Chloride [Moles/volume] in Serum or Plasma</td><td><strong>108.9 H</strong></td><td>98 - 108</td><td>mmol/L</td></tr><tr><td>Carbon dioxide, total [Moles/volume] in Serum or Plasma</td><td>26.5</td><td>22 - 32</td><td>mmol/L</td></tr><tr><td>Ketones [Presence] in Urine by Test strip</td><td>Urine ketone test = +</td><td></td><td></td></tr></tbody></table></div>"
                },
                "title": "Chemistry"
              },
              {
                "code": {
                  "coding": [
                    {
                      "code": "$18729-4",
                      "system": "http://loinc.org",
                      "display": "Urinalysis studies (set)"
                    }
                  ],
                  "text": "Urinalysis"
                },
                "entry": [
                  {
                    "reference": "urn:uuid:2fc8bd26-8d27-4541-82e4-972b27e784b2"
                  },
                  {
                    "reference": "urn:uuid:139287d4-3ba4-408a-99d7-6556a881c52b"
                  },
                  {
                    "reference": "urn:uuid:334f0142-b03b-4997-9352-3b92c8a77d20"
                  },
                  {
                    "reference": "urn:uuid:94207be5-723a-41f4-b2fb-3cfc1f92a64d"
                  },
                  {
                    "reference": "urn:uuid:92b7fcc2-5965-4ebc-bf27-930a3e8ada22"
                  },
                  {
                    "reference": "urn:uuid:12ba5321-90f0-40d8-9157-d9e10e242152"
                  },
                  {
                    "reference": "urn:uuid:da21a6c2-bc26-46d9-be84-4153c0540721"
                  },
                  {
                    "reference": "urn:uuid:20c3227f-f6f4-448c-92a5-bea1ba425c9b"
                  },
                  {
                    "reference": "urn:uuid:3baa9e8d-bec5-4d32-bb1e-acd77d99ac3f"
                  },
                  {
                    "reference": "urn:uuid:531e948f-3ac5-454d-82e6-43dc7481540e"
                  },
                  {
                    "reference": "urn:uuid:d4b23107-2697-4879-8797-dbbd3bf57ea8"
                  },
                  {
                    "reference": "urn:uuid:e6f288b7-a414-4bc5-a933-f7ed973bb1d6"
                  }
                ],
                "text": {
                  "status": "generated",
                  "div": "<div xmlns=\"http://www.w3.org/1999/xhtml\"><h3>Urinalysis</h3><table class=\"hl7__eu__lab__report\"><thead><tr><th>Test</th><th>01-APR-2021</th><th>Reference&#xA0;Range</th><th>Unit</th></tr></thead><tbody><tr><td>Glucose [Mass/volume] in Urine by Test strip</td><td><strong>1.1 H</strong></td><td>0.8 - 0</td><td>mg/dL</td></tr><tr><td>Glucose [Presence] in Urine by Test strip</td><td>++</td><td></td><td></td></tr><tr><td>Bilirubin.total [Mass/volume] in Urine by Test strip</td><td>0.9</td><td>0 - 1</td><td>mg/dL</td></tr><tr><td>Bilirubin.total [Presence] in Urine by Test strip</td><td>Finding of bilirubin in urine</td><td></td><td></td></tr><tr><td>Ketones [Mass/volume] in Urine by Test strip</td><td>15.3</td><td>0 - 20</td><td>mg/dL</td></tr><tr><td>Specific gravity of Urine by Test strip</td><td><strong>1.0 L</strong></td><td>1.01 - 1.03</td><td>{nominal}</td></tr><tr><td>pH of Urine by Test strip</td><td>5.8</td><td>4.6 - 7</td><td>pH</td></tr><tr><td>Protein [Mass/volume] in Urine by Test strip</td><td><strong>199.8 H</strong></td><td>0 - 15</td><td>mg/dL</td></tr><tr><td>Protein [Presence] in Urine by Test strip</td><td>Urine protein test = ++</td><td></td><td></td></tr><tr><td>Nitrite [Presence] in Urine by Test strip</td><td>Urine nitrite negative</td><td></td><td></td></tr><tr><td>Hemoglobin [Presence] in Urine by Test strip</td><td>Urine blood test = negative</td><td></td><td></td></tr><tr><td>Leukocyte esterase [Presence] in Urine by Test strip</td><td>Urine leukocyte test negative</td><td></td><td></td></tr></tbody></table></div>"
                },
                "title": "Urinalysis"
              },
              {
                "code": {
                  "coding": [
                    {
                      "code": "$LP7846-1",
                      "system": "http://loinc.org",
                      "display": "Specimen information"
                    }
                  ],
                  "text": "Specimen information"
                },
                "entry": [
                  {
                    "reference": "urn:uuid:7dae33ad-e74b-4e34-9b19-9e8e157c3828"
                  },
                  {
                    "reference": "urn:uuid:6ce41b69-d280-4608-99f3-ef5df8eb80fc"
                  },
                  {
                    "reference": "urn:uuid:54d8e346-d6ed-475b-8c21-de1c945ece33"
                  },
                  {
                    "reference": "urn:uuid:ac917ab4-182d-4df4-99f0-65071c6c2c14"
                  }
                ],
                "text": {
                  "status": "generated",
                  "div": "<div xmlns=\"http://www.w3.org/1999/xhtml\"><h3>Specimen information</h3><table class=\"hl7__eu__lab__report\"><thead><tr><th>Test</th><th>01-APR-2021</th><th>Specimen</th><th></th></tr></thead><tbody><tr><td>Appearance of Urine</td><td>Cloudy urine</td><td>Urine</td><td></td></tr><tr><td>Odor of Urine</td><td>Urine smell ammoniacal</td><td>Urine</td><td></td></tr><tr><td>Clarity of Urine</td><td>Translucent</td><td>Urine</td><td></td></tr><tr><td>Color of Urine</td><td>Brown color</td><td>Urine</td><td></td></tr></tbody></table></div>"
                },
                "title": "Specimen information"
              }
            ],
            "title": "Laboratory Report"
          },
          {
            "text": {
              "status": "generated",
              "div": "<div xmlns=\"http://www.w3.org/1999/xhtml\"><h3>Annotation</h3><table class=\"hl7__eu__lab__report\"><tr><th>Conclusion and Recommendations based on this report and previous findings known to us</th></tr><tr><td>The patient shows elevated serum creatinine, suggesting impaired renal function, and mild hyperchloremia. Urinalysis reveals significant proteinuria, glucosuria, low specific gravity, and abnormal urine appearance (cloudy, brown, ammoniacal), but no evidence of infection (negative nitrites/leukocytes). Findings are consistent with possible chronic kidney disease and renal glycosuria; further nephrological evaluation is recommended.</td></tr></table></div>"
            },
            "code": {
              "coding": [
                {
                  "system": "http://loinc.org",
                  "code": "48767-8",
                  "display": "Annotation comment"
                }
              ]
            },
            "title": "Annotation comment"
          }
        ],
        "status": "final",
        "subject": {
          "reference": "urn:uuid:b6271c6f-108a-4480-aacf-52ef83b3ec37",
          "display": "Marthe Gallet"
        },
        "date": "2021-04-01T21:05:43Z",
        "title": "Laboratory Report",
        "confidentiality": "N"
      }
    },
    {
      "fullUrl": "urn:uuid:c85940a5-aeb9-459e-93f7-14d97234b642",
      "resource": {
        "resourceType": "DiagnosticReport",
        "id": "c85940a5-aeb9-459e-93f7-14d97234b642",
        "meta": {
          "profile": [
            "http://hl7.eu/fhir/laboratory/StructureDefinition/DiagnosticReport-eu-lab"
          ]
        },
        "identifier": [
          {
            "assigner": {
              "display": "HL7 Europe"
            },
            "system": "urn:oid:2.16.840.1.113883.2.51.999",
            "value": "f63f3813-a9fe-4eeb-b413-00569f2869d9"
          }
        ],
        "extension": [
          {
            "url": "http://hl7.org/fhir/5.0/StructureDefinition/extension-DiagnosticReport.composition",
            "valueReference": {
              "reference": "urn:uuid:58d81486-3960-41ef-8dc4-191b99363304"
            }
          }
        ],
        "category": [
          {
            "coding": [
              {
                "code": "26436-6",
                "system": "http://loinc.org",
                "display": "Laboratory studies (set)"
              }
            ]
          }
        ],
        "specimen": [
          {
            "reference": "urn:uuid:04a00f22-0227-4b2e-b357-a6da9bab6efe"
          },
          {
            "reference": "urn:uuid:a1e448c3-1a27-4bc6-8857-2c2a58c4ab8f"
          }
        ],
        "result": [
          {
            "reference": "urn:uuid:8b79b356-0032-4979-94b6-ae07552af986"
          },
          {
            "reference": "urn:uuid:902a5234-9ef2-4a41-a507-eeb073ef4be0"
          },
          {
            "reference": "urn:uuid:1822b8f5-49a0-4e99-912e-28e94913deae"
          },
          {
            "reference": "urn:uuid:da6dc2b0-4610-4b42-843e-6f003d2fed0c"
          },
          {
            "reference": "urn:uuid:28403385-2d92-4c3b-837d-eba419ec1cec"
          },
          {
            "reference": "urn:uuid:4419124e-06c6-42bd-800a-0ded77d54f27"
          },
          {
            "reference": "urn:uuid:41f45acb-bad2-4452-b9a0-84b3646e1be5"
          },
          {
            "reference": "urn:uuid:1ffd7097-5804-49cd-9b7b-f56e3210e6ac"
          },
          {
            "reference": "urn:uuid:7dae33ad-e74b-4e34-9b19-9e8e157c3828"
          },
          {
            "reference": "urn:uuid:6ce41b69-d280-4608-99f3-ef5df8eb80fc"
          },
          {
            "reference": "urn:uuid:54d8e346-d6ed-475b-8c21-de1c945ece33"
          },
          {
            "reference": "urn:uuid:ac917ab4-182d-4df4-99f0-65071c6c2c14"
          },
          {
            "reference": "urn:uuid:2fc8bd26-8d27-4541-82e4-972b27e784b2"
          },
          {
            "reference": "urn:uuid:139287d4-3ba4-408a-99d7-6556a881c52b"
          },
          {
            "reference": "urn:uuid:334f0142-b03b-4997-9352-3b92c8a77d20"
          },
          {
            "reference": "urn:uuid:94207be5-723a-41f4-b2fb-3cfc1f92a64d"
          },
          {
            "reference": "urn:uuid:92b7fcc2-5965-4ebc-bf27-930a3e8ada22"
          },
          {
            "reference": "urn:uuid:55ba8d7a-307c-4ac4-9699-b04b08c87909"
          },
          {
            "reference": "urn:uuid:12ba5321-90f0-40d8-9157-d9e10e242152"
          },
          {
            "reference": "urn:uuid:da21a6c2-bc26-46d9-be84-4153c0540721"
          },
          {
            "reference": "urn:uuid:20c3227f-f6f4-448c-92a5-bea1ba425c9b"
          },
          {
            "reference": "urn:uuid:3baa9e8d-bec5-4d32-bb1e-acd77d99ac3f"
          },
          {
            "reference": "urn:uuid:531e948f-3ac5-454d-82e6-43dc7481540e"
          },
          {
            "reference": "urn:uuid:d4b23107-2697-4879-8797-dbbd3bf57ea8"
          },
          {
            "reference": "urn:uuid:e6f288b7-a414-4bc5-a933-f7ed973bb1d6"
          }
        ],
        "status": "registered",
        "code": {
          "coding": [
            {
              "code": "11502-2",
              "system": "http://loinc.org",
              "display": "Laboratory report"
            }
          ]
        },
        "subject": {
          "reference": "urn:uuid:b6271c6f-108a-4480-aacf-52ef83b3ec37",
          "display": "Marthe Gallet"
        }
      }
    },
    {
      "fullUrl": "urn:uuid:b6271c6f-108a-4480-aacf-52ef83b3ec37",
      "resource": {
        "resourceType": "Patient",
        "id": "b6271c6f-108a-4480-aacf-52ef83b3ec37",
        "meta": {
          "security": [
            {
              "system": "http://terminology.hl7.org/CodeSystem/v3-ActReason",
              "code": "HTEST"
            },
            {
              "system": "http://terminology.hl7.org/CodeSystem/v3-ActReason",
              "code": "TRAIN"
            }
          ],
          "tag": [
            {
              "system": "https://synderai.net/fhir/CodeSystem/tags",
              "code": "synthetic",
              "display": "SYNDERAI Synthetic data"
            }
          ],
          "profile": [
            "http://hl7.eu/fhir/base/StructureDefinition/patient-eu-core"
          ]
        },
        "identifier": [
          {
            "type": {
              "coding": [
                {
                  "code": "PT",
                  "system": "http://terminology.hl7.org/CodeSystem/v2-0203"
                }
              ]
            },
            "system": "http://ec.europa.eu/identifier/eci",
            "value": "9444-947487-6"
          },
          {
            "type": {
              "coding": [
                {
                  "code": "MR",
                  "system": "http://terminology.hl7.org/CodeSystem/v2-0203"
                }
              ]
            },
            "system": "http://local.setting.eu/identifier",
            "value": "854228d5-a476-2d9c-a1d7-c3202375a617"
          }
        ],
        "name": [
          {
            "family": "Gallet"
          },
          {
            "given": [
              "Marthe"
            ]
          },
          {
            "text": "Marthe Gallet"
          }
        ],
        "address": [
          {
            "line": [
              "3, rue Emmanuel Goncalves"
            ],
            "use": "home",
            "type": "physical",
            "postalCode": "49490",
            "city": "Briand",
            "country": "France"
          }
        ],
        "telecom": [
          {
            "system": "phone",
            "value": "+33 1 70 99 82 74"
          }
        ],
        "extension": [
          {
            "url": "http://hl7.org/fhir/StructureDefinition/patient-nationality",
            "valueCodeableConcept": {
              "coding": [
                {
                  "code": "FR",
                  "system": "http://hl7.org/fhir/ValueSet/country"
                }
              ]
            }
          }
        ],
        "text": {
          "status": "generated",
          "div": "<div xmlns=\"http://www.w3.org/1999/xhtml\"><table class=\"hl7__ips\"><tr><td>Marthe Gallet</td><td>female</td><td>29-Oct-1950</td></tr></table></div>"
        },
        "gender": "female",
        "birthDate": "1950-10-29"
      }
    },
    {
      "fullUrl": "urn:uuid:6d699d79-6c9e-4457-9e14-be53cb82946c",
      "resource": {
        "resourceType": "ServiceRequest",
        "id": "6d699d79-6c9e-4457-9e14-be53cb82946c",
        "meta": {
          "profile": [
            "http://hl7.eu/fhir/laboratory/StructureDefinition/ServiceRequest-eu-lab"
          ]
        },
        "identifier": [
          {
            "system": "http://example.org",
            "value": "ebe98300-f4c8-41ff-aaf1-408480506ef8"
          }
        ],
        "specimen": [
          {
            "reference": "urn:uuid:04a00f22-0227-4b2e-b357-a6da9bab6efe"
          },
          {
            "reference": "urn:uuid:a1e448c3-1a27-4bc6-8857-2c2a58c4ab8f"
          }
        ],
        "reasonCode": [
          {
            "coding": [
              {
                "code": "431856006",
                "system": "http://snomed.info/sct",
                "display": "Chronic kidney disease stage 2"
              }
            ]
          },
          {
            "coding": [
              {
                "code": "90781000119102",
                "system": "http://snomed.info/sct",
                "display": "Microalbuminuria due to type 2 diabetes mellitus"
              }
            ]
          },
          {
            "coding": [
              {
                "code": "127013003",
                "system": "http://snomed.info/sct",
                "display": "Disorder of kidney due to diabetes mellitus"
              }
            ]
          },
          {
            "coding": [
              {
                "code": "431855005",
                "system": "http://snomed.info/sct",
                "display": "Chronic kidney disease stage 1"
              }
            ]
          },
          {
            "coding": [
              {
                "code": "55822004",
                "system": "http://snomed.info/sct",
                "display": "Hyperlipidemia"
              }
            ]
          },
          {
            "coding": [
              {
                "code": "59621000",
                "system": "http://snomed.info/sct",
                "display": "Essential hypertension"
              }
            ]
          }
        ],
        "status": "active",
        "intent": "order",
        "code": {
          "coding": [
            {
              "code": "108252007",
              "system": "http://snomed.info/sct",
              "display": "Laboratory procedure"
            }
          ]
        },
        "subject": {
          "reference": "urn:uuid:b6271c6f-108a-4480-aacf-52ef83b3ec37",
          "display": "Marthe Gallet"
        },
        "requester": {
          "reference": "urn:uuid:786685b0-7955-4850-a07d-757c4d144ae9"
        }
      }
    },
    {
      "fullUrl": "urn:uuid:786685b0-7955-4850-a07d-757c4d144ae9",
      "resource": {
        "resourceType": "PractitionerRole",
        "id": "786685b0-7955-4850-a07d-757c4d144ae9",
        "meta": {
          "profile": [
            "http://hl7.eu/fhir/base/StructureDefinition/practitionerRole-eu"
          ]
        },
        "text": {
          "status": "generated",
          "div": "<div xmlns=\"http://www.w3.org/1999/xhtml\">Provider Role Id: 786685b0-7955-4850-a07d-757c4d144ae9</div>"
        },
        "organization": {
          "reference": "urn:uuid:c5d2e9d3-1a29-446a-8193-8f44dc99e44c"
        }
      }
    },
    {
      "fullUrl": "urn:uuid:c5d2e9d3-1a29-446a-8193-8f44dc99e44c",
      "resource": {
        "resourceType": "Organization",
        "id": "c5d2e9d3-1a29-446a-8193-8f44dc99e44c",
        "meta": {
          "profile": [
            "http://hl7.eu/fhir/base/StructureDefinition/organization-eu"
          ]
        },
        "identifier": [
          {
            "assigner": {
              "display": "HL7 Europe"
            },
            "system": "urn:oid:2.16.840.1.113883.2.51.999",
            "value": "2af40467-1137-46aa-aecf-714c2d4dd2f2"
          }
        ],
        "address": [
          {
            "line": [
              "Rue Larrey nan"
            ],
            "city": "Angers",
            "postalCode": "49100",
            "country": "France"
          }
        ],
        "text": {
          "status": "generated",
          "div": "<div xmlns=\"http://www.w3.org/1999/xhtml\">Provider Organization: CHU d&#039;Angers</div>"
        },
        "name": "CHU d&#039;Angers"
      }
    },
    {
      "fullUrl": "urn:uuid:04a00f22-0227-4b2e-b357-a6da9bab6efe",
      "resource": {
        "resourceType": "Specimen",
        "id": "04a00f22-0227-4b2e-b357-a6da9bab6efe",
        "meta": {
          "profile": [
            "http://hl7.eu/fhir/laboratory/StructureDefinition/Specimen-eu-lab"
          ]
        },
        "collection": {
          "collectedDateTime": "2021-04-01"
        },
        "text": {
          "status": "generated",
          "div": "<div xmlns=\"http://www.w3.org/1999/xhtml\"><table class=\"hl7__eu__lab__report\"><tr><th>Specimen</th><th>Collection Date</th></tr><tr><td>Acellular blood (serum or plasma) specimen</td><td><span class=\"nb\">01-Apr-2021</span></td></tr></table></div>"
        },
        "type": {
          "coding": [
            {
              "code": "122592007",
              "system": "http://snomed.info/sct",
              "display": "Acellular blood (serum or plasma) specimen"
            }
          ]
        }
      }
    },
    {
      "fullUrl": "urn:uuid:a1e448c3-1a27-4bc6-8857-2c2a58c4ab8f",
      "resource": {
        "resourceType": "Specimen",
        "id": "a1e448c3-1a27-4bc6-8857-2c2a58c4ab8f",
        "meta": {
          "profile": [
            "http://hl7.eu/fhir/laboratory/StructureDefinition/Specimen-eu-lab"
          ]
        },
        "collection": {
          "collectedDateTime": "2021-04-01"
        },
        "text": {
          "status": "generated",
          "div": "<div xmlns=\"http://www.w3.org/1999/xhtml\"><table class=\"hl7__eu__lab__report\"><tr><th>Specimen</th><th>Collection Date</th></tr><tr><td>Urine specimen</td><td><span class=\"nb\">01-Apr-2021</span></td></tr></table></div>"
        },
        "type": {
          "coding": [
            {
              "code": "122575003",
              "system": "http://snomed.info/sct",
              "display": "Urine specimen"
            }
          ]
        }
      }
    },
    {
      "fullUrl": "urn:uuid:8b79b356-0032-4979-94b6-ae07552af986",
      "resource": {
        "resourceType": "Observation",
        "id": "8b79b356-0032-4979-94b6-ae07552af986",
        "meta": {
          "profile": [
            "http://hl7.eu/fhir/laboratory/StructureDefinition/Observation-resultslab-eu-lab"
          ]
        },
        "performer": [
          {
            "display": "The Central European Lab"
          }
        ],
        "category": [
          {
            "coding": [
              {
                "system": "http://terminology.hl7.org/CodeSystem/observation-category",
                "code": "laboratory"
              }
            ]
          }
        ],
        "code": {
          "coding": [
            {
              "code": "2345-7",
              "system": "http://loinc.org",
              "display": "Glucose [Mass/volume] in Serum or Plasma"
            }
          ],
          "text": "Glucose [Mass/volume] in Serum or Plasma"
        },
        "valueQuantity": {
          "system": "http://unitsofmeasure.org",
          "value": 86.4,
          "unit": "mg/dL",
          "code": "mg/dL"
        },
        "referenceRange": [
          {
            "low": {
              "value": 70,
              "code": "mg/dL",
              "system": "http://unitsofmeasure.org"
            }
          },
          {
            "high": {
              "value": 140,
              "code": "mg/dL",
              "system": "http://unitsofmeasure.org"
            }
          }
        ],
        "text": {
          "status": "generated",
          "div": "<div xmlns=\"http://www.w3.org/1999/xhtml\"><table class=\"hl7__eu__lab__report\"><tr><th>Test</th><th>01-Apr-2021</th><th>Reference&#xA0;Range</th><th>Unit</th></tr><tr><td>Glucose [Mass/volume] in Serum or Plasma</td><td>86.4</td><td>70 - 140</td><td></td><td>mg/dL</td></tr></table></div>"
        },
        "status": "final",
        "subject": {
          "reference": "urn:uuid:b6271c6f-108a-4480-aacf-52ef83b3ec37",
          "display": "Marthe Gallet"
        },
        "effectiveDateTime": "2021-04-01T19:05:43Z",
        "specimen": {
          "reference": "urn:uuid:04a00f22-0227-4b2e-b357-a6da9bab6efe"
        }
      }
    },
    {
      "fullUrl": "urn:uuid:902a5234-9ef2-4a41-a507-eeb073ef4be0",
      "resource": {
        "resourceType": "Observation",
        "id": "902a5234-9ef2-4a41-a507-eeb073ef4be0",
        "meta": {
          "profile": [
            "http://hl7.eu/fhir/laboratory/StructureDefinition/Observation-resultslab-eu-lab"
          ]
        },
        "performer": [
          {
            "display": "The Central European Lab"
          }
        ],
        "category": [
          {
            "coding": [
              {
                "system": "http://terminology.hl7.org/CodeSystem/observation-category",
                "code": "laboratory"
              }
            ]
          }
        ],
        "code": {
          "coding": [
            {
              "code": "3094-0",
              "system": "http://loinc.org",
              "display": "Urea nitrogen [Mass/volume] in Serum or Plasma"
            }
          ],
          "text": "Urea nitrogen [Mass/volume] in Serum or Plasma"
        },
        "valueQuantity": {
          "system": "http://unitsofmeasure.org",
          "value": 8.5,
          "unit": "mg/dL",
          "code": "mg/dL"
        },
        "referenceRange": [
          {
            "low": {
              "value": 7,
              "code": "mg/dL",
              "system": "http://unitsofmeasure.org"
            }
          },
          {
            "high": {
              "value": 50,
              "code": "mg/dL",
              "system": "http://unitsofmeasure.org"
            }
          }
        ],
        "text": {
          "status": "generated",
          "div": "<div xmlns=\"http://www.w3.org/1999/xhtml\"><table class=\"hl7__eu__lab__report\"><tr><th>Test</th><th>01-Apr-2021</th><th>Reference&#xA0;Range</th><th>Unit</th></tr><tr><td>Urea nitrogen [Mass/volume] in Serum or Plasma</td><td>8.5</td><td>7 - 50</td><td></td><td>mg/dL</td></tr></table></div>"
        },
        "status": "final",
        "subject": {
          "reference": "urn:uuid:b6271c6f-108a-4480-aacf-52ef83b3ec37",
          "display": "Marthe Gallet"
        },
        "effectiveDateTime": "2021-04-01T19:05:43Z",
        "specimen": {
          "reference": "urn:uuid:04a00f22-0227-4b2e-b357-a6da9bab6efe"
        }
      }
    },
    {
      "fullUrl": "urn:uuid:1822b8f5-49a0-4e99-912e-28e94913deae",
      "resource": {
        "resourceType": "Observation",
        "id": "1822b8f5-49a0-4e99-912e-28e94913deae",
        "meta": {
          "profile": [
            "http://hl7.eu/fhir/laboratory/StructureDefinition/Observation-resultslab-eu-lab"
          ]
        },
        "performer": [
          {
            "display": "The Central European Lab"
          }
        ],
        "category": [
          {
            "coding": [
              {
                "system": "http://terminology.hl7.org/CodeSystem/observation-category",
                "code": "laboratory"
              }
            ]
          }
        ],
        "code": {
          "coding": [
            {
              "code": "2160-0",
              "system": "http://loinc.org",
              "display": "Creatinine [Mass/volume] in Serum or Plasma"
            }
          ],
          "text": "Creatinine [Mass/volume] in Serum or Plasma"
        },
        "valueQuantity": {
          "system": "http://unitsofmeasure.org",
          "value": 1.9,
          "unit": "mg/dL",
          "code": "mg/dL"
        },
        "referenceRange": [
          {
            "low": {
              "value": 0.6,
              "code": "mg/dL",
              "system": "http://unitsofmeasure.org"
            }
          },
          {
            "high": {
              "value": 1.1,
              "code": "mg/dL",
              "system": "http://unitsofmeasure.org"
            }
          }
        ],
        "interpretation": [
          {
            "coding": [
              {
                "code": "H",
                "system": "http://terminology.hl7.org/CodeSystem/v3-ObservationInterpretation",
                "display": "High"
              }
            ]
          }
        ],
        "text": {
          "status": "generated",
          "div": "<div xmlns=\"http://www.w3.org/1999/xhtml\"><table class=\"hl7__eu__lab__report\"><tr><th>Test</th><th>01-Apr-2021</th><th>Reference&#xA0;Range</th><th>Unit</th></tr><tr><td>Creatinine [Mass/volume] in Serum or Plasma</td><td>1.9</td><td>0.6 - 1.1</td><td>H</td><td>mg/dL</td></tr></table></div>"
        },
        "status": "final",
        "subject": {
          "reference": "urn:uuid:b6271c6f-108a-4480-aacf-52ef83b3ec37",
          "display": "Marthe Gallet"
        },
        "effectiveDateTime": "2021-04-01T19:05:43Z",
        "specimen": {
          "reference": "urn:uuid:04a00f22-0227-4b2e-b357-a6da9bab6efe"
        }
      }
    },
    {
      "fullUrl": "urn:uuid:da6dc2b0-4610-4b42-843e-6f003d2fed0c",
      "resource": {
        "resourceType": "Observation",
        "id": "da6dc2b0-4610-4b42-843e-6f003d2fed0c",
        "meta": {
          "profile": [
            "http://hl7.eu/fhir/laboratory/StructureDefinition/Observation-resultslab-eu-lab"
          ]
        },
        "performer": [
          {
            "display": "The Central European Lab"
          }
        ],
        "category": [
          {
            "coding": [
              {
                "system": "http://terminology.hl7.org/CodeSystem/observation-category",
                "code": "laboratory"
              }
            ]
          }
        ],
        "code": {
          "coding": [
            {
              "code": "17861-6",
              "system": "http://loinc.org",
              "display": "Calcium [Mass/volume] in Serum or Plasma"
            }
          ],
          "text": "Calcium [Mass/volume] in Serum or Plasma"
        },
        "valueQuantity": {
          "system": "http://unitsofmeasure.org",
          "value": 9.5,
          "unit": "mg/dL",
          "code": "mg/dL"
        },
        "referenceRange": [
          {
            "low": {
              "value": 8.5,
              "code": "mg/dL",
              "system": "http://unitsofmeasure.org"
            }
          },
          {
            "high": {
              "value": 10.5,
              "code": "mg/dL",
              "system": "http://unitsofmeasure.org"
            }
          }
        ],
        "text": {
          "status": "generated",
          "div": "<div xmlns=\"http://www.w3.org/1999/xhtml\"><table class=\"hl7__eu__lab__report\"><tr><th>Test</th><th>01-Apr-2021</th><th>Reference&#xA0;Range</th><th>Unit</th></tr><tr><td>Calcium [Mass/volume] in Serum or Plasma</td><td>9.5</td><td>8.5 - 10.5</td><td></td><td>mg/dL</td></tr></table></div>"
        },
        "status": "final",
        "subject": {
          "reference": "urn:uuid:b6271c6f-108a-4480-aacf-52ef83b3ec37",
          "display": "Marthe Gallet"
        },
        "effectiveDateTime": "2021-04-01T19:05:43Z",
        "specimen": {
          "reference": "urn:uuid:04a00f22-0227-4b2e-b357-a6da9bab6efe"
        }
      }
    },
    {
      "fullUrl": "urn:uuid:28403385-2d92-4c3b-837d-eba419ec1cec",
      "resource": {
        "resourceType": "Observation",
        "id": "28403385-2d92-4c3b-837d-eba419ec1cec",
        "meta": {
          "profile": [
            "http://hl7.eu/fhir/laboratory/StructureDefinition/Observation-resultslab-eu-lab"
          ]
        },
        "performer": [
          {
            "display": "The Central European Lab"
          }
        ],
        "category": [
          {
            "coding": [
              {
                "system": "http://terminology.hl7.org/CodeSystem/observation-category",
                "code": "laboratory"
              }
            ]
          }
        ],
        "code": {
          "coding": [
            {
              "code": "2951-2",
              "system": "http://loinc.org",
              "display": "Sodium [Moles/volume] in Serum or Plasma"
            }
          ],
          "text": "Sodium [Moles/volume] in Serum or Plasma"
        },
        "valueQuantity": {
          "system": "http://unitsofmeasure.org",
          "value": 137.1,
          "unit": "mmol/L",
          "code": "mmol/L"
        },
        "referenceRange": [
          {
            "low": {
              "value": 135,
              "code": "mmol/L",
              "system": "http://unitsofmeasure.org"
            }
          },
          {
            "high": {
              "value": 145,
              "code": "mmol/L",
              "system": "http://unitsofmeasure.org"
            }
          }
        ],
        "text": {
          "status": "generated",
          "div": "<div xmlns=\"http://www.w3.org/1999/xhtml\"><table class=\"hl7__eu__lab__report\"><tr><th>Test</th><th>01-Apr-2021</th><th>Reference&#xA0;Range</th><th>Unit</th></tr><tr><td>Sodium [Moles/volume] in Serum or Plasma</td><td>137.1</td><td>135 - 145</td><td></td><td>mmol/L</td></tr></table></div>"
        },
        "status": "final",
        "subject": {
          "reference": "urn:uuid:b6271c6f-108a-4480-aacf-52ef83b3ec37",
          "display": "Marthe Gallet"
        },
        "effectiveDateTime": "2021-04-01T19:05:43Z",
        "specimen": {
          "reference": "urn:uuid:04a00f22-0227-4b2e-b357-a6da9bab6efe"
        }
      }
    },
    {
      "fullUrl": "urn:uuid:4419124e-06c6-42bd-800a-0ded77d54f27",
      "resource": {
        "resourceType": "Observation",
        "id": "4419124e-06c6-42bd-800a-0ded77d54f27",
        "meta": {
          "profile": [
            "http://hl7.eu/fhir/laboratory/StructureDefinition/Observation-resultslab-eu-lab"
          ]
        },
        "performer": [
          {
            "display": "The Central European Lab"
          }
        ],
        "category": [
          {
            "coding": [
              {
                "system": "http://terminology.hl7.org/CodeSystem/observation-category",
                "code": "laboratory"
              }
            ]
          }
        ],
        "code": {
          "coding": [
            {
              "code": "2823-3",
              "system": "http://loinc.org",
              "display": "Potassium [Moles/volume] in Serum or Plasma"
            }
          ],
          "text": "Potassium [Moles/volume] in Serum or Plasma"
        },
        "valueQuantity": {
          "system": "http://unitsofmeasure.org",
          "value": 4.9,
          "unit": "mmol/L",
          "code": "mmol/L"
        },
        "referenceRange": [
          {
            "low": {
              "value": 3.5,
              "code": "mmol/L",
              "system": "http://unitsofmeasure.org"
            }
          },
          {
            "high": {
              "value": 5.1,
              "code": "mmol/L",
              "system": "http://unitsofmeasure.org"
            }
          }
        ],
        "text": {
          "status": "generated",
          "div": "<div xmlns=\"http://www.w3.org/1999/xhtml\"><table class=\"hl7__eu__lab__report\"><tr><th>Test</th><th>01-Apr-2021</th><th>Reference&#xA0;Range</th><th>Unit</th></tr><tr><td>Potassium [Moles/volume] in Serum or Plasma</td><td>4.9</td><td>3.5 - 5.1</td><td></td><td>mmol/L</td></tr></table></div>"
        },
        "status": "final",
        "subject": {
          "reference": "urn:uuid:b6271c6f-108a-4480-aacf-52ef83b3ec37",
          "display": "Marthe Gallet"
        },
        "effectiveDateTime": "2021-04-01T19:05:43Z",
        "specimen": {
          "reference": "urn:uuid:04a00f22-0227-4b2e-b357-a6da9bab6efe"
        }
      }
    },
    {
      "fullUrl": "urn:uuid:41f45acb-bad2-4452-b9a0-84b3646e1be5",
      "resource": {
        "resourceType": "Observation",
        "id": "41f45acb-bad2-4452-b9a0-84b3646e1be5",
        "meta": {
          "profile": [
            "http://hl7.eu/fhir/laboratory/StructureDefinition/Observation-resultslab-eu-lab"
          ]
        },
        "performer": [
          {
            "display": "The Central European Lab"
          }
        ],
        "category": [
          {
            "coding": [
              {
                "system": "http://terminology.hl7.org/CodeSystem/observation-category",
                "code": "laboratory"
              }
            ]
          }
        ],
        "code": {
          "coding": [
            {
              "code": "2075-0",
              "system": "http://loinc.org",
              "display": "Chloride [Moles/volume] in Serum or Plasma"
            }
          ],
          "text": "Chloride [Moles/volume] in Serum or Plasma"
        },
        "valueQuantity": {
          "system": "http://unitsofmeasure.org",
          "value": 108.9,
          "unit": "mmol/L",
          "code": "mmol/L"
        },
        "referenceRange": [
          {
            "low": {
              "value": 98,
              "code": "mmol/L",
              "system": "http://unitsofmeasure.org"
            }
          },
          {
            "high": {
              "value": 108,
              "code": "mmol/L",
              "system": "http://unitsofmeasure.org"
            }
          }
        ],
        "interpretation": [
          {
            "coding": [
              {
                "code": "H",
                "system": "http://terminology.hl7.org/CodeSystem/v3-ObservationInterpretation",
                "display": "High"
              }
            ]
          }
        ],
        "text": {
          "status": "generated",
          "div": "<div xmlns=\"http://www.w3.org/1999/xhtml\"><table class=\"hl7__eu__lab__report\"><tr><th>Test</th><th>01-Apr-2021</th><th>Reference&#xA0;Range</th><th>Unit</th></tr><tr><td>Chloride [Moles/volume] in Serum or Plasma</td><td>108.9</td><td>98 - 108</td><td>H</td><td>mmol/L</td></tr></table></div>"
        },
        "status": "final",
        "subject": {
          "reference": "urn:uuid:b6271c6f-108a-4480-aacf-52ef83b3ec37",
          "display": "Marthe Gallet"
        },
        "effectiveDateTime": "2021-04-01T19:05:43Z",
        "specimen": {
          "reference": "urn:uuid:04a00f22-0227-4b2e-b357-a6da9bab6efe"
        }
      }
    },
    {
      "fullUrl": "urn:uuid:1ffd7097-5804-49cd-9b7b-f56e3210e6ac",
      "resource": {
        "resourceType": "Observation",
        "id": "1ffd7097-5804-49cd-9b7b-f56e3210e6ac",
        "meta": {
          "profile": [
            "http://hl7.eu/fhir/laboratory/StructureDefinition/Observation-resultslab-eu-lab"
          ]
        },
        "performer": [
          {
            "display": "The Central European Lab"
          }
        ],
        "category": [
          {
            "coding": [
              {
                "system": "http://terminology.hl7.org/CodeSystem/observation-category",
                "code": "laboratory"
              }
            ]
          }
        ],
        "code": {
          "coding": [
            {
              "code": "2028-9",
              "system": "http://loinc.org",
              "display": "Carbon dioxide, total [Moles/volume] in Serum or Plasma"
            }
          ],
          "text": "Carbon dioxide, total [Moles/volume] in Serum or Plasma"
        },
        "valueQuantity": {
          "system": "http://unitsofmeasure.org",
          "value": 26.5,
          "unit": "mmol/L",
          "code": "mmol/L"
        },
        "referenceRange": [
          {
            "low": {
              "value": 22,
              "code": "mmol/L",
              "system": "http://unitsofmeasure.org"
            }
          },
          {
            "high": {
              "value": 32,
              "code": "mmol/L",
              "system": "http://unitsofmeasure.org"
            }
          }
        ],
        "text": {
          "status": "generated",
          "div": "<div xmlns=\"http://www.w3.org/1999/xhtml\"><table class=\"hl7__eu__lab__report\"><tr><th>Test</th><th>01-Apr-2021</th><th>Reference&#xA0;Range</th><th>Unit</th></tr><tr><td>Carbon dioxide, total [Moles/volume] in Serum or Plasma</td><td>26.5</td><td>22 - 32</td><td></td><td>mmol/L</td></tr></table></div>"
        },
        "status": "final",
        "subject": {
          "reference": "urn:uuid:b6271c6f-108a-4480-aacf-52ef83b3ec37",
          "display": "Marthe Gallet"
        },
        "effectiveDateTime": "2021-04-01T19:05:43Z",
        "specimen": {
          "reference": "urn:uuid:04a00f22-0227-4b2e-b357-a6da9bab6efe"
        }
      }
    },
    {
      "fullUrl": "urn:uuid:7dae33ad-e74b-4e34-9b19-9e8e157c3828",
      "resource": {
        "resourceType": "Observation",
        "id": "7dae33ad-e74b-4e34-9b19-9e8e157c3828",
        "meta": {
          "profile": [
            "http://hl7.eu/fhir/laboratory/StructureDefinition/Observation-resultslab-eu-lab"
          ]
        },
        "performer": [
          {
            "display": "The Central European Lab"
          }
        ],
        "category": [
          {
            "coding": [
              {
                "system": "http://terminology.hl7.org/CodeSystem/observation-category",
                "code": "laboratory"
              }
            ]
          }
        ],
        "code": {
          "coding": [
            {
              "code": "5767-9",
              "system": "http://loinc.org",
              "display": "Appearance of Urine"
            }
          ],
          "text": "Appearance of Urine"
        },
        "text": {
          "status": "generated",
          "div": "<div xmlns=\"http://www.w3.org/1999/xhtml\"><table class=\"hl7__eu__lab__report\"><tr><th>Test</th><th>01-Apr-2021</th><th>Reference&#xA0;Range</th><th>Unit</th></tr><tr><td>Appearance of Urine</td></tr></table></div>"
        },
        "status": "final",
        "subject": {
          "reference": "urn:uuid:b6271c6f-108a-4480-aacf-52ef83b3ec37",
          "display": "Marthe Gallet"
        },
        "effectiveDateTime": "2021-04-01T19:05:43Z",
        "specimen": {
          "reference": "urn:uuid:a1e448c3-1a27-4bc6-8857-2c2a58c4ab8f"
        }
      }
    },
    {
      "fullUrl": "urn:uuid:6ce41b69-d280-4608-99f3-ef5df8eb80fc",
      "resource": {
        "resourceType": "Observation",
        "id": "6ce41b69-d280-4608-99f3-ef5df8eb80fc",
        "meta": {
          "profile": [
            "http://hl7.eu/fhir/laboratory/StructureDefinition/Observation-resultslab-eu-lab"
          ]
        },
        "performer": [
          {
            "display": "The Central European Lab"
          }
        ],
        "category": [
          {
            "coding": [
              {
                "system": "http://terminology.hl7.org/CodeSystem/observation-category",
                "code": "laboratory"
              }
            ]
          }
        ],
        "code": {
          "coding": [
            {
              "code": "34533-0",
              "system": "http://loinc.org",
              "display": "Odor of Urine"
            }
          ],
          "text": "Odor of Urine"
        },
        "text": {
          "status": "generated",
          "div": "<div xmlns=\"http://www.w3.org/1999/xhtml\"><table class=\"hl7__eu__lab__report\"><tr><th>Test</th><th>01-Apr-2021</th><th>Reference&#xA0;Range</th><th>Unit</th></tr><tr><td>Odor of Urine</td></tr></table></div>"
        },
        "status": "final",
        "subject": {
          "reference": "urn:uuid:b6271c6f-108a-4480-aacf-52ef83b3ec37",
          "display": "Marthe Gallet"
        },
        "effectiveDateTime": "2021-04-01T19:05:43Z",
        "specimen": {
          "reference": "urn:uuid:a1e448c3-1a27-4bc6-8857-2c2a58c4ab8f"
        }
      }
    },
    {
      "fullUrl": "urn:uuid:54d8e346-d6ed-475b-8c21-de1c945ece33",
      "resource": {
        "resourceType": "Observation",
        "id": "54d8e346-d6ed-475b-8c21-de1c945ece33",
        "meta": {
          "profile": [
            "http://hl7.eu/fhir/laboratory/StructureDefinition/Observation-resultslab-eu-lab"
          ]
        },
        "performer": [
          {
            "display": "The Central European Lab"
          }
        ],
        "category": [
          {
            "coding": [
              {
                "system": "http://terminology.hl7.org/CodeSystem/observation-category",
                "code": "laboratory"
              }
            ]
          }
        ],
        "code": {
          "coding": [
            {
              "code": "32167-9",
              "system": "http://loinc.org",
              "display": "Clarity of Urine"
            }
          ],
          "text": "Clarity of Urine"
        },
        "text": {
          "status": "generated",
          "div": "<div xmlns=\"http://www.w3.org/1999/xhtml\"><table class=\"hl7__eu__lab__report\"><tr><th>Test</th><th>01-Apr-2021</th><th>Reference&#xA0;Range</th><th>Unit</th></tr><tr><td>Clarity of Urine</td></tr></table></div>"
        },
        "status": "final",
        "subject": {
          "reference": "urn:uuid:b6271c6f-108a-4480-aacf-52ef83b3ec37",
          "display": "Marthe Gallet"
        },
        "effectiveDateTime": "2021-04-01T19:05:43Z",
        "specimen": {
          "reference": "urn:uuid:a1e448c3-1a27-4bc6-8857-2c2a58c4ab8f"
        }
      }
    },
    {
      "fullUrl": "urn:uuid:ac917ab4-182d-4df4-99f0-65071c6c2c14",
      "resource": {
        "resourceType": "Observation",
        "id": "ac917ab4-182d-4df4-99f0-65071c6c2c14",
        "meta": {
          "profile": [
            "http://hl7.eu/fhir/laboratory/StructureDefinition/Observation-resultslab-eu-lab"
          ]
        },
        "performer": [
          {
            "display": "The Central European Lab"
          }
        ],
        "category": [
          {
            "coding": [
              {
                "system": "http://terminology.hl7.org/CodeSystem/observation-category",
                "code": "laboratory"
              }
            ]
          }
        ],
        "code": {
          "coding": [
            {
              "code": "5778-6",
              "system": "http://loinc.org",
              "display": "Color of Urine"
            }
          ],
          "text": "Color of Urine"
        },
        "text": {
          "status": "generated",
          "div": "<div xmlns=\"http://www.w3.org/1999/xhtml\"><table class=\"hl7__eu__lab__report\"><tr><th>Test</th><th>01-Apr-2021</th><th>Reference&#xA0;Range</th><th>Unit</th></tr><tr><td>Color of Urine</td></tr></table></div>"
        },
        "status": "final",
        "subject": {
          "reference": "urn:uuid:b6271c6f-108a-4480-aacf-52ef83b3ec37",
          "display": "Marthe Gallet"
        },
        "effectiveDateTime": "2021-04-01T19:05:43Z",
        "specimen": {
          "reference": "urn:uuid:a1e448c3-1a27-4bc6-8857-2c2a58c4ab8f"
        }
      }
    },
    {
      "fullUrl": "urn:uuid:2fc8bd26-8d27-4541-82e4-972b27e784b2",
      "resource": {
        "resourceType": "Observation",
        "id": "2fc8bd26-8d27-4541-82e4-972b27e784b2",
        "meta": {
          "profile": [
            "http://hl7.eu/fhir/laboratory/StructureDefinition/Observation-resultslab-eu-lab"
          ]
        },
        "performer": [
          {
            "display": "The Central European Lab"
          }
        ],
        "category": [
          {
            "coding": [
              {
                "system": "http://terminology.hl7.org/CodeSystem/observation-category",
                "code": "laboratory"
              }
            ]
          }
        ],
        "code": {
          "coding": [
            {
              "code": "5792-7",
              "system": "http://loinc.org",
              "display": "Glucose [Mass/volume] in Urine by Test strip"
            }
          ],
          "text": "Glucose [Mass/volume] in Urine by Test strip"
        },
        "valueQuantity": {
          "system": "http://unitsofmeasure.org",
          "value": 1.1,
          "unit": "mg/dL",
          "code": "mg/dL"
        },
        "referenceRange": [
          {
            "low": {
              "value": 0.8,
              "code": "mg/dL",
              "system": "http://unitsofmeasure.org"
            }
          },
          {
            "high": {
              "value": 0,
              "code": "mg/dL",
              "system": "http://unitsofmeasure.org"
            }
          }
        ],
        "interpretation": [
          {
            "coding": [
              {
                "code": "H",
                "system": "http://terminology.hl7.org/CodeSystem/v3-ObservationInterpretation",
                "display": "High"
              }
            ]
          }
        ],
        "text": {
          "status": "generated",
          "div": "<div xmlns=\"http://www.w3.org/1999/xhtml\"><table class=\"hl7__eu__lab__report\"><tr><th>Test</th><th>01-Apr-2021</th><th>Reference&#xA0;Range</th><th>Unit</th></tr><tr><td>Glucose [Mass/volume] in Urine by Test strip</td><td>1.1</td><td>0.8 - 0</td><td>H</td><td>mg/dL</td></tr></table></div>"
        },
        "status": "final",
        "subject": {
          "reference": "urn:uuid:b6271c6f-108a-4480-aacf-52ef83b3ec37",
          "display": "Marthe Gallet"
        },
        "effectiveDateTime": "2021-04-01T19:05:43Z",
        "specimen": {
          "reference": "urn:uuid:a1e448c3-1a27-4bc6-8857-2c2a58c4ab8f"
        }
      }
    },
    {
      "fullUrl": "urn:uuid:139287d4-3ba4-408a-99d7-6556a881c52b",
      "resource": {
        "resourceType": "Observation",
        "id": "139287d4-3ba4-408a-99d7-6556a881c52b",
        "meta": {
          "profile": [
            "http://hl7.eu/fhir/laboratory/StructureDefinition/Observation-resultslab-eu-lab"
          ]
        },
        "performer": [
          {
            "display": "The Central European Lab"
          }
        ],
        "category": [
          {
            "coding": [
              {
                "system": "http://terminology.hl7.org/CodeSystem/observation-category",
                "code": "laboratory"
              }
            ]
          }
        ],
        "code": {
          "coding": [
            {
              "code": "25428-4",
              "system": "http://loinc.org",
              "display": "Glucose [Presence] in Urine by Test strip"
            }
          ],
          "text": "Glucose [Presence] in Urine by Test strip"
        },
        "text": {
          "status": "generated",
          "div": "<div xmlns=\"http://www.w3.org/1999/xhtml\"><table class=\"hl7__eu__lab__report\"><tr><th>Test</th><th>01-Apr-2021</th><th>Reference&#xA0;Range</th><th>Unit</th></tr><tr><td>Glucose [Presence] in Urine by Test strip</td></tr></table></div>"
        },
        "status": "final",
        "subject": {
          "reference": "urn:uuid:b6271c6f-108a-4480-aacf-52ef83b3ec37",
          "display": "Marthe Gallet"
        },
        "effectiveDateTime": "2021-04-01T19:05:43Z",
        "specimen": {
          "reference": "urn:uuid:a1e448c3-1a27-4bc6-8857-2c2a58c4ab8f"
        }
      }
    },
    {
      "fullUrl": "urn:uuid:334f0142-b03b-4997-9352-3b92c8a77d20",
      "resource": {
        "resourceType": "Observation",
        "id": "334f0142-b03b-4997-9352-3b92c8a77d20",
        "meta": {
          "profile": [
            "http://hl7.eu/fhir/laboratory/StructureDefinition/Observation-resultslab-eu-lab"
          ]
        },
        "performer": [
          {
            "display": "The Central European Lab"
          }
        ],
        "category": [
          {
            "coding": [
              {
                "system": "http://terminology.hl7.org/CodeSystem/observation-category",
                "code": "laboratory"
              }
            ]
          }
        ],
        "code": {
          "coding": [
            {
              "code": "20505-4",
              "system": "http://loinc.org",
              "display": "Bilirubin.total [Mass/volume] in Urine by Test strip"
            }
          ],
          "text": "Bilirubin.total [Mass/volume] in Urine by Test strip"
        },
        "valueQuantity": {
          "system": "http://unitsofmeasure.org",
          "value": 0.9,
          "unit": "mg/dL",
          "code": "mg/dL"
        },
        "referenceRange": [
          {
            "low": {
              "value": 0,
              "code": "mg/dL",
              "system": "http://unitsofmeasure.org"
            }
          },
          {
            "high": {
              "value": 1,
              "code": "mg/dL",
              "system": "http://unitsofmeasure.org"
            }
          }
        ],
        "text": {
          "status": "generated",
          "div": "<div xmlns=\"http://www.w3.org/1999/xhtml\"><table class=\"hl7__eu__lab__report\"><tr><th>Test</th><th>01-Apr-2021</th><th>Reference&#xA0;Range</th><th>Unit</th></tr><tr><td>Bilirubin.total [Mass/volume] in Urine by Test strip</td><td>0.9</td><td>0 - 1</td><td></td><td>mg/dL</td></tr></table></div>"
        },
        "status": "final",
        "subject": {
          "reference": "urn:uuid:b6271c6f-108a-4480-aacf-52ef83b3ec37",
          "display": "Marthe Gallet"
        },
        "effectiveDateTime": "2021-04-01T19:05:43Z",
        "specimen": {
          "reference": "urn:uuid:a1e448c3-1a27-4bc6-8857-2c2a58c4ab8f"
        }
      }
    },
    {
      "fullUrl": "urn:uuid:94207be5-723a-41f4-b2fb-3cfc1f92a64d",
      "resource": {
        "resourceType": "Observation",
        "id": "94207be5-723a-41f4-b2fb-3cfc1f92a64d",
        "meta": {
          "profile": [
            "http://hl7.eu/fhir/laboratory/StructureDefinition/Observation-resultslab-eu-lab"
          ]
        },
        "performer": [
          {
            "display": "The Central European Lab"
          }
        ],
        "category": [
          {
            "coding": [
              {
                "system": "http://terminology.hl7.org/CodeSystem/observation-category",
                "code": "laboratory"
              }
            ]
          }
        ],
        "code": {
          "coding": [
            {
              "code": "5770-3",
              "system": "http://loinc.org",
              "display": "Bilirubin.total [Presence] in Urine by Test strip"
            }
          ],
          "text": "Bilirubin.total [Presence] in Urine by Test strip"
        },
        "text": {
          "status": "generated",
          "div": "<div xmlns=\"http://www.w3.org/1999/xhtml\"><table class=\"hl7__eu__lab__report\"><tr><th>Test</th><th>01-Apr-2021</th><th>Reference&#xA0;Range</th><th>Unit</th></tr><tr><td>Bilirubin.total [Presence] in Urine by Test strip</td></tr></table></div>"
        },
        "status": "final",
        "subject": {
          "reference": "urn:uuid:b6271c6f-108a-4480-aacf-52ef83b3ec37",
          "display": "Marthe Gallet"
        },
        "effectiveDateTime": "2021-04-01T19:05:43Z",
        "specimen": {
          "reference": "urn:uuid:a1e448c3-1a27-4bc6-8857-2c2a58c4ab8f"
        }
      }
    },
    {
      "fullUrl": "urn:uuid:92b7fcc2-5965-4ebc-bf27-930a3e8ada22",
      "resource": {
        "resourceType": "Observation",
        "id": "92b7fcc2-5965-4ebc-bf27-930a3e8ada22",
        "meta": {
          "profile": [
            "http://hl7.eu/fhir/laboratory/StructureDefinition/Observation-resultslab-eu-lab"
          ]
        },
        "performer": [
          {
            "display": "The Central European Lab"
          }
        ],
        "category": [
          {
            "coding": [
              {
                "system": "http://terminology.hl7.org/CodeSystem/observation-category",
                "code": "laboratory"
              }
            ]
          }
        ],
        "code": {
          "coding": [
            {
              "code": "5797-6",
              "system": "http://loinc.org",
              "display": "Ketones [Mass/volume] in Urine by Test strip"
            }
          ],
          "text": "Ketones [Mass/volume] in Urine by Test strip"
        },
        "valueQuantity": {
          "system": "http://unitsofmeasure.org",
          "value": 15.3,
          "unit": "mg/dL",
          "code": "mg/dL"
        },
        "referenceRange": [
          {
            "low": {
              "value": 0,
              "code": "mg/dL",
              "system": "http://unitsofmeasure.org"
            }
          },
          {
            "high": {
              "value": 20,
              "code": "mg/dL",
              "system": "http://unitsofmeasure.org"
            }
          }
        ],
        "text": {
          "status": "generated",
          "div": "<div xmlns=\"http://www.w3.org/1999/xhtml\"><table class=\"hl7__eu__lab__report\"><tr><th>Test</th><th>01-Apr-2021</th><th>Reference&#xA0;Range</th><th>Unit</th></tr><tr><td>Ketones [Mass/volume] in Urine by Test strip</td><td>15.3</td><td>0 - 20</td><td></td><td>mg/dL</td></tr></table></div>"
        },
        "status": "final",
        "subject": {
          "reference": "urn:uuid:b6271c6f-108a-4480-aacf-52ef83b3ec37",
          "display": "Marthe Gallet"
        },
        "effectiveDateTime": "2021-04-01T19:05:43Z",
        "specimen": {
          "reference": "urn:uuid:a1e448c3-1a27-4bc6-8857-2c2a58c4ab8f"
        }
      }
    },
    {
      "fullUrl": "urn:uuid:55ba8d7a-307c-4ac4-9699-b04b08c87909",
      "resource": {
        "resourceType": "Observation",
        "id": "55ba8d7a-307c-4ac4-9699-b04b08c87909",
        "meta": {
          "profile": [
            "http://hl7.eu/fhir/laboratory/StructureDefinition/Observation-resultslab-eu-lab"
          ]
        },
        "performer": [
          {
            "display": "The Central European Lab"
          }
        ],
        "category": [
          {
            "coding": [
              {
                "system": "http://terminology.hl7.org/CodeSystem/observation-category",
                "code": "laboratory"
              }
            ]
          }
        ],
        "code": {
          "coding": [
            {
              "code": "2514-8",
              "system": "http://loinc.org",
              "display": "Ketones [Presence] in Urine by Test strip"
            }
          ],
          "text": "Ketones [Presence] in Urine by Test strip"
        },
        "text": {
          "status": "generated",
          "div": "<div xmlns=\"http://www.w3.org/1999/xhtml\"><table class=\"hl7__eu__lab__report\"><tr><th>Test</th><th>01-Apr-2021</th><th>Reference&#xA0;Range</th><th>Unit</th></tr><tr><td>Ketones [Presence] in Urine by Test strip</td></tr></table></div>"
        },
        "status": "final",
        "subject": {
          "reference": "urn:uuid:b6271c6f-108a-4480-aacf-52ef83b3ec37",
          "display": "Marthe Gallet"
        },
        "effectiveDateTime": "2021-04-01T19:05:43Z",
        "specimen": {
          "reference": "urn:uuid:a1e448c3-1a27-4bc6-8857-2c2a58c4ab8f"
        }
      }
    },
    {
      "fullUrl": "urn:uuid:12ba5321-90f0-40d8-9157-d9e10e242152",
      "resource": {
        "resourceType": "Observation",
        "id": "12ba5321-90f0-40d8-9157-d9e10e242152",
        "meta": {
          "profile": [
            "http://hl7.eu/fhir/laboratory/StructureDefinition/Observation-resultslab-eu-lab"
          ]
        },
        "performer": [
          {
            "display": "The Central European Lab"
          }
        ],
        "category": [
          {
            "coding": [
              {
                "system": "http://terminology.hl7.org/CodeSystem/observation-category",
                "code": "laboratory"
              }
            ]
          }
        ],
        "code": {
          "coding": [
            {
              "code": "5811-5",
              "system": "http://loinc.org",
              "display": "Specific gravity of Urine by Test strip"
            }
          ],
          "text": "Specific gravity of Urine by Test strip"
        },
        "valueQuantity": {
          "system": "http://unitsofmeasure.org",
          "value": 1,
          "unit": "{nominal}",
          "code": "{nominal}"
        },
        "referenceRange": [
          {
            "low": {
              "value": 1.01,
              "code": "g/mL",
              "system": "http://unitsofmeasure.org"
            }
          },
          {
            "high": {
              "value": 1.03,
              "code": "g/mL",
              "system": "http://unitsofmeasure.org"
            }
          }
        ],
        "interpretation": [
          {
            "coding": [
              {
                "code": "L",
                "system": "http://terminology.hl7.org/CodeSystem/v3-ObservationInterpretation",
                "display": "Low"
              }
            ]
          }
        ],
        "text": {
          "status": "generated",
          "div": "<div xmlns=\"http://www.w3.org/1999/xhtml\"><table class=\"hl7__eu__lab__report\"><tr><th>Test</th><th>01-Apr-2021</th><th>Reference&#xA0;Range</th><th>Unit</th></tr><tr><td>Specific gravity of Urine by Test strip</td><td>1.0</td><td>1.01 - 1.03</td><td>L</td><td>{nominal}</td></tr></table></div>"
        },
        "status": "final",
        "subject": {
          "reference": "urn:uuid:b6271c6f-108a-4480-aacf-52ef83b3ec37",
          "display": "Marthe Gallet"
        },
        "effectiveDateTime": "2021-04-01T19:05:43Z",
        "specimen": {
          "reference": "urn:uuid:a1e448c3-1a27-4bc6-8857-2c2a58c4ab8f"
        }
      }
    },
    {
      "fullUrl": "urn:uuid:da21a6c2-bc26-46d9-be84-4153c0540721",
      "resource": {
        "resourceType": "Observation",
        "id": "da21a6c2-bc26-46d9-be84-4153c0540721",
        "meta": {
          "profile": [
            "http://hl7.eu/fhir/laboratory/StructureDefinition/Observation-resultslab-eu-lab"
          ]
        },
        "performer": [
          {
            "display": "The Central European Lab"
          }
        ],
        "category": [
          {
            "coding": [
              {
                "system": "http://terminology.hl7.org/CodeSystem/observation-category",
                "code": "laboratory"
              }
            ]
          }
        ],
        "code": {
          "coding": [
            {
              "code": "5803-2",
              "system": "http://loinc.org",
              "display": "pH of Urine by Test strip"
            }
          ],
          "text": "pH of Urine by Test strip"
        },
        "valueQuantity": {
          "system": "http://unitsofmeasure.org",
          "value": 5.8,
          "unit": "pH",
          "code": "pH"
        },
        "referenceRange": [
          {
            "low": {
              "value": 4.6,
              "code": "pH",
              "system": "http://unitsofmeasure.org"
            }
          },
          {
            "high": {
              "value": 7,
              "code": "pH",
              "system": "http://unitsofmeasure.org"
            }
          }
        ],
        "text": {
          "status": "generated",
          "div": "<div xmlns=\"http://www.w3.org/1999/xhtml\"><table class=\"hl7__eu__lab__report\"><tr><th>Test</th><th>01-Apr-2021</th><th>Reference&#xA0;Range</th><th>Unit</th></tr><tr><td>pH of Urine by Test strip</td><td>5.8</td><td>4.6 - 7</td><td></td><td>pH</td></tr></table></div>"
        },
        "status": "final",
        "subject": {
          "reference": "urn:uuid:b6271c6f-108a-4480-aacf-52ef83b3ec37",
          "display": "Marthe Gallet"
        },
        "effectiveDateTime": "2021-04-01T19:05:43Z",
        "specimen": {
          "reference": "urn:uuid:a1e448c3-1a27-4bc6-8857-2c2a58c4ab8f"
        }
      }
    },
    {
      "fullUrl": "urn:uuid:20c3227f-f6f4-448c-92a5-bea1ba425c9b",
      "resource": {
        "resourceType": "Observation",
        "id": "20c3227f-f6f4-448c-92a5-bea1ba425c9b",
        "meta": {
          "profile": [
            "http://hl7.eu/fhir/laboratory/StructureDefinition/Observation-resultslab-eu-lab"
          ]
        },
        "performer": [
          {
            "display": "The Central European Lab"
          }
        ],
        "category": [
          {
            "coding": [
              {
                "system": "http://terminology.hl7.org/CodeSystem/observation-category",
                "code": "laboratory"
              }
            ]
          }
        ],
        "code": {
          "coding": [
            {
              "code": "5804-0",
              "system": "http://loinc.org",
              "display": "Protein [Mass/volume] in Urine by Test strip"
            }
          ],
          "text": "Protein [Mass/volume] in Urine by Test strip"
        },
        "valueQuantity": {
          "system": "http://unitsofmeasure.org",
          "value": 199.8,
          "unit": "mg/dL",
          "code": "mg/dL"
        },
        "referenceRange": [
          {
            "low": {
              "value": 0,
              "code": "mg/dL",
              "system": "http://unitsofmeasure.org"
            }
          },
          {
            "high": {
              "value": 15,
              "code": "mg/dL",
              "system": "http://unitsofmeasure.org"
            }
          }
        ],
        "interpretation": [
          {
            "coding": [
              {
                "code": "H",
                "system": "http://terminology.hl7.org/CodeSystem/v3-ObservationInterpretation",
                "display": "High"
              }
            ]
          }
        ],
        "text": {
          "status": "generated",
          "div": "<div xmlns=\"http://www.w3.org/1999/xhtml\"><table class=\"hl7__eu__lab__report\"><tr><th>Test</th><th>01-Apr-2021</th><th>Reference&#xA0;Range</th><th>Unit</th></tr><tr><td>Protein [Mass/volume] in Urine by Test strip</td><td>199.8</td><td>0 - 15</td><td>H</td><td>mg/dL</td></tr></table></div>"
        },
        "status": "final",
        "subject": {
          "reference": "urn:uuid:b6271c6f-108a-4480-aacf-52ef83b3ec37",
          "display": "Marthe Gallet"
        },
        "effectiveDateTime": "2021-04-01T19:05:43Z",
        "specimen": {
          "reference": "urn:uuid:a1e448c3-1a27-4bc6-8857-2c2a58c4ab8f"
        }
      }
    },
    {
      "fullUrl": "urn:uuid:3baa9e8d-bec5-4d32-bb1e-acd77d99ac3f",
      "resource": {
        "resourceType": "Observation",
        "id": "3baa9e8d-bec5-4d32-bb1e-acd77d99ac3f",
        "meta": {
          "profile": [
            "http://hl7.eu/fhir/laboratory/StructureDefinition/Observation-resultslab-eu-lab"
          ]
        },
        "performer": [
          {
            "display": "The Central European Lab"
          }
        ],
        "category": [
          {
            "coding": [
              {
                "system": "http://terminology.hl7.org/CodeSystem/observation-category",
                "code": "laboratory"
              }
            ]
          }
        ],
        "code": {
          "coding": [
            {
              "code": "20454-5",
              "system": "http://loinc.org",
              "display": "Protein [Presence] in Urine by Test strip"
            }
          ],
          "text": "Protein [Presence] in Urine by Test strip"
        },
        "text": {
          "status": "generated",
          "div": "<div xmlns=\"http://www.w3.org/1999/xhtml\"><table class=\"hl7__eu__lab__report\"><tr><th>Test</th><th>01-Apr-2021</th><th>Reference&#xA0;Range</th><th>Unit</th></tr><tr><td>Protein [Presence] in Urine by Test strip</td></tr></table></div>"
        },
        "status": "final",
        "subject": {
          "reference": "urn:uuid:b6271c6f-108a-4480-aacf-52ef83b3ec37",
          "display": "Marthe Gallet"
        },
        "effectiveDateTime": "2021-04-01T19:05:43Z",
        "specimen": {
          "reference": "urn:uuid:a1e448c3-1a27-4bc6-8857-2c2a58c4ab8f"
        }
      }
    },
    {
      "fullUrl": "urn:uuid:531e948f-3ac5-454d-82e6-43dc7481540e",
      "resource": {
        "resourceType": "Observation",
        "id": "531e948f-3ac5-454d-82e6-43dc7481540e",
        "meta": {
          "profile": [
            "http://hl7.eu/fhir/laboratory/StructureDefinition/Observation-resultslab-eu-lab"
          ]
        },
        "performer": [
          {
            "display": "The Central European Lab"
          }
        ],
        "category": [
          {
            "coding": [
              {
                "system": "http://terminology.hl7.org/CodeSystem/observation-category",
                "code": "laboratory"
              }
            ]
          }
        ],
        "code": {
          "coding": [
            {
              "code": "5802-4",
              "system": "http://loinc.org",
              "display": "Nitrite [Presence] in Urine by Test strip"
            }
          ],
          "text": "Nitrite [Presence] in Urine by Test strip"
        },
        "text": {
          "status": "generated",
          "div": "<div xmlns=\"http://www.w3.org/1999/xhtml\"><table class=\"hl7__eu__lab__report\"><tr><th>Test</th><th>01-Apr-2021</th><th>Reference&#xA0;Range</th><th>Unit</th></tr><tr><td>Nitrite [Presence] in Urine by Test strip</td></tr></table></div>"
        },
        "status": "final",
        "subject": {
          "reference": "urn:uuid:b6271c6f-108a-4480-aacf-52ef83b3ec37",
          "display": "Marthe Gallet"
        },
        "effectiveDateTime": "2021-04-01T19:05:43Z",
        "specimen": {
          "reference": "urn:uuid:a1e448c3-1a27-4bc6-8857-2c2a58c4ab8f"
        }
      }
    },
    {
      "fullUrl": "urn:uuid:d4b23107-2697-4879-8797-dbbd3bf57ea8",
      "resource": {
        "resourceType": "Observation",
        "id": "d4b23107-2697-4879-8797-dbbd3bf57ea8",
        "meta": {
          "profile": [
            "http://hl7.eu/fhir/laboratory/StructureDefinition/Observation-resultslab-eu-lab"
          ]
        },
        "performer": [
          {
            "display": "The Central European Lab"
          }
        ],
        "category": [
          {
            "coding": [
              {
                "system": "http://terminology.hl7.org/CodeSystem/observation-category",
                "code": "laboratory"
              }
            ]
          }
        ],
        "code": {
          "coding": [
            {
              "code": "5794-3",
              "system": "http://loinc.org",
              "display": "Hemoglobin [Presence] in Urine by Test strip"
            }
          ],
          "text": "Hemoglobin [Presence] in Urine by Test strip"
        },
        "text": {
          "status": "generated",
          "div": "<div xmlns=\"http://www.w3.org/1999/xhtml\"><table class=\"hl7__eu__lab__report\"><tr><th>Test</th><th>01-Apr-2021</th><th>Reference&#xA0;Range</th><th>Unit</th></tr><tr><td>Hemoglobin [Presence] in Urine by Test strip</td></tr></table></div>"
        },
        "status": "final",
        "subject": {
          "reference": "urn:uuid:b6271c6f-108a-4480-aacf-52ef83b3ec37",
          "display": "Marthe Gallet"
        },
        "effectiveDateTime": "2021-04-01T19:05:43Z",
        "specimen": {
          "reference": "urn:uuid:a1e448c3-1a27-4bc6-8857-2c2a58c4ab8f"
        }
      }
    },
    {
      "fullUrl": "urn:uuid:e6f288b7-a414-4bc5-a933-f7ed973bb1d6",
      "resource": {
        "resourceType": "Observation",
        "id": "e6f288b7-a414-4bc5-a933-f7ed973bb1d6",
        "meta": {
          "profile": [
            "http://hl7.eu/fhir/laboratory/StructureDefinition/Observation-resultslab-eu-lab"
          ]
        },
        "performer": [
          {
            "display": "The Central European Lab"
          }
        ],
        "category": [
          {
            "coding": [
              {
                "system": "http://terminology.hl7.org/CodeSystem/observation-category",
                "code": "laboratory"
              }
            ]
          }
        ],
        "code": {
          "coding": [
            {
              "code": "5799-2",
              "system": "http://loinc.org",
              "display": "Leukocyte esterase [Presence] in Urine by Test strip"
            }
          ],
          "text": "Leukocyte esterase [Presence] in Urine by Test strip"
        },
        "text": {
          "status": "generated",
          "div": "<div xmlns=\"http://www.w3.org/1999/xhtml\"><table class=\"hl7__eu__lab__report\"><tr><th>Test</th><th>01-Apr-2021</th><th>Reference&#xA0;Range</th><th>Unit</th></tr><tr><td>Leukocyte esterase [Presence] in Urine by Test strip</td></tr></table></div>"
        },
        "status": "final",
        "subject": {
          "reference": "urn:uuid:b6271c6f-108a-4480-aacf-52ef83b3ec37",
          "display": "Marthe Gallet"
        },
        "effectiveDateTime": "2021-04-01T19:05:43Z",
        "specimen": {
          "reference": "urn:uuid:a1e448c3-1a27-4bc6-8857-2c2a58c4ab8f"
        }
      }
    },
    {
      "fullUrl": "urn:uuid:67a9ed3f-3451-4964-8340-e782055eb885",
      "resource": {
        "resourceType": "Device",
        "id": "67a9ed3f-3451-4964-8340-e782055eb885",
        "deviceName": [
          {
            "name": "SYNDERAI Synthetic Generator",
            "type": "manufacturer-name"
          }
        ],
        "version": [
          {
            "value": "5.0"
          }
        ],
        "text": {
          "status": "generated",
          "div": "<div xmlns=\"http://www.w3.org/1999/xhtml\">SYNDERAI Synthetic Generator v5.0</div>"
        },
        "status": "active\"",
        "distinctIdentifier": "synderai-generator-50",
        "manufacturer": "SYNDERAI Project"
      }
    },
    {
      "fullUrl": "urn:uuid:ed290257-ad5d-412d-a57a-c0b1e46d9369",
      "resource": {
        "resourceType": "Provenance",
        "id": "ed290257-ad5d-412d-a57a-c0b1e46d9369",
        "target": [
          {
            "reference": "Patient/b6271c6f-108a-4480-aacf-52ef83b3ec37"
          },
          {
            "reference": "Bundle/81ae7413-85f6-40b1-a273-3ed5d3096e0a"
          },
          {
            "reference": "Composition/e6a2cfa6-f883-479c-87d7-ea334b176d4d"
          },
          {
            "reference": "PractitionerRole/b9d86951-273f-49b9-a475-6f3ca7969e57"
          },
          {
            "reference": "Practitioner/8e636523-81fb-4f12-a74c-1a5cda0bff5f"
          },
          {
            "reference": "PractitionerRole/786685b0-7955-4850-a07d-757c4d144ae9"
          },
          {
            "reference": "Organization/c5d2e9d3-1a29-446a-8193-8f44dc99e44c"
          }
        ],
        "activity": {
          "text": "Synthetic Example Data Generation"
        },
        "policy": [
          "https://synderai.net/synderai-synthetic-data-policy"
        ],
        "agent": [
          {
            "type": {
              "text": "author"
            },
            "who": {
              "reference": "Device/67a9ed3f-3451-4964-8340-e782055eb885"
            }
          }
        ],
        "reason": [
          {
            "text": "Interoperability Testing and Training (non-clinical use)"
          }
        ],
        "text": {
          "status": "generated",
          "div": "<div xmlns=\"http://www.w3.org/1999/xhtml\">Provenance for SYNDERAI Synthetic Example Data Resource</div>"
        },
        "recorded": "2021-04-01T21:05:43Z"
      }
    },
    {
      "fullUrl": "urn:uuid:b9d86951-273f-49b9-a475-6f3ca7969e57",
      "resource": {
        "resourceType": "PractitionerRole",
        "id": "b9d86951-273f-49b9-a475-6f3ca7969e57",
        "meta": {
          "profile": [
            "http://hl7.eu/fhir/base/StructureDefinition/practitionerRole-eu"
          ]
        },
        "text": {
          "status": "generated",
          "div": "<div xmlns=\"http://www.w3.org/1999/xhtml\">Laboratory Role Id: b9d86951-273f-49b9-a475-6f3ca7969e57</div>"
        },
        "practitioner": {
          "reference": "urn:uuid:8e636523-81fb-4f12-a74c-1a5cda0bff5f"
        }
      }
    },
    {
      "fullUrl": "urn:uuid:8e636523-81fb-4f12-a74c-1a5cda0bff5f",
      "resource": {
        "resourceType": "Practitioner",
        "id": "8e636523-81fb-4f12-a74c-1a5cda0bff5f",
        "meta": {
          "profile": [
            "http://hl7.eu/fhir/base/StructureDefinition/practitioner-eu"
          ]
        },
        "identifier": [
          {
            "assigner": {
              "display": "HL7 Europe"
            },
            "system": "urn:oid:2.16.840.1.113883.2.51.999",
            "value": "beb16172-1b92-43fd-ada2-e6db85c64728"
          }
        ],
        "name": [
          {
            "prefix": [
              "dr"
            ],
            "given": [
              "Ex"
            ],
            "family": "Ample"
          }
        ],
        "address": [
          {
            "line": [
              "Laboratoire Central Européenne",
              "Boulevard du Jardin Botanique 32"
            ],
            "postalCode": "1000",
            "city": "Brussels",
            "country": "Belgium"
          }
        ],
        "text": {
          "status": "generated",
          "div": "<div xmlns=\"http://www.w3.org/1999/xhtml\">Laboratory: Laboratoire Central Européenne, 1000 Brussels, Belgium</div>"
        }
      }
    }
  ],
  "type": "document",
  "timestamp": "2021-04-01T21:05:43Z"
}
