{
  "resourceType": "Bundle",
  "id": "988b2d82-ea99-4f91-a3e1-74dcb2320fae",
  "meta": {
    "profile": [
      "http://hl7.eu/fhir/laboratory/StructureDefinition/Bundle-eu-lab"
    ]
  },
  "identifier": {
    "assigner": {
      "display": "HL7 Europe"
    },
    "system": "urn:oid:2.16.840.1.113883.2.51.999",
    "value": "b77207dd-870e-4d75-bb24-7ac30b4045aa"
  },
  "entry": [
    {
      "fullUrl": "urn:uuid:b8449001-36bf-4fe9-912a-147e0b435baf",
      "resource": {
        "resourceType": "Composition",
        "id": "b8449001-36bf-4fe9-912a-147e0b435baf",
        "meta": {
          "profile": [
            "http://hl7.eu/fhir/laboratory/StructureDefinition/Composition-eu-lab"
          ]
        },
        "identifier": {
          "assigner": {
            "display": "HL7 Europe"
          },
          "system": "urn:oid:2.16.840.1.113883.2.51.999",
          "value": "eba368cc-b450-4a7b-836e-0f87d1a0d9bb"
        },
        "author": [
          {
            "reference": "urn:uuid:708e43d4-a642-4faf-971e-f4295ea7445c"
          }
        ],
        "category": [
          {
            "coding": [
              {
                "code": "26436-6",
                "system": "http://loinc.org",
                "display": "Laboratory studies (set)"
              }
            ]
          }
        ],
        "type": {
          "coding": [
            {
              "code": "11502-2",
              "system": "http://loinc.org",
              "display": "Laboratory report"
            }
          ],
          "text": "Laboratory Report"
        },
        "section": [
          {
            "code": {
              "coding": [
                {
                  "code": "26436-6",
                  "system": "http://loinc.org",
                  "display": "Laboratory studies (set)"
                }
              ],
              "text": "Laboratory studies"
            },
            "section": [
              {
                "code": {
                  "coding": [
                    {
                      "code": "$18719-5",
                      "system": "http://loinc.org",
                      "display": "Chemistry studies (set)"
                    }
                  ],
                  "text": "Chemistry"
                },
                "entry": [
                  {
                    "reference": "urn:uuid:36803ee9-a8c0-4da4-8b85-d054352db812"
                  },
                  {
                    "reference": "urn:uuid:547862e7-096e-46b0-8c77-dd311d8ee6e1"
                  },
                  {
                    "reference": "urn:uuid:a05a9e2e-4079-42ad-a69d-4bd001569183"
                  },
                  {
                    "reference": "urn:uuid:5c596ad5-6986-408f-9b77-2ec66019f370"
                  },
                  {
                    "reference": "urn:uuid:3a43e09f-755f-4edd-90dc-284a54d3da4f"
                  },
                  {
                    "reference": "urn:uuid:8053f8f4-648a-428c-8fd6-c740d08d5753"
                  },
                  {
                    "reference": "urn:uuid:3d58aa71-9031-40c8-9a5b-7f455ffd8da6"
                  },
                  {
                    "reference": "urn:uuid:fee0dedb-0b3b-42c2-abb4-0930b467f2de"
                  },
                  {
                    "reference": "urn:uuid:b023a4b4-6913-4789-9a20-11eb4f954366"
                  },
                  {
                    "reference": "urn:uuid:cbecbdca-4d36-4728-b58e-2001d9403694"
                  },
                  {
                    "reference": "urn:uuid:f019c9ea-e18b-4e51-9100-ba663d174829"
                  },
                  {
                    "reference": "urn:uuid:7ecd7eaa-4366-4748-9fe8-da962f35b29d"
                  },
                  {
                    "reference": "urn:uuid:9b81009a-a2a3-438f-bb17-c531b780be84"
                  },
                  {
                    "reference": "urn:uuid:e8f4ddd0-e442-45d8-a368-02eeb38f4975"
                  },
                  {
                    "reference": "urn:uuid:b989e134-c365-4925-9a03-fc170ab3f2ba"
                  },
                  {
                    "reference": "urn:uuid:51a597c9-0aad-4bbb-bcbf-d6b63c4d797c"
                  },
                  {
                    "reference": "urn:uuid:0bedcb79-9e29-4612-a09f-c75bcd585944"
                  },
                  {
                    "reference": "urn:uuid:33630c71-8c7e-4b8d-8819-277b9175160a"
                  }
                ],
                "text": {
                  "status": "generated",
                  "div": "<div xmlns=\"http://www.w3.org/1999/xhtml\"><h3>Chemistry</h3><table class=\"hl7__eu__lab__report\"><thead><tr><th>Test</th><th>31-OCT-2022</th><th>Reference&#xA0;Range</th><th>Unit</th></tr></thead><tbody><tr><td>Glucose [Mass/volume] in Serum or Plasma</td><td><strong>67.2 L</strong></td><td>70 - 99</td><td>mg/dL</td></tr><tr><td>Urea nitrogen [Mass/volume] in Serum or Plasma</td><td>19.6</td><td>7 - 50</td><td>mg/dL</td></tr><tr><td>Creatinine [Mass/volume] in Serum or Plasma</td><td><strong>2.1 H</strong></td><td>0.6 - 1.1</td><td>mg/dL</td></tr><tr><td>Calcium [Mass/volume] in Serum or Plasma</td><td>9.7</td><td>8.6 - 10.4</td><td>mg/dL</td></tr><tr><td>Sodium [Moles/volume] in Serum or Plasma</td><td>138.9</td><td>135 - 145</td><td>mmol/L</td></tr><tr><td>Potassium [Moles/volume] in Serum or Plasma</td><td>5.0</td><td>3.5 - 5.1</td><td>mmol/L</td></tr><tr><td>Chloride [Moles/volume] in Serum or Plasma</td><td>104.8</td><td>98 - 108</td><td>mmol/L</td></tr><tr><td>Carbon dioxide, total [Moles/volume] in Serum or Plasma</td><td>23.3</td><td>22 - 32</td><td>mmol/L</td></tr><tr><td>Ketones [Presence] in Urine by Test strip</td><td>Urine ketone test = ++</td><td></td><td></td></tr><tr><td>Hemoglobin A1c/Hemoglobin.total in Blood</td><td><strong>2.9 L</strong></td><td>4 - 6.4</td><td>%</td></tr><tr><td>Glucose [Mass/volume] in Blood</td><td><strong>67.2 L</strong></td><td>70 - 100</td><td>mg/dL</td></tr><tr><td>Urea nitrogen [Mass/volume] in Blood</td><td>19.6</td><td>7 - 43</td><td>mg/dL</td></tr><tr><td>Creatinine [Mass/volume] in Blood</td><td><strong>4.2 H</strong></td><td>0.6 - 1.1</td><td>mg/dL</td></tr><tr><td>Calcium [Mass/volume] in Blood</td><td>9.7</td><td>8.5 - 10.5</td><td>mg/dL</td></tr><tr><td>Sodium [Moles/volume] in Blood</td><td>138.9</td><td>135 - 145</td><td>mmol/L</td></tr><tr><td>Potassium [Moles/volume] in Blood</td><td>5.0</td><td>3.5 - 5.1</td><td>mmol/L</td></tr><tr><td>Chloride [Moles/volume] in Blood</td><td>104.8</td><td>98 - 108</td><td>mmol/L</td></tr><tr><td>Carbon dioxide, total [Moles/volume] in Blood</td><td>23.3</td><td>22 - 29</td><td>mmol/L</td></tr></tbody></table></div>"
                },
                "title": "Chemistry"
              },
              {
                "code": {
                  "coding": [
                    {
                      "code": "$18729-4",
                      "system": "http://loinc.org",
                      "display": "Urinalysis studies (set)"
                    }
                  ],
                  "text": "Urinalysis"
                },
                "entry": [
                  {
                    "reference": "urn:uuid:c7ddf3fe-9430-4387-a860-dadd65756775"
                  },
                  {
                    "reference": "urn:uuid:e7d0e77d-c26a-41ad-99e1-bdbaaf89cbb0"
                  },
                  {
                    "reference": "urn:uuid:47cc40e9-1589-409f-945d-2fbefbb45ceb"
                  },
                  {
                    "reference": "urn:uuid:4249c07c-1b50-4b89-b28c-09e722efa46d"
                  },
                  {
                    "reference": "urn:uuid:e67c4477-0b14-4b1d-8cb1-18a397ff4888"
                  },
                  {
                    "reference": "urn:uuid:e4024952-f1b8-4134-bb7f-781c95d77a9b"
                  },
                  {
                    "reference": "urn:uuid:890e0ab9-106f-42c1-8038-ea324a5993f6"
                  },
                  {
                    "reference": "urn:uuid:9297181b-92c6-49a4-be03-ecd66ede9eda"
                  },
                  {
                    "reference": "urn:uuid:03eaa994-2117-464c-be03-dfc982727662"
                  },
                  {
                    "reference": "urn:uuid:b40f6698-80e3-4d84-b600-bded63a65472"
                  },
                  {
                    "reference": "urn:uuid:ba5148ac-c395-407a-a817-e05e7b60287a"
                  },
                  {
                    "reference": "urn:uuid:66f74be0-e958-4fdc-8a51-98e5ef76a75a"
                  }
                ],
                "text": {
                  "status": "generated",
                  "div": "<div xmlns=\"http://www.w3.org/1999/xhtml\"><h3>Urinalysis</h3><table class=\"hl7__eu__lab__report\"><thead><tr><th>Test</th><th>31-OCT-2022</th><th>Reference&#xA0;Range</th><th>Unit</th></tr></thead><tbody><tr><td>Glucose [Mass/volume] in Urine by Test strip</td><td><strong>1.7 H</strong></td><td>0.8 - 0</td><td>mg/dL</td></tr><tr><td>Glucose [Presence] in Urine by Test strip</td><td>++</td><td></td><td></td></tr><tr><td>Bilirubin.total [Mass/volume] in Urine by Test strip</td><td>1.0</td><td>0 - 1</td><td>mg/dL</td></tr><tr><td>Bilirubin.total [Presence] in Urine by Test strip</td><td>Finding of bilirubin in urine</td><td></td><td></td></tr><tr><td>Ketones [Mass/volume] in Urine by Test strip</td><td><strong>6.0 H</strong></td><td>0 - 4</td><td>mg/dL</td></tr><tr><td>Specific gravity of Urine by Test strip</td><td><strong>1.0 L</strong></td><td>1.005 - 1.03</td><td>{nominal}</td></tr><tr><td>pH of Urine by Test strip</td><td>6.0</td><td>4.6 - 7</td><td>pH</td></tr><tr><td>Protein [Mass/volume] in Urine by Test strip</td><td><strong>357.1 H</strong></td><td>0 - 14</td><td>mg/dL</td></tr><tr><td>Protein [Presence] in Urine by Test strip</td><td>Urine protein test = ++</td><td></td><td></td></tr><tr><td>Nitrite [Presence] in Urine by Test strip</td><td>Urine nitrite negative</td><td></td><td></td></tr><tr><td>Hemoglobin [Presence] in Urine by Test strip</td><td>Urine blood test = negative</td><td></td><td></td></tr><tr><td>Leukocyte esterase [Presence] in Urine by Test strip</td><td>Urine leukocyte test negative</td><td></td><td></td></tr></tbody></table></div>"
                },
                "title": "Urinalysis"
              },
              {
                "code": {
                  "coding": [
                    {
                      "code": "$LP7846-1",
                      "system": "http://loinc.org",
                      "display": "Specimen information"
                    }
                  ],
                  "text": "Specimen information"
                },
                "entry": [
                  {
                    "reference": "urn:uuid:7f9003ac-031c-4bcd-b9fa-d2975c235b15"
                  },
                  {
                    "reference": "urn:uuid:36af889b-8e3f-4334-9ca8-2c7680bb4d3d"
                  },
                  {
                    "reference": "urn:uuid:4f83ec4d-9377-4085-9215-f30beaa713fc"
                  },
                  {
                    "reference": "urn:uuid:30b6e8b8-fd13-4088-b518-5c349c9b6e46"
                  }
                ],
                "text": {
                  "status": "generated",
                  "div": "<div xmlns=\"http://www.w3.org/1999/xhtml\"><h3>Specimen information</h3><table class=\"hl7__eu__lab__report\"><thead><tr><th>Test</th><th>31-OCT-2022</th><th>Specimen</th><th></th></tr></thead><tbody><tr><td>Appearance of Urine</td><td>Cloudy urine</td><td>Urine</td><td></td></tr><tr><td>Odor of Urine</td><td>Urine smell ammoniacal</td><td>Urine</td><td></td></tr><tr><td>Clarity of Urine</td><td>Translucent</td><td>Urine</td><td></td></tr><tr><td>Color of Urine</td><td>Brown color</td><td>Urine</td><td></td></tr></tbody></table></div>"
                },
                "title": "Specimen information"
              }
            ],
            "title": "Laboratory Report"
          },
          {
            "text": {
              "status": "generated",
              "div": "<div xmlns=\"http://www.w3.org/1999/xhtml\"><h3>Annotation</h3><table class=\"hl7__eu__lab__report\"><tr><th>Conclusion and Recommendations based on this report and previous findings known to us</th></tr><tr><td>The patient shows significant renal impairment (markedly elevated creatinine), proteinuria, and abnormal urine findings (cloudy, brown, low specific gravity, ketones, glucose, bilirubin). Blood glucose and HbA1c are low, suggesting hypoglycemia and no evidence of chronic hyperglycemia. Findings are consistent with acute or chronic kidney dysfunction, possible nephrotic syndrome, and metabolic derangements. Prompt clinical evaluation and nephrology referral are recommended.</td></tr></table></div>"
            },
            "code": {
              "coding": [
                {
                  "system": "http://loinc.org",
                  "code": "48767-8",
                  "display": "Annotation comment"
                }
              ]
            },
            "title": "Annotation comment"
          }
        ],
        "status": "final",
        "subject": {
          "reference": "urn:uuid:d40e106c-516d-4ed7-950e-ef373b96ac77",
          "display": "Meaghan Neary"
        },
        "date": "2022-10-31T23:11:04Z",
        "title": "Laboratory Report",
        "confidentiality": "N"
      }
    },
    {
      "fullUrl": "urn:uuid:c76fabfc-e82a-4a34-9219-9e10cecae58a",
      "resource": {
        "resourceType": "DiagnosticReport",
        "id": "c76fabfc-e82a-4a34-9219-9e10cecae58a",
        "meta": {
          "profile": [
            "http://hl7.eu/fhir/laboratory/StructureDefinition/DiagnosticReport-eu-lab"
          ]
        },
        "identifier": [
          {
            "assigner": {
              "display": "HL7 Europe"
            },
            "system": "urn:oid:2.16.840.1.113883.2.51.999",
            "value": "4048fbf0-f7c7-457f-b383-abb483b8cbea"
          }
        ],
        "extension": [
          {
            "url": "http://hl7.org/fhir/5.0/StructureDefinition/extension-DiagnosticReport.composition",
            "valueReference": {
              "reference": "urn:uuid:eba368cc-b450-4a7b-836e-0f87d1a0d9bb"
            }
          }
        ],
        "category": [
          {
            "coding": [
              {
                "code": "26436-6",
                "system": "http://loinc.org",
                "display": "Laboratory studies (set)"
              }
            ]
          }
        ],
        "specimen": [
          {
            "reference": "urn:uuid:929d613a-d786-4920-8b9d-809d36487028"
          },
          {
            "reference": "urn:uuid:31bcca18-74cb-4eab-b5a3-68dea62dab49"
          },
          {
            "reference": "urn:uuid:60840216-2ba7-4086-8212-4ac752a7b103"
          }
        ],
        "result": [
          {
            "reference": "urn:uuid:36803ee9-a8c0-4da4-8b85-d054352db812"
          },
          {
            "reference": "urn:uuid:547862e7-096e-46b0-8c77-dd311d8ee6e1"
          },
          {
            "reference": "urn:uuid:a05a9e2e-4079-42ad-a69d-4bd001569183"
          },
          {
            "reference": "urn:uuid:5c596ad5-6986-408f-9b77-2ec66019f370"
          },
          {
            "reference": "urn:uuid:3a43e09f-755f-4edd-90dc-284a54d3da4f"
          },
          {
            "reference": "urn:uuid:8053f8f4-648a-428c-8fd6-c740d08d5753"
          },
          {
            "reference": "urn:uuid:3d58aa71-9031-40c8-9a5b-7f455ffd8da6"
          },
          {
            "reference": "urn:uuid:fee0dedb-0b3b-42c2-abb4-0930b467f2de"
          },
          {
            "reference": "urn:uuid:7f9003ac-031c-4bcd-b9fa-d2975c235b15"
          },
          {
            "reference": "urn:uuid:36af889b-8e3f-4334-9ca8-2c7680bb4d3d"
          },
          {
            "reference": "urn:uuid:4f83ec4d-9377-4085-9215-f30beaa713fc"
          },
          {
            "reference": "urn:uuid:30b6e8b8-fd13-4088-b518-5c349c9b6e46"
          },
          {
            "reference": "urn:uuid:c7ddf3fe-9430-4387-a860-dadd65756775"
          },
          {
            "reference": "urn:uuid:e7d0e77d-c26a-41ad-99e1-bdbaaf89cbb0"
          },
          {
            "reference": "urn:uuid:47cc40e9-1589-409f-945d-2fbefbb45ceb"
          },
          {
            "reference": "urn:uuid:4249c07c-1b50-4b89-b28c-09e722efa46d"
          },
          {
            "reference": "urn:uuid:e67c4477-0b14-4b1d-8cb1-18a397ff4888"
          },
          {
            "reference": "urn:uuid:b023a4b4-6913-4789-9a20-11eb4f954366"
          },
          {
            "reference": "urn:uuid:e4024952-f1b8-4134-bb7f-781c95d77a9b"
          },
          {
            "reference": "urn:uuid:890e0ab9-106f-42c1-8038-ea324a5993f6"
          },
          {
            "reference": "urn:uuid:9297181b-92c6-49a4-be03-ecd66ede9eda"
          },
          {
            "reference": "urn:uuid:03eaa994-2117-464c-be03-dfc982727662"
          },
          {
            "reference": "urn:uuid:b40f6698-80e3-4d84-b600-bded63a65472"
          },
          {
            "reference": "urn:uuid:ba5148ac-c395-407a-a817-e05e7b60287a"
          },
          {
            "reference": "urn:uuid:66f74be0-e958-4fdc-8a51-98e5ef76a75a"
          },
          {
            "reference": "urn:uuid:cbecbdca-4d36-4728-b58e-2001d9403694"
          },
          {
            "reference": "urn:uuid:f019c9ea-e18b-4e51-9100-ba663d174829"
          },
          {
            "reference": "urn:uuid:7ecd7eaa-4366-4748-9fe8-da962f35b29d"
          },
          {
            "reference": "urn:uuid:9b81009a-a2a3-438f-bb17-c531b780be84"
          },
          {
            "reference": "urn:uuid:e8f4ddd0-e442-45d8-a368-02eeb38f4975"
          },
          {
            "reference": "urn:uuid:b989e134-c365-4925-9a03-fc170ab3f2ba"
          },
          {
            "reference": "urn:uuid:51a597c9-0aad-4bbb-bcbf-d6b63c4d797c"
          },
          {
            "reference": "urn:uuid:0bedcb79-9e29-4612-a09f-c75bcd585944"
          },
          {
            "reference": "urn:uuid:33630c71-8c7e-4b8d-8819-277b9175160a"
          }
        ],
        "status": "registered",
        "code": {
          "coding": [
            {
              "code": "11502-2",
              "system": "http://loinc.org",
              "display": "Laboratory report"
            }
          ]
        },
        "subject": {
          "reference": "urn:uuid:d40e106c-516d-4ed7-950e-ef373b96ac77",
          "display": "Meaghan Neary"
        }
      }
    },
    {
      "fullUrl": "urn:uuid:d40e106c-516d-4ed7-950e-ef373b96ac77",
      "resource": {
        "resourceType": "Patient",
        "id": "d40e106c-516d-4ed7-950e-ef373b96ac77",
        "meta": {
          "security": [
            {
              "system": "http://terminology.hl7.org/CodeSystem/v3-ActReason",
              "code": "HTEST"
            },
            {
              "system": "http://terminology.hl7.org/CodeSystem/v3-ActReason",
              "code": "TRAIN"
            }
          ],
          "tag": [
            {
              "system": "https://synderai.net/fhir/CodeSystem/tags",
              "code": "synthetic",
              "display": "SYNDERAI Synthetic data"
            }
          ],
          "profile": [
            "http://hl7.eu/fhir/base/StructureDefinition/patient-eu-core"
          ]
        },
        "identifier": [
          {
            "type": {
              "coding": [
                {
                  "code": "PT",
                  "system": "http://terminology.hl7.org/CodeSystem/v2-0203"
                }
              ]
            },
            "system": "http://ec.europa.eu/identifier/eci",
            "value": "1586-567257-8"
          },
          {
            "type": {
              "coding": [
                {
                  "code": "MR",
                  "system": "http://terminology.hl7.org/CodeSystem/v2-0203"
                }
              ]
            },
            "system": "http://local.setting.eu/identifier",
            "value": "443e6379-f231-b364-3ccb-644740a1aa2a"
          }
        ],
        "name": [
          {
            "family": "Neary"
          },
          {
            "given": [
              "Meaghan"
            ]
          },
          {
            "text": "Meaghan Neary"
          }
        ],
        "address": [
          {
            "line": [
              "64 Linskey Street"
            ],
            "use": "home",
            "type": "physical",
            "postalCode": "D02",
            "city": "Dublin",
            "country": "Ireland"
          }
        ],
        "telecom": [
          {
            "system": "phone",
            "value": "001-967-573-0911x465"
          }
        ],
        "extension": [
          {
            "url": "http://hl7.org/fhir/StructureDefinition/patient-nationality",
            "valueCodeableConcept": {
              "coding": [
                {
                  "code": "IE",
                  "system": "http://hl7.org/fhir/ValueSet/country"
                }
              ]
            }
          }
        ],
        "text": {
          "status": "generated",
          "div": "<div xmlns=\"http://www.w3.org/1999/xhtml\"><table class=\"hl7__ips\"><tr><td>Meaghan Neary</td><td>female</td><td>19-Dec-1960</td></tr></table></div>"
        },
        "gender": "female",
        "birthDate": "1960-12-19"
      }
    },
    {
      "fullUrl": "urn:uuid:90f63aff-1015-4d28-8766-9faf56e2fc88",
      "resource": {
        "resourceType": "ServiceRequest",
        "id": "90f63aff-1015-4d28-8766-9faf56e2fc88",
        "meta": {
          "profile": [
            "http://hl7.eu/fhir/laboratory/StructureDefinition/ServiceRequest-eu-lab"
          ]
        },
        "identifier": [
          {
            "system": "http://example.org",
            "value": "894a03ac-2cfe-42b7-b7d1-ad5aeb2ef7a9"
          }
        ],
        "specimen": [
          {
            "reference": "urn:uuid:929d613a-d786-4920-8b9d-809d36487028"
          },
          {
            "reference": "urn:uuid:31bcca18-74cb-4eab-b5a3-68dea62dab49"
          },
          {
            "reference": "urn:uuid:60840216-2ba7-4086-8212-4ac752a7b103"
          }
        ],
        "reasonCode": [
          {
            "coding": [
              {
                "code": "55822004",
                "system": "http://snomed.info/sct",
                "display": "Hyperlipidemia"
              }
            ]
          },
          {
            "coding": [
              {
                "code": "433144002",
                "system": "http://snomed.info/sct",
                "display": "Chronic kidney disease stage 3"
              }
            ]
          },
          {
            "coding": [
              {
                "code": "157141000119108",
                "system": "http://snomed.info/sct",
                "display": "Proteinuria due to type 2 diabetes mellitus"
              }
            ]
          },
          {
            "coding": [
              {
                "code": "431856006",
                "system": "http://snomed.info/sct",
                "display": "Chronic kidney disease stage 2"
              }
            ]
          },
          {
            "coding": [
              {
                "code": "90781000119102",
                "system": "http://snomed.info/sct",
                "display": "Microalbuminuria due to type 2 diabetes mellitus"
              }
            ]
          },
          {
            "coding": [
              {
                "code": "127013003",
                "system": "http://snomed.info/sct",
                "display": "Disorder of kidney due to diabetes mellitus"
              }
            ]
          },
          {
            "coding": [
              {
                "code": "431855005",
                "system": "http://snomed.info/sct",
                "display": "Chronic kidney disease stage 1"
              }
            ]
          },
          {
            "coding": [
              {
                "code": "237602007",
                "system": "http://snomed.info/sct",
                "display": "Metabolic syndrome X"
              }
            ]
          },
          {
            "coding": [
              {
                "code": "271737000",
                "system": "http://snomed.info/sct",
                "display": "Anemia"
              }
            ]
          },
          {
            "coding": [
              {
                "code": "15777000",
                "system": "http://snomed.info/sct",
                "display": "Prediabetes"
              }
            ]
          },
          {
            "coding": [
              {
                "code": "59621000",
                "system": "http://snomed.info/sct",
                "display": "Essential hypertension"
              }
            ]
          }
        ],
        "status": "active",
        "intent": "order",
        "code": {
          "coding": [
            {
              "code": "108252007",
              "system": "http://snomed.info/sct",
              "display": "Laboratory procedure"
            }
          ]
        },
        "subject": {
          "reference": "urn:uuid:d40e106c-516d-4ed7-950e-ef373b96ac77",
          "display": "Meaghan Neary"
        },
        "requester": {
          "reference": "urn:uuid:50821604-b6bb-43f8-bd52-df7815413fb3"
        }
      }
    },
    {
      "fullUrl": "urn:uuid:50821604-b6bb-43f8-bd52-df7815413fb3",
      "resource": {
        "resourceType": "PractitionerRole",
        "id": "50821604-b6bb-43f8-bd52-df7815413fb3",
        "meta": {
          "profile": [
            "http://hl7.eu/fhir/base/StructureDefinition/practitionerRole-eu"
          ]
        },
        "text": {
          "status": "generated",
          "div": "<div xmlns=\"http://www.w3.org/1999/xhtml\">Provider Role Id: 50821604-b6bb-43f8-bd52-df7815413fb3</div>"
        },
        "organization": {
          "reference": "urn:uuid:ff2f466d-48bf-467c-9a02-5f9ff13cd767"
        }
      }
    },
    {
      "fullUrl": "urn:uuid:ff2f466d-48bf-467c-9a02-5f9ff13cd767",
      "resource": {
        "resourceType": "Organization",
        "id": "ff2f466d-48bf-467c-9a02-5f9ff13cd767",
        "meta": {
          "profile": [
            "http://hl7.eu/fhir/base/StructureDefinition/organization-eu"
          ]
        },
        "identifier": [
          {
            "assigner": {
              "display": "HL7 Europe"
            },
            "system": "urn:oid:2.16.840.1.113883.2.51.999",
            "value": "f75421ff-90f5-4073-85b4-b142fa753baf"
          }
        ],
        "address": [
          {
            "line": [
              "Parnell Square West nan"
            ],
            "city": "Dublin",
            "postalCode": "D01",
            "country": "Ireland"
          }
        ],
        "text": {
          "status": "generated",
          "div": "<div xmlns=\"http://www.w3.org/1999/xhtml\">Provider Organization: Rotunda Hospital</div>"
        },
        "name": "Rotunda Hospital"
      }
    },
    {
      "fullUrl": "urn:uuid:929d613a-d786-4920-8b9d-809d36487028",
      "resource": {
        "resourceType": "Specimen",
        "id": "929d613a-d786-4920-8b9d-809d36487028",
        "meta": {
          "profile": [
            "http://hl7.eu/fhir/laboratory/StructureDefinition/Specimen-eu-lab"
          ]
        },
        "collection": {
          "collectedDateTime": "2022-10-31"
        },
        "text": {
          "status": "generated",
          "div": "<div xmlns=\"http://www.w3.org/1999/xhtml\"><table class=\"hl7__eu__lab__report\"><tr><th>Specimen</th><th>Collection Date</th></tr><tr><td>Acellular blood (serum or plasma) specimen</td><td><span class=\"nb\">31-Oct-2022</span></td></tr></table></div>"
        },
        "type": {
          "coding": [
            {
              "code": "122592007",
              "system": "http://snomed.info/sct",
              "display": "Acellular blood (serum or plasma) specimen"
            }
          ]
        }
      }
    },
    {
      "fullUrl": "urn:uuid:31bcca18-74cb-4eab-b5a3-68dea62dab49",
      "resource": {
        "resourceType": "Specimen",
        "id": "31bcca18-74cb-4eab-b5a3-68dea62dab49",
        "meta": {
          "profile": [
            "http://hl7.eu/fhir/laboratory/StructureDefinition/Specimen-eu-lab"
          ]
        },
        "collection": {
          "collectedDateTime": "2022-10-31"
        },
        "text": {
          "status": "generated",
          "div": "<div xmlns=\"http://www.w3.org/1999/xhtml\"><table class=\"hl7__eu__lab__report\"><tr><th>Specimen</th><th>Collection Date</th></tr><tr><td>Urine specimen</td><td><span class=\"nb\">31-Oct-2022</span></td></tr></table></div>"
        },
        "type": {
          "coding": [
            {
              "code": "122575003",
              "system": "http://snomed.info/sct",
              "display": "Urine specimen"
            }
          ]
        }
      }
    },
    {
      "fullUrl": "urn:uuid:60840216-2ba7-4086-8212-4ac752a7b103",
      "resource": {
        "resourceType": "Specimen",
        "id": "60840216-2ba7-4086-8212-4ac752a7b103",
        "meta": {
          "profile": [
            "http://hl7.eu/fhir/laboratory/StructureDefinition/Specimen-eu-lab"
          ]
        },
        "collection": {
          "collectedDateTime": "2022-10-31"
        },
        "text": {
          "status": "generated",
          "div": "<div xmlns=\"http://www.w3.org/1999/xhtml\"><table class=\"hl7__eu__lab__report\"><tr><th>Specimen</th><th>Collection Date</th></tr><tr><td>Whole blood specimen (specimen)</td><td><span class=\"nb\">31-Oct-2022</span></td></tr></table></div>"
        },
        "type": {
          "coding": [
            {
              "code": "258580003",
              "system": "http://snomed.info/sct",
              "display": "Whole blood specimen (specimen)"
            }
          ]
        }
      }
    },
    {
      "fullUrl": "urn:uuid:36803ee9-a8c0-4da4-8b85-d054352db812",
      "resource": {
        "resourceType": "Observation",
        "id": "36803ee9-a8c0-4da4-8b85-d054352db812",
        "meta": {
          "profile": [
            "http://hl7.eu/fhir/laboratory/StructureDefinition/Observation-resultslab-eu-lab"
          ]
        },
        "performer": [
          {
            "display": "The Central European Lab"
          }
        ],
        "category": [
          {
            "coding": [
              {
                "system": "http://terminology.hl7.org/CodeSystem/observation-category",
                "code": "laboratory"
              }
            ]
          }
        ],
        "code": {
          "coding": [
            {
              "code": "2345-7",
              "system": "http://loinc.org",
              "display": "Glucose [Mass/volume] in Serum or Plasma"
            }
          ],
          "text": "Glucose [Mass/volume] in Serum or Plasma"
        },
        "valueQuantity": {
          "system": "http://unitsofmeasure.org",
          "value": 67.2,
          "unit": "mg/dL",
          "code": "mg/dL"
        },
        "referenceRange": [
          {
            "low": {
              "value": 70,
              "code": "mg/dL",
              "system": "http://unitsofmeasure.org"
            }
          },
          {
            "high": {
              "value": 99,
              "code": "mg/dL",
              "system": "http://unitsofmeasure.org"
            }
          }
        ],
        "interpretation": [
          {
            "coding": [
              {
                "code": "L",
                "system": "http://terminology.hl7.org/CodeSystem/v3-ObservationInterpretation",
                "display": "Low"
              }
            ]
          }
        ],
        "text": {
          "status": "generated",
          "div": "<div xmlns=\"http://www.w3.org/1999/xhtml\"><table class=\"hl7__eu__lab__report\"><tr><th>Test</th><th>31-Oct-2022</th><th>Reference&#xA0;Range</th><th>Unit</th></tr><tr><td>Glucose [Mass/volume] in Serum or Plasma</td><td>67.2</td><td>70 - 99</td><td>L</td><td>mg/dL</td></tr></table></div>"
        },
        "status": "final",
        "subject": {
          "reference": "urn:uuid:d40e106c-516d-4ed7-950e-ef373b96ac77",
          "display": "Meaghan Neary"
        },
        "effectiveDateTime": "2022-10-31T22:11:04Z",
        "specimen": {
          "reference": "urn:uuid:929d613a-d786-4920-8b9d-809d36487028"
        }
      }
    },
    {
      "fullUrl": "urn:uuid:547862e7-096e-46b0-8c77-dd311d8ee6e1",
      "resource": {
        "resourceType": "Observation",
        "id": "547862e7-096e-46b0-8c77-dd311d8ee6e1",
        "meta": {
          "profile": [
            "http://hl7.eu/fhir/laboratory/StructureDefinition/Observation-resultslab-eu-lab"
          ]
        },
        "performer": [
          {
            "display": "The Central European Lab"
          }
        ],
        "category": [
          {
            "coding": [
              {
                "system": "http://terminology.hl7.org/CodeSystem/observation-category",
                "code": "laboratory"
              }
            ]
          }
        ],
        "code": {
          "coding": [
            {
              "code": "3094-0",
              "system": "http://loinc.org",
              "display": "Urea nitrogen [Mass/volume] in Serum or Plasma"
            }
          ],
          "text": "Urea nitrogen [Mass/volume] in Serum or Plasma"
        },
        "valueQuantity": {
          "system": "http://unitsofmeasure.org",
          "value": 19.6,
          "unit": "mg/dL",
          "code": "mg/dL"
        },
        "referenceRange": [
          {
            "low": {
              "value": 7,
              "code": "mg/dL",
              "system": "http://unitsofmeasure.org"
            }
          },
          {
            "high": {
              "value": 50,
              "code": "mg/dL",
              "system": "http://unitsofmeasure.org"
            }
          }
        ],
        "text": {
          "status": "generated",
          "div": "<div xmlns=\"http://www.w3.org/1999/xhtml\"><table class=\"hl7__eu__lab__report\"><tr><th>Test</th><th>31-Oct-2022</th><th>Reference&#xA0;Range</th><th>Unit</th></tr><tr><td>Urea nitrogen [Mass/volume] in Serum or Plasma</td><td>19.6</td><td>7 - 50</td><td></td><td>mg/dL</td></tr></table></div>"
        },
        "status": "final",
        "subject": {
          "reference": "urn:uuid:d40e106c-516d-4ed7-950e-ef373b96ac77",
          "display": "Meaghan Neary"
        },
        "effectiveDateTime": "2022-10-31T22:11:04Z",
        "specimen": {
          "reference": "urn:uuid:929d613a-d786-4920-8b9d-809d36487028"
        }
      }
    },
    {
      "fullUrl": "urn:uuid:a05a9e2e-4079-42ad-a69d-4bd001569183",
      "resource": {
        "resourceType": "Observation",
        "id": "a05a9e2e-4079-42ad-a69d-4bd001569183",
        "meta": {
          "profile": [
            "http://hl7.eu/fhir/laboratory/StructureDefinition/Observation-resultslab-eu-lab"
          ]
        },
        "performer": [
          {
            "display": "The Central European Lab"
          }
        ],
        "category": [
          {
            "coding": [
              {
                "system": "http://terminology.hl7.org/CodeSystem/observation-category",
                "code": "laboratory"
              }
            ]
          }
        ],
        "code": {
          "coding": [
            {
              "code": "2160-0",
              "system": "http://loinc.org",
              "display": "Creatinine [Mass/volume] in Serum or Plasma"
            }
          ],
          "text": "Creatinine [Mass/volume] in Serum or Plasma"
        },
        "valueQuantity": {
          "system": "http://unitsofmeasure.org",
          "value": 2.1,
          "unit": "mg/dL",
          "code": "mg/dL"
        },
        "referenceRange": [
          {
            "low": {
              "value": 0.6,
              "code": "mg/dL",
              "system": "http://unitsofmeasure.org"
            }
          },
          {
            "high": {
              "value": 1.1,
              "code": "mg/dL",
              "system": "http://unitsofmeasure.org"
            }
          }
        ],
        "interpretation": [
          {
            "coding": [
              {
                "code": "H",
                "system": "http://terminology.hl7.org/CodeSystem/v3-ObservationInterpretation",
                "display": "High"
              }
            ]
          }
        ],
        "text": {
          "status": "generated",
          "div": "<div xmlns=\"http://www.w3.org/1999/xhtml\"><table class=\"hl7__eu__lab__report\"><tr><th>Test</th><th>31-Oct-2022</th><th>Reference&#xA0;Range</th><th>Unit</th></tr><tr><td>Creatinine [Mass/volume] in Serum or Plasma</td><td>2.1</td><td>0.6 - 1.1</td><td>H</td><td>mg/dL</td></tr></table></div>"
        },
        "status": "final",
        "subject": {
          "reference": "urn:uuid:d40e106c-516d-4ed7-950e-ef373b96ac77",
          "display": "Meaghan Neary"
        },
        "effectiveDateTime": "2022-10-31T22:11:04Z",
        "specimen": {
          "reference": "urn:uuid:929d613a-d786-4920-8b9d-809d36487028"
        }
      }
    },
    {
      "fullUrl": "urn:uuid:5c596ad5-6986-408f-9b77-2ec66019f370",
      "resource": {
        "resourceType": "Observation",
        "id": "5c596ad5-6986-408f-9b77-2ec66019f370",
        "meta": {
          "profile": [
            "http://hl7.eu/fhir/laboratory/StructureDefinition/Observation-resultslab-eu-lab"
          ]
        },
        "performer": [
          {
            "display": "The Central European Lab"
          }
        ],
        "category": [
          {
            "coding": [
              {
                "system": "http://terminology.hl7.org/CodeSystem/observation-category",
                "code": "laboratory"
              }
            ]
          }
        ],
        "code": {
          "coding": [
            {
              "code": "17861-6",
              "system": "http://loinc.org",
              "display": "Calcium [Mass/volume] in Serum or Plasma"
            }
          ],
          "text": "Calcium [Mass/volume] in Serum or Plasma"
        },
        "valueQuantity": {
          "system": "http://unitsofmeasure.org",
          "value": 9.7,
          "unit": "mg/dL",
          "code": "mg/dL"
        },
        "referenceRange": [
          {
            "low": {
              "value": 8.6,
              "code": "mg/dL",
              "system": "http://unitsofmeasure.org"
            }
          },
          {
            "high": {
              "value": 10.4,
              "code": "mg/dL",
              "system": "http://unitsofmeasure.org"
            }
          }
        ],
        "text": {
          "status": "generated",
          "div": "<div xmlns=\"http://www.w3.org/1999/xhtml\"><table class=\"hl7__eu__lab__report\"><tr><th>Test</th><th>31-Oct-2022</th><th>Reference&#xA0;Range</th><th>Unit</th></tr><tr><td>Calcium [Mass/volume] in Serum or Plasma</td><td>9.7</td><td>8.6 - 10.4</td><td></td><td>mg/dL</td></tr></table></div>"
        },
        "status": "final",
        "subject": {
          "reference": "urn:uuid:d40e106c-516d-4ed7-950e-ef373b96ac77",
          "display": "Meaghan Neary"
        },
        "effectiveDateTime": "2022-10-31T22:11:04Z",
        "specimen": {
          "reference": "urn:uuid:929d613a-d786-4920-8b9d-809d36487028"
        }
      }
    },
    {
      "fullUrl": "urn:uuid:3a43e09f-755f-4edd-90dc-284a54d3da4f",
      "resource": {
        "resourceType": "Observation",
        "id": "3a43e09f-755f-4edd-90dc-284a54d3da4f",
        "meta": {
          "profile": [
            "http://hl7.eu/fhir/laboratory/StructureDefinition/Observation-resultslab-eu-lab"
          ]
        },
        "performer": [
          {
            "display": "The Central European Lab"
          }
        ],
        "category": [
          {
            "coding": [
              {
                "system": "http://terminology.hl7.org/CodeSystem/observation-category",
                "code": "laboratory"
              }
            ]
          }
        ],
        "code": {
          "coding": [
            {
              "code": "2951-2",
              "system": "http://loinc.org",
              "display": "Sodium [Moles/volume] in Serum or Plasma"
            }
          ],
          "text": "Sodium [Moles/volume] in Serum or Plasma"
        },
        "valueQuantity": {
          "system": "http://unitsofmeasure.org",
          "value": 138.9,
          "unit": "mmol/L",
          "code": "mmol/L"
        },
        "referenceRange": [
          {
            "low": {
              "value": 135,
              "code": "mmol/L",
              "system": "http://unitsofmeasure.org"
            }
          },
          {
            "high": {
              "value": 145,
              "code": "mmol/L",
              "system": "http://unitsofmeasure.org"
            }
          }
        ],
        "text": {
          "status": "generated",
          "div": "<div xmlns=\"http://www.w3.org/1999/xhtml\"><table class=\"hl7__eu__lab__report\"><tr><th>Test</th><th>31-Oct-2022</th><th>Reference&#xA0;Range</th><th>Unit</th></tr><tr><td>Sodium [Moles/volume] in Serum or Plasma</td><td>138.9</td><td>135 - 145</td><td></td><td>mmol/L</td></tr></table></div>"
        },
        "status": "final",
        "subject": {
          "reference": "urn:uuid:d40e106c-516d-4ed7-950e-ef373b96ac77",
          "display": "Meaghan Neary"
        },
        "effectiveDateTime": "2022-10-31T22:11:04Z",
        "specimen": {
          "reference": "urn:uuid:929d613a-d786-4920-8b9d-809d36487028"
        }
      }
    },
    {
      "fullUrl": "urn:uuid:8053f8f4-648a-428c-8fd6-c740d08d5753",
      "resource": {
        "resourceType": "Observation",
        "id": "8053f8f4-648a-428c-8fd6-c740d08d5753",
        "meta": {
          "profile": [
            "http://hl7.eu/fhir/laboratory/StructureDefinition/Observation-resultslab-eu-lab"
          ]
        },
        "performer": [
          {
            "display": "The Central European Lab"
          }
        ],
        "category": [
          {
            "coding": [
              {
                "system": "http://terminology.hl7.org/CodeSystem/observation-category",
                "code": "laboratory"
              }
            ]
          }
        ],
        "code": {
          "coding": [
            {
              "code": "2823-3",
              "system": "http://loinc.org",
              "display": "Potassium [Moles/volume] in Serum or Plasma"
            }
          ],
          "text": "Potassium [Moles/volume] in Serum or Plasma"
        },
        "valueQuantity": {
          "system": "http://unitsofmeasure.org",
          "value": 5,
          "unit": "mmol/L",
          "code": "mmol/L"
        },
        "referenceRange": [
          {
            "low": {
              "value": 3.5,
              "code": "mmol/L",
              "system": "http://unitsofmeasure.org"
            }
          },
          {
            "high": {
              "value": 5.1,
              "code": "mmol/L",
              "system": "http://unitsofmeasure.org"
            }
          }
        ],
        "text": {
          "status": "generated",
          "div": "<div xmlns=\"http://www.w3.org/1999/xhtml\"><table class=\"hl7__eu__lab__report\"><tr><th>Test</th><th>31-Oct-2022</th><th>Reference&#xA0;Range</th><th>Unit</th></tr><tr><td>Potassium [Moles/volume] in Serum or Plasma</td><td>5.0</td><td>3.5 - 5.1</td><td></td><td>mmol/L</td></tr></table></div>"
        },
        "status": "final",
        "subject": {
          "reference": "urn:uuid:d40e106c-516d-4ed7-950e-ef373b96ac77",
          "display": "Meaghan Neary"
        },
        "effectiveDateTime": "2022-10-31T22:11:04Z",
        "specimen": {
          "reference": "urn:uuid:929d613a-d786-4920-8b9d-809d36487028"
        }
      }
    },
    {
      "fullUrl": "urn:uuid:3d58aa71-9031-40c8-9a5b-7f455ffd8da6",
      "resource": {
        "resourceType": "Observation",
        "id": "3d58aa71-9031-40c8-9a5b-7f455ffd8da6",
        "meta": {
          "profile": [
            "http://hl7.eu/fhir/laboratory/StructureDefinition/Observation-resultslab-eu-lab"
          ]
        },
        "performer": [
          {
            "display": "The Central European Lab"
          }
        ],
        "category": [
          {
            "coding": [
              {
                "system": "http://terminology.hl7.org/CodeSystem/observation-category",
                "code": "laboratory"
              }
            ]
          }
        ],
        "code": {
          "coding": [
            {
              "code": "2075-0",
              "system": "http://loinc.org",
              "display": "Chloride [Moles/volume] in Serum or Plasma"
            }
          ],
          "text": "Chloride [Moles/volume] in Serum or Plasma"
        },
        "valueQuantity": {
          "system": "http://unitsofmeasure.org",
          "value": 104.8,
          "unit": "mmol/L",
          "code": "mmol/L"
        },
        "referenceRange": [
          {
            "low": {
              "value": 98,
              "code": "mmol/L",
              "system": "http://unitsofmeasure.org"
            }
          },
          {
            "high": {
              "value": 108,
              "code": "mmol/L",
              "system": "http://unitsofmeasure.org"
            }
          }
        ],
        "text": {
          "status": "generated",
          "div": "<div xmlns=\"http://www.w3.org/1999/xhtml\"><table class=\"hl7__eu__lab__report\"><tr><th>Test</th><th>31-Oct-2022</th><th>Reference&#xA0;Range</th><th>Unit</th></tr><tr><td>Chloride [Moles/volume] in Serum or Plasma</td><td>104.8</td><td>98 - 108</td><td></td><td>mmol/L</td></tr></table></div>"
        },
        "status": "final",
        "subject": {
          "reference": "urn:uuid:d40e106c-516d-4ed7-950e-ef373b96ac77",
          "display": "Meaghan Neary"
        },
        "effectiveDateTime": "2022-10-31T22:11:04Z",
        "specimen": {
          "reference": "urn:uuid:929d613a-d786-4920-8b9d-809d36487028"
        }
      }
    },
    {
      "fullUrl": "urn:uuid:fee0dedb-0b3b-42c2-abb4-0930b467f2de",
      "resource": {
        "resourceType": "Observation",
        "id": "fee0dedb-0b3b-42c2-abb4-0930b467f2de",
        "meta": {
          "profile": [
            "http://hl7.eu/fhir/laboratory/StructureDefinition/Observation-resultslab-eu-lab"
          ]
        },
        "performer": [
          {
            "display": "The Central European Lab"
          }
        ],
        "category": [
          {
            "coding": [
              {
                "system": "http://terminology.hl7.org/CodeSystem/observation-category",
                "code": "laboratory"
              }
            ]
          }
        ],
        "code": {
          "coding": [
            {
              "code": "2028-9",
              "system": "http://loinc.org",
              "display": "Carbon dioxide, total [Moles/volume] in Serum or Plasma"
            }
          ],
          "text": "Carbon dioxide, total [Moles/volume] in Serum or Plasma"
        },
        "valueQuantity": {
          "system": "http://unitsofmeasure.org",
          "value": 23.3,
          "unit": "mmol/L",
          "code": "mmol/L"
        },
        "referenceRange": [
          {
            "low": {
              "value": 22,
              "code": "mmol/L",
              "system": "http://unitsofmeasure.org"
            }
          },
          {
            "high": {
              "value": 32,
              "code": "mmol/L",
              "system": "http://unitsofmeasure.org"
            }
          }
        ],
        "text": {
          "status": "generated",
          "div": "<div xmlns=\"http://www.w3.org/1999/xhtml\"><table class=\"hl7__eu__lab__report\"><tr><th>Test</th><th>31-Oct-2022</th><th>Reference&#xA0;Range</th><th>Unit</th></tr><tr><td>Carbon dioxide, total [Moles/volume] in Serum or Plasma</td><td>23.3</td><td>22 - 32</td><td></td><td>mmol/L</td></tr></table></div>"
        },
        "status": "final",
        "subject": {
          "reference": "urn:uuid:d40e106c-516d-4ed7-950e-ef373b96ac77",
          "display": "Meaghan Neary"
        },
        "effectiveDateTime": "2022-10-31T22:11:04Z",
        "specimen": {
          "reference": "urn:uuid:929d613a-d786-4920-8b9d-809d36487028"
        }
      }
    },
    {
      "fullUrl": "urn:uuid:7f9003ac-031c-4bcd-b9fa-d2975c235b15",
      "resource": {
        "resourceType": "Observation",
        "id": "7f9003ac-031c-4bcd-b9fa-d2975c235b15",
        "meta": {
          "profile": [
            "http://hl7.eu/fhir/laboratory/StructureDefinition/Observation-resultslab-eu-lab"
          ]
        },
        "performer": [
          {
            "display": "The Central European Lab"
          }
        ],
        "category": [
          {
            "coding": [
              {
                "system": "http://terminology.hl7.org/CodeSystem/observation-category",
                "code": "laboratory"
              }
            ]
          }
        ],
        "code": {
          "coding": [
            {
              "code": "5767-9",
              "system": "http://loinc.org",
              "display": "Appearance of Urine"
            }
          ],
          "text": "Appearance of Urine"
        },
        "text": {
          "status": "generated",
          "div": "<div xmlns=\"http://www.w3.org/1999/xhtml\"><table class=\"hl7__eu__lab__report\"><tr><th>Test</th><th>31-Oct-2022</th><th>Reference&#xA0;Range</th><th>Unit</th></tr><tr><td>Appearance of Urine</td></tr></table></div>"
        },
        "status": "final",
        "subject": {
          "reference": "urn:uuid:d40e106c-516d-4ed7-950e-ef373b96ac77",
          "display": "Meaghan Neary"
        },
        "effectiveDateTime": "2022-10-31T22:11:04Z",
        "specimen": {
          "reference": "urn:uuid:31bcca18-74cb-4eab-b5a3-68dea62dab49"
        }
      }
    },
    {
      "fullUrl": "urn:uuid:36af889b-8e3f-4334-9ca8-2c7680bb4d3d",
      "resource": {
        "resourceType": "Observation",
        "id": "36af889b-8e3f-4334-9ca8-2c7680bb4d3d",
        "meta": {
          "profile": [
            "http://hl7.eu/fhir/laboratory/StructureDefinition/Observation-resultslab-eu-lab"
          ]
        },
        "performer": [
          {
            "display": "The Central European Lab"
          }
        ],
        "category": [
          {
            "coding": [
              {
                "system": "http://terminology.hl7.org/CodeSystem/observation-category",
                "code": "laboratory"
              }
            ]
          }
        ],
        "code": {
          "coding": [
            {
              "code": "34533-0",
              "system": "http://loinc.org",
              "display": "Odor of Urine"
            }
          ],
          "text": "Odor of Urine"
        },
        "text": {
          "status": "generated",
          "div": "<div xmlns=\"http://www.w3.org/1999/xhtml\"><table class=\"hl7__eu__lab__report\"><tr><th>Test</th><th>31-Oct-2022</th><th>Reference&#xA0;Range</th><th>Unit</th></tr><tr><td>Odor of Urine</td></tr></table></div>"
        },
        "status": "final",
        "subject": {
          "reference": "urn:uuid:d40e106c-516d-4ed7-950e-ef373b96ac77",
          "display": "Meaghan Neary"
        },
        "effectiveDateTime": "2022-10-31T22:11:04Z",
        "specimen": {
          "reference": "urn:uuid:31bcca18-74cb-4eab-b5a3-68dea62dab49"
        }
      }
    },
    {
      "fullUrl": "urn:uuid:4f83ec4d-9377-4085-9215-f30beaa713fc",
      "resource": {
        "resourceType": "Observation",
        "id": "4f83ec4d-9377-4085-9215-f30beaa713fc",
        "meta": {
          "profile": [
            "http://hl7.eu/fhir/laboratory/StructureDefinition/Observation-resultslab-eu-lab"
          ]
        },
        "performer": [
          {
            "display": "The Central European Lab"
          }
        ],
        "category": [
          {
            "coding": [
              {
                "system": "http://terminology.hl7.org/CodeSystem/observation-category",
                "code": "laboratory"
              }
            ]
          }
        ],
        "code": {
          "coding": [
            {
              "code": "32167-9",
              "system": "http://loinc.org",
              "display": "Clarity of Urine"
            }
          ],
          "text": "Clarity of Urine"
        },
        "text": {
          "status": "generated",
          "div": "<div xmlns=\"http://www.w3.org/1999/xhtml\"><table class=\"hl7__eu__lab__report\"><tr><th>Test</th><th>31-Oct-2022</th><th>Reference&#xA0;Range</th><th>Unit</th></tr><tr><td>Clarity of Urine</td></tr></table></div>"
        },
        "status": "final",
        "subject": {
          "reference": "urn:uuid:d40e106c-516d-4ed7-950e-ef373b96ac77",
          "display": "Meaghan Neary"
        },
        "effectiveDateTime": "2022-10-31T22:11:04Z",
        "specimen": {
          "reference": "urn:uuid:31bcca18-74cb-4eab-b5a3-68dea62dab49"
        }
      }
    },
    {
      "fullUrl": "urn:uuid:30b6e8b8-fd13-4088-b518-5c349c9b6e46",
      "resource": {
        "resourceType": "Observation",
        "id": "30b6e8b8-fd13-4088-b518-5c349c9b6e46",
        "meta": {
          "profile": [
            "http://hl7.eu/fhir/laboratory/StructureDefinition/Observation-resultslab-eu-lab"
          ]
        },
        "performer": [
          {
            "display": "The Central European Lab"
          }
        ],
        "category": [
          {
            "coding": [
              {
                "system": "http://terminology.hl7.org/CodeSystem/observation-category",
                "code": "laboratory"
              }
            ]
          }
        ],
        "code": {
          "coding": [
            {
              "code": "5778-6",
              "system": "http://loinc.org",
              "display": "Color of Urine"
            }
          ],
          "text": "Color of Urine"
        },
        "text": {
          "status": "generated",
          "div": "<div xmlns=\"http://www.w3.org/1999/xhtml\"><table class=\"hl7__eu__lab__report\"><tr><th>Test</th><th>31-Oct-2022</th><th>Reference&#xA0;Range</th><th>Unit</th></tr><tr><td>Color of Urine</td></tr></table></div>"
        },
        "status": "final",
        "subject": {
          "reference": "urn:uuid:d40e106c-516d-4ed7-950e-ef373b96ac77",
          "display": "Meaghan Neary"
        },
        "effectiveDateTime": "2022-10-31T22:11:04Z",
        "specimen": {
          "reference": "urn:uuid:31bcca18-74cb-4eab-b5a3-68dea62dab49"
        }
      }
    },
    {
      "fullUrl": "urn:uuid:c7ddf3fe-9430-4387-a860-dadd65756775",
      "resource": {
        "resourceType": "Observation",
        "id": "c7ddf3fe-9430-4387-a860-dadd65756775",
        "meta": {
          "profile": [
            "http://hl7.eu/fhir/laboratory/StructureDefinition/Observation-resultslab-eu-lab"
          ]
        },
        "performer": [
          {
            "display": "The Central European Lab"
          }
        ],
        "category": [
          {
            "coding": [
              {
                "system": "http://terminology.hl7.org/CodeSystem/observation-category",
                "code": "laboratory"
              }
            ]
          }
        ],
        "code": {
          "coding": [
            {
              "code": "5792-7",
              "system": "http://loinc.org",
              "display": "Glucose [Mass/volume] in Urine by Test strip"
            }
          ],
          "text": "Glucose [Mass/volume] in Urine by Test strip"
        },
        "valueQuantity": {
          "system": "http://unitsofmeasure.org",
          "value": 1.7,
          "unit": "mg/dL",
          "code": "mg/dL"
        },
        "referenceRange": [
          {
            "low": {
              "value": 0.8,
              "code": "mg/dL",
              "system": "http://unitsofmeasure.org"
            }
          },
          {
            "high": {
              "value": 0,
              "code": "mg/dL",
              "system": "http://unitsofmeasure.org"
            }
          }
        ],
        "interpretation": [
          {
            "coding": [
              {
                "code": "H",
                "system": "http://terminology.hl7.org/CodeSystem/v3-ObservationInterpretation",
                "display": "High"
              }
            ]
          }
        ],
        "text": {
          "status": "generated",
          "div": "<div xmlns=\"http://www.w3.org/1999/xhtml\"><table class=\"hl7__eu__lab__report\"><tr><th>Test</th><th>31-Oct-2022</th><th>Reference&#xA0;Range</th><th>Unit</th></tr><tr><td>Glucose [Mass/volume] in Urine by Test strip</td><td>1.7</td><td>0.8 - 0</td><td>H</td><td>mg/dL</td></tr></table></div>"
        },
        "status": "final",
        "subject": {
          "reference": "urn:uuid:d40e106c-516d-4ed7-950e-ef373b96ac77",
          "display": "Meaghan Neary"
        },
        "effectiveDateTime": "2022-10-31T22:11:04Z",
        "specimen": {
          "reference": "urn:uuid:31bcca18-74cb-4eab-b5a3-68dea62dab49"
        }
      }
    },
    {
      "fullUrl": "urn:uuid:e7d0e77d-c26a-41ad-99e1-bdbaaf89cbb0",
      "resource": {
        "resourceType": "Observation",
        "id": "e7d0e77d-c26a-41ad-99e1-bdbaaf89cbb0",
        "meta": {
          "profile": [
            "http://hl7.eu/fhir/laboratory/StructureDefinition/Observation-resultslab-eu-lab"
          ]
        },
        "performer": [
          {
            "display": "The Central European Lab"
          }
        ],
        "category": [
          {
            "coding": [
              {
                "system": "http://terminology.hl7.org/CodeSystem/observation-category",
                "code": "laboratory"
              }
            ]
          }
        ],
        "code": {
          "coding": [
            {
              "code": "25428-4",
              "system": "http://loinc.org",
              "display": "Glucose [Presence] in Urine by Test strip"
            }
          ],
          "text": "Glucose [Presence] in Urine by Test strip"
        },
        "text": {
          "status": "generated",
          "div": "<div xmlns=\"http://www.w3.org/1999/xhtml\"><table class=\"hl7__eu__lab__report\"><tr><th>Test</th><th>31-Oct-2022</th><th>Reference&#xA0;Range</th><th>Unit</th></tr><tr><td>Glucose [Presence] in Urine by Test strip</td></tr></table></div>"
        },
        "status": "final",
        "subject": {
          "reference": "urn:uuid:d40e106c-516d-4ed7-950e-ef373b96ac77",
          "display": "Meaghan Neary"
        },
        "effectiveDateTime": "2022-10-31T22:11:04Z",
        "specimen": {
          "reference": "urn:uuid:31bcca18-74cb-4eab-b5a3-68dea62dab49"
        }
      }
    },
    {
      "fullUrl": "urn:uuid:47cc40e9-1589-409f-945d-2fbefbb45ceb",
      "resource": {
        "resourceType": "Observation",
        "id": "47cc40e9-1589-409f-945d-2fbefbb45ceb",
        "meta": {
          "profile": [
            "http://hl7.eu/fhir/laboratory/StructureDefinition/Observation-resultslab-eu-lab"
          ]
        },
        "performer": [
          {
            "display": "The Central European Lab"
          }
        ],
        "category": [
          {
            "coding": [
              {
                "system": "http://terminology.hl7.org/CodeSystem/observation-category",
                "code": "laboratory"
              }
            ]
          }
        ],
        "code": {
          "coding": [
            {
              "code": "20505-4",
              "system": "http://loinc.org",
              "display": "Bilirubin.total [Mass/volume] in Urine by Test strip"
            }
          ],
          "text": "Bilirubin.total [Mass/volume] in Urine by Test strip"
        },
        "valueQuantity": {
          "system": "http://unitsofmeasure.org",
          "value": 1,
          "unit": "mg/dL",
          "code": "mg/dL"
        },
        "referenceRange": [
          {
            "low": {
              "value": 0,
              "code": "mg/dL",
              "system": "http://unitsofmeasure.org"
            }
          },
          {
            "high": {
              "value": 1,
              "code": "mg/dL",
              "system": "http://unitsofmeasure.org"
            }
          }
        ],
        "text": {
          "status": "generated",
          "div": "<div xmlns=\"http://www.w3.org/1999/xhtml\"><table class=\"hl7__eu__lab__report\"><tr><th>Test</th><th>31-Oct-2022</th><th>Reference&#xA0;Range</th><th>Unit</th></tr><tr><td>Bilirubin.total [Mass/volume] in Urine by Test strip</td><td>1.0</td><td>0 - 1</td><td></td><td>mg/dL</td></tr></table></div>"
        },
        "status": "final",
        "subject": {
          "reference": "urn:uuid:d40e106c-516d-4ed7-950e-ef373b96ac77",
          "display": "Meaghan Neary"
        },
        "effectiveDateTime": "2022-10-31T22:11:04Z",
        "specimen": {
          "reference": "urn:uuid:31bcca18-74cb-4eab-b5a3-68dea62dab49"
        }
      }
    },
    {
      "fullUrl": "urn:uuid:4249c07c-1b50-4b89-b28c-09e722efa46d",
      "resource": {
        "resourceType": "Observation",
        "id": "4249c07c-1b50-4b89-b28c-09e722efa46d",
        "meta": {
          "profile": [
            "http://hl7.eu/fhir/laboratory/StructureDefinition/Observation-resultslab-eu-lab"
          ]
        },
        "performer": [
          {
            "display": "The Central European Lab"
          }
        ],
        "category": [
          {
            "coding": [
              {
                "system": "http://terminology.hl7.org/CodeSystem/observation-category",
                "code": "laboratory"
              }
            ]
          }
        ],
        "code": {
          "coding": [
            {
              "code": "5770-3",
              "system": "http://loinc.org",
              "display": "Bilirubin.total [Presence] in Urine by Test strip"
            }
          ],
          "text": "Bilirubin.total [Presence] in Urine by Test strip"
        },
        "text": {
          "status": "generated",
          "div": "<div xmlns=\"http://www.w3.org/1999/xhtml\"><table class=\"hl7__eu__lab__report\"><tr><th>Test</th><th>31-Oct-2022</th><th>Reference&#xA0;Range</th><th>Unit</th></tr><tr><td>Bilirubin.total [Presence] in Urine by Test strip</td></tr></table></div>"
        },
        "status": "final",
        "subject": {
          "reference": "urn:uuid:d40e106c-516d-4ed7-950e-ef373b96ac77",
          "display": "Meaghan Neary"
        },
        "effectiveDateTime": "2022-10-31T22:11:04Z",
        "specimen": {
          "reference": "urn:uuid:31bcca18-74cb-4eab-b5a3-68dea62dab49"
        }
      }
    },
    {
      "fullUrl": "urn:uuid:e67c4477-0b14-4b1d-8cb1-18a397ff4888",
      "resource": {
        "resourceType": "Observation",
        "id": "e67c4477-0b14-4b1d-8cb1-18a397ff4888",
        "meta": {
          "profile": [
            "http://hl7.eu/fhir/laboratory/StructureDefinition/Observation-resultslab-eu-lab"
          ]
        },
        "performer": [
          {
            "display": "The Central European Lab"
          }
        ],
        "category": [
          {
            "coding": [
              {
                "system": "http://terminology.hl7.org/CodeSystem/observation-category",
                "code": "laboratory"
              }
            ]
          }
        ],
        "code": {
          "coding": [
            {
              "code": "5797-6",
              "system": "http://loinc.org",
              "display": "Ketones [Mass/volume] in Urine by Test strip"
            }
          ],
          "text": "Ketones [Mass/volume] in Urine by Test strip"
        },
        "valueQuantity": {
          "system": "http://unitsofmeasure.org",
          "value": 6,
          "unit": "mg/dL",
          "code": "mg/dL"
        },
        "referenceRange": [
          {
            "low": {
              "value": 0,
              "code": "mg/dL",
              "system": "http://unitsofmeasure.org"
            }
          },
          {
            "high": {
              "value": 4,
              "code": "mg/dL",
              "system": "http://unitsofmeasure.org"
            }
          }
        ],
        "interpretation": [
          {
            "coding": [
              {
                "code": "H",
                "system": "http://terminology.hl7.org/CodeSystem/v3-ObservationInterpretation",
                "display": "High"
              }
            ]
          }
        ],
        "text": {
          "status": "generated",
          "div": "<div xmlns=\"http://www.w3.org/1999/xhtml\"><table class=\"hl7__eu__lab__report\"><tr><th>Test</th><th>31-Oct-2022</th><th>Reference&#xA0;Range</th><th>Unit</th></tr><tr><td>Ketones [Mass/volume] in Urine by Test strip</td><td>6.0</td><td>0 - 4</td><td>H</td><td>mg/dL</td></tr></table></div>"
        },
        "status": "final",
        "subject": {
          "reference": "urn:uuid:d40e106c-516d-4ed7-950e-ef373b96ac77",
          "display": "Meaghan Neary"
        },
        "effectiveDateTime": "2022-10-31T22:11:04Z",
        "specimen": {
          "reference": "urn:uuid:31bcca18-74cb-4eab-b5a3-68dea62dab49"
        }
      }
    },
    {
      "fullUrl": "urn:uuid:b023a4b4-6913-4789-9a20-11eb4f954366",
      "resource": {
        "resourceType": "Observation",
        "id": "b023a4b4-6913-4789-9a20-11eb4f954366",
        "meta": {
          "profile": [
            "http://hl7.eu/fhir/laboratory/StructureDefinition/Observation-resultslab-eu-lab"
          ]
        },
        "performer": [
          {
            "display": "The Central European Lab"
          }
        ],
        "category": [
          {
            "coding": [
              {
                "system": "http://terminology.hl7.org/CodeSystem/observation-category",
                "code": "laboratory"
              }
            ]
          }
        ],
        "code": {
          "coding": [
            {
              "code": "2514-8",
              "system": "http://loinc.org",
              "display": "Ketones [Presence] in Urine by Test strip"
            }
          ],
          "text": "Ketones [Presence] in Urine by Test strip"
        },
        "text": {
          "status": "generated",
          "div": "<div xmlns=\"http://www.w3.org/1999/xhtml\"><table class=\"hl7__eu__lab__report\"><tr><th>Test</th><th>31-Oct-2022</th><th>Reference&#xA0;Range</th><th>Unit</th></tr><tr><td>Ketones [Presence] in Urine by Test strip</td></tr></table></div>"
        },
        "status": "final",
        "subject": {
          "reference": "urn:uuid:d40e106c-516d-4ed7-950e-ef373b96ac77",
          "display": "Meaghan Neary"
        },
        "effectiveDateTime": "2022-10-31T22:11:04Z",
        "specimen": {
          "reference": "urn:uuid:31bcca18-74cb-4eab-b5a3-68dea62dab49"
        }
      }
    },
    {
      "fullUrl": "urn:uuid:e4024952-f1b8-4134-bb7f-781c95d77a9b",
      "resource": {
        "resourceType": "Observation",
        "id": "e4024952-f1b8-4134-bb7f-781c95d77a9b",
        "meta": {
          "profile": [
            "http://hl7.eu/fhir/laboratory/StructureDefinition/Observation-resultslab-eu-lab"
          ]
        },
        "performer": [
          {
            "display": "The Central European Lab"
          }
        ],
        "category": [
          {
            "coding": [
              {
                "system": "http://terminology.hl7.org/CodeSystem/observation-category",
                "code": "laboratory"
              }
            ]
          }
        ],
        "code": {
          "coding": [
            {
              "code": "5811-5",
              "system": "http://loinc.org",
              "display": "Specific gravity of Urine by Test strip"
            }
          ],
          "text": "Specific gravity of Urine by Test strip"
        },
        "valueQuantity": {
          "system": "http://unitsofmeasure.org",
          "value": 1,
          "unit": "{nominal}",
          "code": "{nominal}"
        },
        "referenceRange": [
          {
            "low": {
              "value": 1.005,
              "code": "g/mL",
              "system": "http://unitsofmeasure.org"
            }
          },
          {
            "high": {
              "value": 1.03,
              "code": "g/mL",
              "system": "http://unitsofmeasure.org"
            }
          }
        ],
        "interpretation": [
          {
            "coding": [
              {
                "code": "L",
                "system": "http://terminology.hl7.org/CodeSystem/v3-ObservationInterpretation",
                "display": "Low"
              }
            ]
          }
        ],
        "text": {
          "status": "generated",
          "div": "<div xmlns=\"http://www.w3.org/1999/xhtml\"><table class=\"hl7__eu__lab__report\"><tr><th>Test</th><th>31-Oct-2022</th><th>Reference&#xA0;Range</th><th>Unit</th></tr><tr><td>Specific gravity of Urine by Test strip</td><td>1.0</td><td>1.005 - 1.03</td><td>L</td><td>{nominal}</td></tr></table></div>"
        },
        "status": "final",
        "subject": {
          "reference": "urn:uuid:d40e106c-516d-4ed7-950e-ef373b96ac77",
          "display": "Meaghan Neary"
        },
        "effectiveDateTime": "2022-10-31T22:11:04Z",
        "specimen": {
          "reference": "urn:uuid:31bcca18-74cb-4eab-b5a3-68dea62dab49"
        }
      }
    },
    {
      "fullUrl": "urn:uuid:890e0ab9-106f-42c1-8038-ea324a5993f6",
      "resource": {
        "resourceType": "Observation",
        "id": "890e0ab9-106f-42c1-8038-ea324a5993f6",
        "meta": {
          "profile": [
            "http://hl7.eu/fhir/laboratory/StructureDefinition/Observation-resultslab-eu-lab"
          ]
        },
        "performer": [
          {
            "display": "The Central European Lab"
          }
        ],
        "category": [
          {
            "coding": [
              {
                "system": "http://terminology.hl7.org/CodeSystem/observation-category",
                "code": "laboratory"
              }
            ]
          }
        ],
        "code": {
          "coding": [
            {
              "code": "5803-2",
              "system": "http://loinc.org",
              "display": "pH of Urine by Test strip"
            }
          ],
          "text": "pH of Urine by Test strip"
        },
        "valueQuantity": {
          "system": "http://unitsofmeasure.org",
          "value": 6,
          "unit": "pH",
          "code": "pH"
        },
        "referenceRange": [
          {
            "low": {
              "value": 4.6,
              "code": "pH",
              "system": "http://unitsofmeasure.org"
            }
          },
          {
            "high": {
              "value": 7,
              "code": "pH",
              "system": "http://unitsofmeasure.org"
            }
          }
        ],
        "text": {
          "status": "generated",
          "div": "<div xmlns=\"http://www.w3.org/1999/xhtml\"><table class=\"hl7__eu__lab__report\"><tr><th>Test</th><th>31-Oct-2022</th><th>Reference&#xA0;Range</th><th>Unit</th></tr><tr><td>pH of Urine by Test strip</td><td>6.0</td><td>4.6 - 7</td><td></td><td>pH</td></tr></table></div>"
        },
        "status": "final",
        "subject": {
          "reference": "urn:uuid:d40e106c-516d-4ed7-950e-ef373b96ac77",
          "display": "Meaghan Neary"
        },
        "effectiveDateTime": "2022-10-31T22:11:04Z",
        "specimen": {
          "reference": "urn:uuid:31bcca18-74cb-4eab-b5a3-68dea62dab49"
        }
      }
    },
    {
      "fullUrl": "urn:uuid:9297181b-92c6-49a4-be03-ecd66ede9eda",
      "resource": {
        "resourceType": "Observation",
        "id": "9297181b-92c6-49a4-be03-ecd66ede9eda",
        "meta": {
          "profile": [
            "http://hl7.eu/fhir/laboratory/StructureDefinition/Observation-resultslab-eu-lab"
          ]
        },
        "performer": [
          {
            "display": "The Central European Lab"
          }
        ],
        "category": [
          {
            "coding": [
              {
                "system": "http://terminology.hl7.org/CodeSystem/observation-category",
                "code": "laboratory"
              }
            ]
          }
        ],
        "code": {
          "coding": [
            {
              "code": "5804-0",
              "system": "http://loinc.org",
              "display": "Protein [Mass/volume] in Urine by Test strip"
            }
          ],
          "text": "Protein [Mass/volume] in Urine by Test strip"
        },
        "valueQuantity": {
          "system": "http://unitsofmeasure.org",
          "value": 357.1,
          "unit": "mg/dL",
          "code": "mg/dL"
        },
        "referenceRange": [
          {
            "low": {
              "value": 0,
              "code": "mg/dL",
              "system": "http://unitsofmeasure.org"
            }
          },
          {
            "high": {
              "value": 14,
              "code": "mg/dL",
              "system": "http://unitsofmeasure.org"
            }
          }
        ],
        "interpretation": [
          {
            "coding": [
              {
                "code": "H",
                "system": "http://terminology.hl7.org/CodeSystem/v3-ObservationInterpretation",
                "display": "High"
              }
            ]
          }
        ],
        "text": {
          "status": "generated",
          "div": "<div xmlns=\"http://www.w3.org/1999/xhtml\"><table class=\"hl7__eu__lab__report\"><tr><th>Test</th><th>31-Oct-2022</th><th>Reference&#xA0;Range</th><th>Unit</th></tr><tr><td>Protein [Mass/volume] in Urine by Test strip</td><td>357.1</td><td>0 - 14</td><td>H</td><td>mg/dL</td></tr></table></div>"
        },
        "status": "final",
        "subject": {
          "reference": "urn:uuid:d40e106c-516d-4ed7-950e-ef373b96ac77",
          "display": "Meaghan Neary"
        },
        "effectiveDateTime": "2022-10-31T22:11:04Z",
        "specimen": {
          "reference": "urn:uuid:31bcca18-74cb-4eab-b5a3-68dea62dab49"
        }
      }
    },
    {
      "fullUrl": "urn:uuid:03eaa994-2117-464c-be03-dfc982727662",
      "resource": {
        "resourceType": "Observation",
        "id": "03eaa994-2117-464c-be03-dfc982727662",
        "meta": {
          "profile": [
            "http://hl7.eu/fhir/laboratory/StructureDefinition/Observation-resultslab-eu-lab"
          ]
        },
        "performer": [
          {
            "display": "The Central European Lab"
          }
        ],
        "category": [
          {
            "coding": [
              {
                "system": "http://terminology.hl7.org/CodeSystem/observation-category",
                "code": "laboratory"
              }
            ]
          }
        ],
        "code": {
          "coding": [
            {
              "code": "20454-5",
              "system": "http://loinc.org",
              "display": "Protein [Presence] in Urine by Test strip"
            }
          ],
          "text": "Protein [Presence] in Urine by Test strip"
        },
        "text": {
          "status": "generated",
          "div": "<div xmlns=\"http://www.w3.org/1999/xhtml\"><table class=\"hl7__eu__lab__report\"><tr><th>Test</th><th>31-Oct-2022</th><th>Reference&#xA0;Range</th><th>Unit</th></tr><tr><td>Protein [Presence] in Urine by Test strip</td></tr></table></div>"
        },
        "status": "final",
        "subject": {
          "reference": "urn:uuid:d40e106c-516d-4ed7-950e-ef373b96ac77",
          "display": "Meaghan Neary"
        },
        "effectiveDateTime": "2022-10-31T22:11:04Z",
        "specimen": {
          "reference": "urn:uuid:31bcca18-74cb-4eab-b5a3-68dea62dab49"
        }
      }
    },
    {
      "fullUrl": "urn:uuid:b40f6698-80e3-4d84-b600-bded63a65472",
      "resource": {
        "resourceType": "Observation",
        "id": "b40f6698-80e3-4d84-b600-bded63a65472",
        "meta": {
          "profile": [
            "http://hl7.eu/fhir/laboratory/StructureDefinition/Observation-resultslab-eu-lab"
          ]
        },
        "performer": [
          {
            "display": "The Central European Lab"
          }
        ],
        "category": [
          {
            "coding": [
              {
                "system": "http://terminology.hl7.org/CodeSystem/observation-category",
                "code": "laboratory"
              }
            ]
          }
        ],
        "code": {
          "coding": [
            {
              "code": "5802-4",
              "system": "http://loinc.org",
              "display": "Nitrite [Presence] in Urine by Test strip"
            }
          ],
          "text": "Nitrite [Presence] in Urine by Test strip"
        },
        "text": {
          "status": "generated",
          "div": "<div xmlns=\"http://www.w3.org/1999/xhtml\"><table class=\"hl7__eu__lab__report\"><tr><th>Test</th><th>31-Oct-2022</th><th>Reference&#xA0;Range</th><th>Unit</th></tr><tr><td>Nitrite [Presence] in Urine by Test strip</td></tr></table></div>"
        },
        "status": "final",
        "subject": {
          "reference": "urn:uuid:d40e106c-516d-4ed7-950e-ef373b96ac77",
          "display": "Meaghan Neary"
        },
        "effectiveDateTime": "2022-10-31T22:11:04Z",
        "specimen": {
          "reference": "urn:uuid:31bcca18-74cb-4eab-b5a3-68dea62dab49"
        }
      }
    },
    {
      "fullUrl": "urn:uuid:ba5148ac-c395-407a-a817-e05e7b60287a",
      "resource": {
        "resourceType": "Observation",
        "id": "ba5148ac-c395-407a-a817-e05e7b60287a",
        "meta": {
          "profile": [
            "http://hl7.eu/fhir/laboratory/StructureDefinition/Observation-resultslab-eu-lab"
          ]
        },
        "performer": [
          {
            "display": "The Central European Lab"
          }
        ],
        "category": [
          {
            "coding": [
              {
                "system": "http://terminology.hl7.org/CodeSystem/observation-category",
                "code": "laboratory"
              }
            ]
          }
        ],
        "code": {
          "coding": [
            {
              "code": "5794-3",
              "system": "http://loinc.org",
              "display": "Hemoglobin [Presence] in Urine by Test strip"
            }
          ],
          "text": "Hemoglobin [Presence] in Urine by Test strip"
        },
        "text": {
          "status": "generated",
          "div": "<div xmlns=\"http://www.w3.org/1999/xhtml\"><table class=\"hl7__eu__lab__report\"><tr><th>Test</th><th>31-Oct-2022</th><th>Reference&#xA0;Range</th><th>Unit</th></tr><tr><td>Hemoglobin [Presence] in Urine by Test strip</td></tr></table></div>"
        },
        "status": "final",
        "subject": {
          "reference": "urn:uuid:d40e106c-516d-4ed7-950e-ef373b96ac77",
          "display": "Meaghan Neary"
        },
        "effectiveDateTime": "2022-10-31T22:11:04Z",
        "specimen": {
          "reference": "urn:uuid:31bcca18-74cb-4eab-b5a3-68dea62dab49"
        }
      }
    },
    {
      "fullUrl": "urn:uuid:66f74be0-e958-4fdc-8a51-98e5ef76a75a",
      "resource": {
        "resourceType": "Observation",
        "id": "66f74be0-e958-4fdc-8a51-98e5ef76a75a",
        "meta": {
          "profile": [
            "http://hl7.eu/fhir/laboratory/StructureDefinition/Observation-resultslab-eu-lab"
          ]
        },
        "performer": [
          {
            "display": "The Central European Lab"
          }
        ],
        "category": [
          {
            "coding": [
              {
                "system": "http://terminology.hl7.org/CodeSystem/observation-category",
                "code": "laboratory"
              }
            ]
          }
        ],
        "code": {
          "coding": [
            {
              "code": "5799-2",
              "system": "http://loinc.org",
              "display": "Leukocyte esterase [Presence] in Urine by Test strip"
            }
          ],
          "text": "Leukocyte esterase [Presence] in Urine by Test strip"
        },
        "text": {
          "status": "generated",
          "div": "<div xmlns=\"http://www.w3.org/1999/xhtml\"><table class=\"hl7__eu__lab__report\"><tr><th>Test</th><th>31-Oct-2022</th><th>Reference&#xA0;Range</th><th>Unit</th></tr><tr><td>Leukocyte esterase [Presence] in Urine by Test strip</td></tr></table></div>"
        },
        "status": "final",
        "subject": {
          "reference": "urn:uuid:d40e106c-516d-4ed7-950e-ef373b96ac77",
          "display": "Meaghan Neary"
        },
        "effectiveDateTime": "2022-10-31T22:11:04Z",
        "specimen": {
          "reference": "urn:uuid:31bcca18-74cb-4eab-b5a3-68dea62dab49"
        }
      }
    },
    {
      "fullUrl": "urn:uuid:cbecbdca-4d36-4728-b58e-2001d9403694",
      "resource": {
        "resourceType": "Observation",
        "id": "cbecbdca-4d36-4728-b58e-2001d9403694",
        "meta": {
          "profile": [
            "http://hl7.eu/fhir/laboratory/StructureDefinition/Observation-resultslab-eu-lab"
          ]
        },
        "performer": [
          {
            "display": "The Central European Lab"
          }
        ],
        "category": [
          {
            "coding": [
              {
                "system": "http://terminology.hl7.org/CodeSystem/observation-category",
                "code": "laboratory"
              }
            ]
          }
        ],
        "code": {
          "coding": [
            {
              "code": "4548-4",
              "system": "http://loinc.org",
              "display": "Hemoglobin A1c/Hemoglobin.total in Blood"
            }
          ],
          "text": "Hemoglobin A1c/Hemoglobin.total in Blood"
        },
        "valueQuantity": {
          "system": "http://unitsofmeasure.org",
          "value": 2.9,
          "unit": "%",
          "code": "%"
        },
        "referenceRange": [
          {
            "low": {
              "value": 4,
              "code": "%",
              "system": "http://unitsofmeasure.org"
            }
          },
          {
            "high": {
              "value": 6.4,
              "code": "%",
              "system": "http://unitsofmeasure.org"
            }
          }
        ],
        "interpretation": [
          {
            "coding": [
              {
                "code": "L",
                "system": "http://terminology.hl7.org/CodeSystem/v3-ObservationInterpretation",
                "display": "Low"
              }
            ]
          }
        ],
        "text": {
          "status": "generated",
          "div": "<div xmlns=\"http://www.w3.org/1999/xhtml\"><table class=\"hl7__eu__lab__report\"><tr><th>Test</th><th>31-Oct-2022</th><th>Reference&#xA0;Range</th><th>Unit</th></tr><tr><td>Hemoglobin A1c/Hemoglobin.total in Blood</td><td>2.9</td><td>4 - 6.4</td><td>L</td><td>%</td></tr></table></div>"
        },
        "status": "final",
        "subject": {
          "reference": "urn:uuid:d40e106c-516d-4ed7-950e-ef373b96ac77",
          "display": "Meaghan Neary"
        },
        "effectiveDateTime": "2022-10-31T22:11:04Z",
        "specimen": {
          "reference": "urn:uuid:60840216-2ba7-4086-8212-4ac752a7b103"
        }
      }
    },
    {
      "fullUrl": "urn:uuid:f019c9ea-e18b-4e51-9100-ba663d174829",
      "resource": {
        "resourceType": "Observation",
        "id": "f019c9ea-e18b-4e51-9100-ba663d174829",
        "meta": {
          "profile": [
            "http://hl7.eu/fhir/laboratory/StructureDefinition/Observation-resultslab-eu-lab"
          ]
        },
        "performer": [
          {
            "display": "The Central European Lab"
          }
        ],
        "category": [
          {
            "coding": [
              {
                "system": "http://terminology.hl7.org/CodeSystem/observation-category",
                "code": "laboratory"
              }
            ]
          }
        ],
        "code": {
          "coding": [
            {
              "code": "2339-0",
              "system": "http://loinc.org",
              "display": "Glucose [Mass/volume] in Blood"
            }
          ],
          "text": "Glucose [Mass/volume] in Blood"
        },
        "valueQuantity": {
          "system": "http://unitsofmeasure.org",
          "value": 67.2,
          "unit": "mg/dL",
          "code": "mg/dL"
        },
        "referenceRange": [
          {
            "low": {
              "value": 70,
              "code": "mg/dL",
              "system": "http://unitsofmeasure.org"
            }
          },
          {
            "high": {
              "value": 100,
              "code": "mg/dL",
              "system": "http://unitsofmeasure.org"
            }
          }
        ],
        "interpretation": [
          {
            "coding": [
              {
                "code": "L",
                "system": "http://terminology.hl7.org/CodeSystem/v3-ObservationInterpretation",
                "display": "Low"
              }
            ]
          }
        ],
        "text": {
          "status": "generated",
          "div": "<div xmlns=\"http://www.w3.org/1999/xhtml\"><table class=\"hl7__eu__lab__report\"><tr><th>Test</th><th>31-Oct-2022</th><th>Reference&#xA0;Range</th><th>Unit</th></tr><tr><td>Glucose [Mass/volume] in Blood</td><td>67.2</td><td>70 - 100</td><td>L</td><td>mg/dL</td></tr></table></div>"
        },
        "status": "final",
        "subject": {
          "reference": "urn:uuid:d40e106c-516d-4ed7-950e-ef373b96ac77",
          "display": "Meaghan Neary"
        },
        "effectiveDateTime": "2022-10-31T22:11:04Z",
        "specimen": {
          "reference": "urn:uuid:60840216-2ba7-4086-8212-4ac752a7b103"
        }
      }
    },
    {
      "fullUrl": "urn:uuid:7ecd7eaa-4366-4748-9fe8-da962f35b29d",
      "resource": {
        "resourceType": "Observation",
        "id": "7ecd7eaa-4366-4748-9fe8-da962f35b29d",
        "meta": {
          "profile": [
            "http://hl7.eu/fhir/laboratory/StructureDefinition/Observation-resultslab-eu-lab"
          ]
        },
        "performer": [
          {
            "display": "The Central European Lab"
          }
        ],
        "category": [
          {
            "coding": [
              {
                "system": "http://terminology.hl7.org/CodeSystem/observation-category",
                "code": "laboratory"
              }
            ]
          }
        ],
        "code": {
          "coding": [
            {
              "code": "6299-2",
              "system": "http://loinc.org",
              "display": "Urea nitrogen [Mass/volume] in Blood"
            }
          ],
          "text": "Urea nitrogen [Mass/volume] in Blood"
        },
        "valueQuantity": {
          "system": "http://unitsofmeasure.org",
          "value": 19.6,
          "unit": "mg/dL",
          "code": "mg/dL"
        },
        "referenceRange": [
          {
            "low": {
              "value": 7,
              "code": "mg/dL",
              "system": "http://unitsofmeasure.org"
            }
          },
          {
            "high": {
              "value": 43,
              "code": "mg/dL",
              "system": "http://unitsofmeasure.org"
            }
          }
        ],
        "text": {
          "status": "generated",
          "div": "<div xmlns=\"http://www.w3.org/1999/xhtml\"><table class=\"hl7__eu__lab__report\"><tr><th>Test</th><th>31-Oct-2022</th><th>Reference&#xA0;Range</th><th>Unit</th></tr><tr><td>Urea nitrogen [Mass/volume] in Blood</td><td>19.6</td><td>7 - 43</td><td></td><td>mg/dL</td></tr></table></div>"
        },
        "status": "final",
        "subject": {
          "reference": "urn:uuid:d40e106c-516d-4ed7-950e-ef373b96ac77",
          "display": "Meaghan Neary"
        },
        "effectiveDateTime": "2022-10-31T22:11:04Z",
        "specimen": {
          "reference": "urn:uuid:60840216-2ba7-4086-8212-4ac752a7b103"
        }
      }
    },
    {
      "fullUrl": "urn:uuid:9b81009a-a2a3-438f-bb17-c531b780be84",
      "resource": {
        "resourceType": "Observation",
        "id": "9b81009a-a2a3-438f-bb17-c531b780be84",
        "meta": {
          "profile": [
            "http://hl7.eu/fhir/laboratory/StructureDefinition/Observation-resultslab-eu-lab"
          ]
        },
        "performer": [
          {
            "display": "The Central European Lab"
          }
        ],
        "category": [
          {
            "coding": [
              {
                "system": "http://terminology.hl7.org/CodeSystem/observation-category",
                "code": "laboratory"
              }
            ]
          }
        ],
        "code": {
          "coding": [
            {
              "code": "38483-4",
              "system": "http://loinc.org",
              "display": "Creatinine [Mass/volume] in Blood"
            }
          ],
          "text": "Creatinine [Mass/volume] in Blood"
        },
        "valueQuantity": {
          "system": "http://unitsofmeasure.org",
          "value": 4.2,
          "unit": "mg/dL",
          "code": "mg/dL"
        },
        "referenceRange": [
          {
            "low": {
              "value": 0.6,
              "code": "mg/dL",
              "system": "http://unitsofmeasure.org"
            }
          },
          {
            "high": {
              "value": 1.1,
              "code": "mg/dL",
              "system": "http://unitsofmeasure.org"
            }
          }
        ],
        "interpretation": [
          {
            "coding": [
              {
                "code": "H",
                "system": "http://terminology.hl7.org/CodeSystem/v3-ObservationInterpretation",
                "display": "High"
              }
            ]
          }
        ],
        "text": {
          "status": "generated",
          "div": "<div xmlns=\"http://www.w3.org/1999/xhtml\"><table class=\"hl7__eu__lab__report\"><tr><th>Test</th><th>31-Oct-2022</th><th>Reference&#xA0;Range</th><th>Unit</th></tr><tr><td>Creatinine [Mass/volume] in Blood</td><td>4.2</td><td>0.6 - 1.1</td><td>H</td><td>mg/dL</td></tr></table></div>"
        },
        "status": "final",
        "subject": {
          "reference": "urn:uuid:d40e106c-516d-4ed7-950e-ef373b96ac77",
          "display": "Meaghan Neary"
        },
        "effectiveDateTime": "2022-10-31T22:11:04Z",
        "specimen": {
          "reference": "urn:uuid:60840216-2ba7-4086-8212-4ac752a7b103"
        }
      }
    },
    {
      "fullUrl": "urn:uuid:e8f4ddd0-e442-45d8-a368-02eeb38f4975",
      "resource": {
        "resourceType": "Observation",
        "id": "e8f4ddd0-e442-45d8-a368-02eeb38f4975",
        "meta": {
          "profile": [
            "http://hl7.eu/fhir/laboratory/StructureDefinition/Observation-resultslab-eu-lab"
          ]
        },
        "performer": [
          {
            "display": "The Central European Lab"
          }
        ],
        "category": [
          {
            "coding": [
              {
                "system": "http://terminology.hl7.org/CodeSystem/observation-category",
                "code": "laboratory"
              }
            ]
          }
        ],
        "code": {
          "coding": [
            {
              "code": "49765-1",
              "system": "http://loinc.org",
              "display": "Calcium [Mass/volume] in Blood"
            }
          ],
          "text": "Calcium [Mass/volume] in Blood"
        },
        "valueQuantity": {
          "system": "http://unitsofmeasure.org",
          "value": 9.7,
          "unit": "mg/dL",
          "code": "mg/dL"
        },
        "referenceRange": [
          {
            "low": {
              "value": 8.5,
              "code": "mg/dL",
              "system": "http://unitsofmeasure.org"
            }
          },
          {
            "high": {
              "value": 10.5,
              "code": "mg/dL",
              "system": "http://unitsofmeasure.org"
            }
          }
        ],
        "text": {
          "status": "generated",
          "div": "<div xmlns=\"http://www.w3.org/1999/xhtml\"><table class=\"hl7__eu__lab__report\"><tr><th>Test</th><th>31-Oct-2022</th><th>Reference&#xA0;Range</th><th>Unit</th></tr><tr><td>Calcium [Mass/volume] in Blood</td><td>9.7</td><td>8.5 - 10.5</td><td></td><td>mg/dL</td></tr></table></div>"
        },
        "status": "final",
        "subject": {
          "reference": "urn:uuid:d40e106c-516d-4ed7-950e-ef373b96ac77",
          "display": "Meaghan Neary"
        },
        "effectiveDateTime": "2022-10-31T22:11:04Z",
        "specimen": {
          "reference": "urn:uuid:60840216-2ba7-4086-8212-4ac752a7b103"
        }
      }
    },
    {
      "fullUrl": "urn:uuid:b989e134-c365-4925-9a03-fc170ab3f2ba",
      "resource": {
        "resourceType": "Observation",
        "id": "b989e134-c365-4925-9a03-fc170ab3f2ba",
        "meta": {
          "profile": [
            "http://hl7.eu/fhir/laboratory/StructureDefinition/Observation-resultslab-eu-lab"
          ]
        },
        "performer": [
          {
            "display": "The Central European Lab"
          }
        ],
        "category": [
          {
            "coding": [
              {
                "system": "http://terminology.hl7.org/CodeSystem/observation-category",
                "code": "laboratory"
              }
            ]
          }
        ],
        "code": {
          "coding": [
            {
              "code": "2947-0",
              "system": "http://loinc.org",
              "display": "Sodium [Moles/volume] in Blood"
            }
          ],
          "text": "Sodium [Moles/volume] in Blood"
        },
        "valueQuantity": {
          "system": "http://unitsofmeasure.org",
          "value": 138.9,
          "unit": "mmol/L",
          "code": "mmol/L"
        },
        "referenceRange": [
          {
            "low": {
              "value": 135,
              "code": "mmol/L",
              "system": "http://unitsofmeasure.org"
            }
          },
          {
            "high": {
              "value": 145,
              "code": "mmol/L",
              "system": "http://unitsofmeasure.org"
            }
          }
        ],
        "text": {
          "status": "generated",
          "div": "<div xmlns=\"http://www.w3.org/1999/xhtml\"><table class=\"hl7__eu__lab__report\"><tr><th>Test</th><th>31-Oct-2022</th><th>Reference&#xA0;Range</th><th>Unit</th></tr><tr><td>Sodium [Moles/volume] in Blood</td><td>138.9</td><td>135 - 145</td><td></td><td>mmol/L</td></tr></table></div>"
        },
        "status": "final",
        "subject": {
          "reference": "urn:uuid:d40e106c-516d-4ed7-950e-ef373b96ac77",
          "display": "Meaghan Neary"
        },
        "effectiveDateTime": "2022-10-31T22:11:04Z",
        "specimen": {
          "reference": "urn:uuid:60840216-2ba7-4086-8212-4ac752a7b103"
        }
      }
    },
    {
      "fullUrl": "urn:uuid:51a597c9-0aad-4bbb-bcbf-d6b63c4d797c",
      "resource": {
        "resourceType": "Observation",
        "id": "51a597c9-0aad-4bbb-bcbf-d6b63c4d797c",
        "meta": {
          "profile": [
            "http://hl7.eu/fhir/laboratory/StructureDefinition/Observation-resultslab-eu-lab"
          ]
        },
        "performer": [
          {
            "display": "The Central European Lab"
          }
        ],
        "category": [
          {
            "coding": [
              {
                "system": "http://terminology.hl7.org/CodeSystem/observation-category",
                "code": "laboratory"
              }
            ]
          }
        ],
        "code": {
          "coding": [
            {
              "code": "6298-4",
              "system": "http://loinc.org",
              "display": "Potassium [Moles/volume] in Blood"
            }
          ],
          "text": "Potassium [Moles/volume] in Blood"
        },
        "valueQuantity": {
          "system": "http://unitsofmeasure.org",
          "value": 5,
          "unit": "mmol/L",
          "code": "mmol/L"
        },
        "referenceRange": [
          {
            "low": {
              "value": 3.5,
              "code": "mmol/L",
              "system": "http://unitsofmeasure.org"
            }
          },
          {
            "high": {
              "value": 5.1,
              "code": "mmol/L",
              "system": "http://unitsofmeasure.org"
            }
          }
        ],
        "text": {
          "status": "generated",
          "div": "<div xmlns=\"http://www.w3.org/1999/xhtml\"><table class=\"hl7__eu__lab__report\"><tr><th>Test</th><th>31-Oct-2022</th><th>Reference&#xA0;Range</th><th>Unit</th></tr><tr><td>Potassium [Moles/volume] in Blood</td><td>5.0</td><td>3.5 - 5.1</td><td></td><td>mmol/L</td></tr></table></div>"
        },
        "status": "final",
        "subject": {
          "reference": "urn:uuid:d40e106c-516d-4ed7-950e-ef373b96ac77",
          "display": "Meaghan Neary"
        },
        "effectiveDateTime": "2022-10-31T22:11:04Z",
        "specimen": {
          "reference": "urn:uuid:60840216-2ba7-4086-8212-4ac752a7b103"
        }
      }
    },
    {
      "fullUrl": "urn:uuid:0bedcb79-9e29-4612-a09f-c75bcd585944",
      "resource": {
        "resourceType": "Observation",
        "id": "0bedcb79-9e29-4612-a09f-c75bcd585944",
        "meta": {
          "profile": [
            "http://hl7.eu/fhir/laboratory/StructureDefinition/Observation-resultslab-eu-lab"
          ]
        },
        "performer": [
          {
            "display": "The Central European Lab"
          }
        ],
        "category": [
          {
            "coding": [
              {
                "system": "http://terminology.hl7.org/CodeSystem/observation-category",
                "code": "laboratory"
              }
            ]
          }
        ],
        "code": {
          "coding": [
            {
              "code": "2069-3",
              "system": "http://loinc.org",
              "display": "Chloride [Moles/volume] in Blood"
            }
          ],
          "text": "Chloride [Moles/volume] in Blood"
        },
        "valueQuantity": {
          "system": "http://unitsofmeasure.org",
          "value": 104.8,
          "unit": "mmol/L",
          "code": "mmol/L"
        },
        "referenceRange": [
          {
            "low": {
              "value": 98,
              "code": "mmol/L",
              "system": "http://unitsofmeasure.org"
            }
          },
          {
            "high": {
              "value": 108,
              "code": "mmol/L",
              "system": "http://unitsofmeasure.org"
            }
          }
        ],
        "text": {
          "status": "generated",
          "div": "<div xmlns=\"http://www.w3.org/1999/xhtml\"><table class=\"hl7__eu__lab__report\"><tr><th>Test</th><th>31-Oct-2022</th><th>Reference&#xA0;Range</th><th>Unit</th></tr><tr><td>Chloride [Moles/volume] in Blood</td><td>104.8</td><td>98 - 108</td><td></td><td>mmol/L</td></tr></table></div>"
        },
        "status": "final",
        "subject": {
          "reference": "urn:uuid:d40e106c-516d-4ed7-950e-ef373b96ac77",
          "display": "Meaghan Neary"
        },
        "effectiveDateTime": "2022-10-31T22:11:04Z",
        "specimen": {
          "reference": "urn:uuid:60840216-2ba7-4086-8212-4ac752a7b103"
        }
      }
    },
    {
      "fullUrl": "urn:uuid:33630c71-8c7e-4b8d-8819-277b9175160a",
      "resource": {
        "resourceType": "Observation",
        "id": "33630c71-8c7e-4b8d-8819-277b9175160a",
        "meta": {
          "profile": [
            "http://hl7.eu/fhir/laboratory/StructureDefinition/Observation-resultslab-eu-lab"
          ]
        },
        "performer": [
          {
            "display": "The Central European Lab"
          }
        ],
        "category": [
          {
            "coding": [
              {
                "system": "http://terminology.hl7.org/CodeSystem/observation-category",
                "code": "laboratory"
              }
            ]
          }
        ],
        "code": {
          "coding": [
            {
              "code": "20565-8",
              "system": "http://loinc.org",
              "display": "Carbon dioxide, total [Moles/volume] in Blood"
            }
          ],
          "text": "Carbon dioxide, total [Moles/volume] in Blood"
        },
        "valueQuantity": {
          "system": "http://unitsofmeasure.org",
          "value": 23.3,
          "unit": "mmol/L",
          "code": "mmol/L"
        },
        "referenceRange": [
          {
            "low": {
              "value": 22,
              "code": "mmol/L",
              "system": "http://unitsofmeasure.org"
            }
          },
          {
            "high": {
              "value": 29,
              "code": "mmol/L",
              "system": "http://unitsofmeasure.org"
            }
          }
        ],
        "text": {
          "status": "generated",
          "div": "<div xmlns=\"http://www.w3.org/1999/xhtml\"><table class=\"hl7__eu__lab__report\"><tr><th>Test</th><th>31-Oct-2022</th><th>Reference&#xA0;Range</th><th>Unit</th></tr><tr><td>Carbon dioxide, total [Moles/volume] in Blood</td><td>23.3</td><td>22 - 29</td><td></td><td>mmol/L</td></tr></table></div>"
        },
        "status": "final",
        "subject": {
          "reference": "urn:uuid:d40e106c-516d-4ed7-950e-ef373b96ac77",
          "display": "Meaghan Neary"
        },
        "effectiveDateTime": "2022-10-31T22:11:04Z",
        "specimen": {
          "reference": "urn:uuid:60840216-2ba7-4086-8212-4ac752a7b103"
        }
      }
    },
    {
      "fullUrl": "urn:uuid:1b639190-c163-4edd-aa5d-e3865475b0b8",
      "resource": {
        "resourceType": "Device",
        "id": "1b639190-c163-4edd-aa5d-e3865475b0b8",
        "deviceName": [
          {
            "name": "SYNDERAI Synthetic Generator",
            "type": "manufacturer-name"
          }
        ],
        "version": [
          {
            "value": "5.0"
          }
        ],
        "text": {
          "status": "generated",
          "div": "<div xmlns=\"http://www.w3.org/1999/xhtml\">SYNDERAI Synthetic Generator v5.0</div>"
        },
        "status": "active\"",
        "distinctIdentifier": "synderai-generator-50",
        "manufacturer": "SYNDERAI Project"
      }
    },
    {
      "fullUrl": "urn:uuid:056a8041-3e57-472e-87c0-f24f8f450dcf",
      "resource": {
        "resourceType": "Provenance",
        "id": "056a8041-3e57-472e-87c0-f24f8f450dcf",
        "target": [
          {
            "reference": "Patient/d40e106c-516d-4ed7-950e-ef373b96ac77"
          },
          {
            "reference": "Bundle/988b2d82-ea99-4f91-a3e1-74dcb2320fae"
          },
          {
            "reference": "Composition/b8449001-36bf-4fe9-912a-147e0b435baf"
          },
          {
            "reference": "PractitionerRole/708e43d4-a642-4faf-971e-f4295ea7445c"
          },
          {
            "reference": "Practitioner/e29d4cd7-a19f-40c5-a142-e9368f20e472"
          },
          {
            "reference": "PractitionerRole/50821604-b6bb-43f8-bd52-df7815413fb3"
          },
          {
            "reference": "Organization/ff2f466d-48bf-467c-9a02-5f9ff13cd767"
          }
        ],
        "activity": {
          "text": "Synthetic Example Data Generation"
        },
        "policy": [
          "https://synderai.net/synderai-synthetic-data-policy"
        ],
        "agent": [
          {
            "type": {
              "text": "author"
            },
            "who": {
              "reference": "Device/1b639190-c163-4edd-aa5d-e3865475b0b8"
            }
          }
        ],
        "reason": [
          {
            "text": "Interoperability Testing and Training (non-clinical use)"
          }
        ],
        "text": {
          "status": "generated",
          "div": "<div xmlns=\"http://www.w3.org/1999/xhtml\">Provenance for SYNDERAI Synthetic Example Data Resource</div>"
        },
        "recorded": "2022-10-31T23:11:04Z"
      }
    },
    {
      "fullUrl": "urn:uuid:708e43d4-a642-4faf-971e-f4295ea7445c",
      "resource": {
        "resourceType": "PractitionerRole",
        "id": "708e43d4-a642-4faf-971e-f4295ea7445c",
        "meta": {
          "profile": [
            "http://hl7.eu/fhir/base/StructureDefinition/practitionerRole-eu"
          ]
        },
        "text": {
          "status": "generated",
          "div": "<div xmlns=\"http://www.w3.org/1999/xhtml\">Laboratory Role Id: 708e43d4-a642-4faf-971e-f4295ea7445c</div>"
        },
        "practitioner": {
          "reference": "urn:uuid:e29d4cd7-a19f-40c5-a142-e9368f20e472"
        }
      }
    },
    {
      "fullUrl": "urn:uuid:e29d4cd7-a19f-40c5-a142-e9368f20e472",
      "resource": {
        "resourceType": "Practitioner",
        "id": "e29d4cd7-a19f-40c5-a142-e9368f20e472",
        "meta": {
          "profile": [
            "http://hl7.eu/fhir/base/StructureDefinition/practitioner-eu"
          ]
        },
        "identifier": [
          {
            "assigner": {
              "display": "HL7 Europe"
            },
            "system": "urn:oid:2.16.840.1.113883.2.51.999",
            "value": "6a0c93cc-496e-4c9c-b764-4ff84beeace7"
          }
        ],
        "name": [
          {
            "prefix": [
              "dr"
            ],
            "given": [
              "Ex"
            ],
            "family": "Ample"
          }
        ],
        "address": [
          {
            "line": [
              "Laboratoire Central Européenne",
              "Boulevard du Jardin Botanique 32"
            ],
            "postalCode": "1000",
            "city": "Brussels",
            "country": "Belgium"
          }
        ],
        "text": {
          "status": "generated",
          "div": "<div xmlns=\"http://www.w3.org/1999/xhtml\">Laboratory: Laboratoire Central Européenne, 1000 Brussels, Belgium</div>"
        }
      }
    }
  ],
  "type": "document",
  "timestamp": "2022-10-31T23:11:04Z"
}
