{
  "resourceType": "Bundle",
  "id": "b26fc513-4b53-451a-a2e2-0c1b4cedcdb9",
  "meta": {
    "profile": [
      "http://hl7.eu/fhir/laboratory/StructureDefinition/Bundle-eu-lab"
    ]
  },
  "identifier": {
    "assigner": {
      "display": "HL7 Europe"
    },
    "system": "urn:oid:2.16.840.1.113883.2.51.999",
    "value": "a585d3cc-ed15-42b6-aa6a-67604a6dc61a"
  },
  "entry": [
    {
      "fullUrl": "urn:uuid:4881bbfe-6329-43d3-8df7-5fd088b2c3f6",
      "resource": {
        "resourceType": "Composition",
        "id": "4881bbfe-6329-43d3-8df7-5fd088b2c3f6",
        "meta": {
          "profile": [
            "http://hl7.eu/fhir/laboratory/StructureDefinition/Composition-eu-lab"
          ]
        },
        "identifier": {
          "assigner": {
            "display": "HL7 Europe"
          },
          "system": "urn:oid:2.16.840.1.113883.2.51.999",
          "value": "a9362716-264a-4119-b709-4cc3abfcfb9d"
        },
        "author": [
          {
            "reference": "urn:uuid:b9894c83-cdb6-4320-ba96-0da34c775b1a"
          }
        ],
        "category": [
          {
            "coding": [
              {
                "code": "26436-6",
                "system": "http://loinc.org",
                "display": "Laboratory studies (set)"
              }
            ]
          }
        ],
        "type": {
          "coding": [
            {
              "code": "11502-2",
              "system": "http://loinc.org",
              "display": "Laboratory report"
            }
          ],
          "text": "Laboratory Report"
        },
        "section": [
          {
            "code": {
              "coding": [
                {
                  "code": "26436-6",
                  "system": "http://loinc.org",
                  "display": "Laboratory studies (set)"
                }
              ],
              "text": "Laboratory studies"
            },
            "section": [
              {
                "code": {
                  "coding": [
                    {
                      "code": "$20662-3",
                      "system": "http://loinc.org",
                      "display": "Allergens tested for in Serum"
                    }
                  ],
                  "text": "Allergens"
                },
                "entry": [
                  {
                    "reference": "urn:uuid:5ad607ec-681f-46dd-987c-6d476c0c0f6d"
                  },
                  {
                    "reference": "urn:uuid:3aa0df41-5326-4883-a731-950c57b0a997"
                  },
                  {
                    "reference": "urn:uuid:773b0774-c96e-4634-b4fc-a1f6e9253282"
                  },
                  {
                    "reference": "urn:uuid:84da2a07-14c4-46bc-8236-f3e644ce6159"
                  },
                  {
                    "reference": "urn:uuid:44742f6b-3ae7-45f5-9e0b-8440d12635e9"
                  },
                  {
                    "reference": "urn:uuid:63f6b135-5471-4c4c-a82c-6867a65d3fe2"
                  },
                  {
                    "reference": "urn:uuid:c9c79aea-51e2-44f4-9bc5-d6352d23a59d"
                  },
                  {
                    "reference": "urn:uuid:afea60ef-ebdb-4014-9160-f19c48940b42"
                  },
                  {
                    "reference": "urn:uuid:b702f703-3cc2-4e9c-b9c5-b2bee2cc91ed"
                  },
                  {
                    "reference": "urn:uuid:db9936a0-aec8-41e3-b2ea-e54e3721760a"
                  },
                  {
                    "reference": "urn:uuid:31164eee-6f0b-4d5f-82f6-85f02d5ef36d"
                  },
                  {
                    "reference": "urn:uuid:10098fe6-b82f-48b6-af54-825a25452403"
                  },
                  {
                    "reference": "urn:uuid:3936669f-8e49-4ed4-ad5e-ce5312a5e335"
                  },
                  {
                    "reference": "urn:uuid:28a9c784-9f93-4061-b883-7ede804d019b"
                  },
                  {
                    "reference": "urn:uuid:b7b0115d-c67e-4613-9d60-d7c2eee8d6ff"
                  }
                ],
                "text": {
                  "status": "generated",
                  "div": "<div xmlns=\"http://www.w3.org/1999/xhtml\"><h3>Allergens</h3><table class=\"hl7__eu__lab__report\"><thead><tr><th>Test</th><th>29-SEP-2017</th><th>Reference&#xA0;Range</th><th>Unit</th></tr></thead><tbody><tr><td>Peanut IgE Ab [Units/volume] in Serum</td><td>0.3</td><td>0 - 0.35</td><td>kU/L</td></tr><tr><td>Walnut IgE Ab [Units/volume] in Serum</td><td>0.1</td><td>0 - 100</td><td>kU/L</td></tr><tr><td>Codfish IgE Ab [Units/volume] in Serum</td><td>0.3</td><td>0 - 100</td><td>kU/L</td></tr><tr><td>Shrimp IgE Ab [Units/volume] in Serum</td><td>0.0</td><td>0 - 0.35</td><td>kU/L</td></tr><tr><td>Wheat IgE Ab [Units/volume] in Serum</td><td>0.1</td><td>0 - 100</td><td>kU/L</td></tr><tr><td>Egg white IgE Ab [Units/volume] in Serum</td><td>0.3</td><td>0 - 100</td><td>kU/L</td></tr><tr><td>Soybean IgE Ab [Units/volume] in Serum</td><td>0.3</td><td>0 - 0.35</td><td>kU/L</td></tr><tr><td>Cow milk IgE Ab [Units/volume] in Serum</td><td>0.3</td><td>0 - 0.35</td><td>kU/L</td></tr><tr><td>White Oak IgE Ab [Units/volume] in Serum</td><td>0.2</td><td>0 - 100</td><td>kU/L</td></tr><tr><td>Common Ragweed IgE Ab [Units/volume] in Serum</td><td>0.3</td><td>0 - 0.35</td><td>kU/L</td></tr><tr><td>Cat dander IgE Ab [Units/volume] in Serum</td><td>0.3</td><td>0 - 0.35</td><td>kU/L</td></tr><tr><td>American house dust mite IgE Ab [Units/volume] in Serum</td><td>0.2</td><td>0 - 0.35</td><td>kU/L</td></tr><tr><td>Cladosporium herbarum IgE Ab [Units/volume] in Serum</td><td>0.3</td><td>0 - 0.35</td><td>kU/L</td></tr><tr><td>Honey bee IgE Ab [Units/volume] in Serum</td><td>0.1</td><td>0 - 0.35</td><td>kU/L</td></tr><tr><td>Latex IgE Ab [Units/volume] in Serum</td><td>0.3</td><td>0 - 0.7</td><td>kU/L</td></tr></tbody></table></div>"
                },
                "title": "Allergens"
              }
            ],
            "title": "Laboratory Report"
          },
          {
            "text": {
              "status": "generated",
              "div": "<div xmlns=\"http://www.w3.org/1999/xhtml\"><h3>Annotation</h3><table class=\"hl7__eu__lab__report\"><tr><th>Conclusion and Recommendations based on this report and previous findings known to us</th></tr><tr><td>All tested specific IgE antibodies are within normal limits, with no significant sensitization detected to common food or environmental allergens. No laboratory evidence of IgE-mediated allergy is present based on these results. Clinical correlation is recommended if symptoms persist.</td></tr></table></div>"
            },
            "code": {
              "coding": [
                {
                  "system": "http://loinc.org",
                  "code": "48767-8",
                  "display": "Annotation comment"
                }
              ]
            },
            "title": "Annotation comment"
          }
        ],
        "status": "final",
        "subject": {
          "reference": "urn:uuid:edcd2e15-c25b-4c4e-b9b7-d48a02d8979e",
          "display": "Hynek Kubíčková"
        },
        "date": "2017-09-29T23:58:43Z",
        "title": "Laboratory Report",
        "confidentiality": "N"
      }
    },
    {
      "fullUrl": "urn:uuid:02e73a0b-a4db-46fc-8c37-cfeb824ec315",
      "resource": {
        "resourceType": "DiagnosticReport",
        "id": "02e73a0b-a4db-46fc-8c37-cfeb824ec315",
        "meta": {
          "profile": [
            "http://hl7.eu/fhir/laboratory/StructureDefinition/DiagnosticReport-eu-lab"
          ]
        },
        "identifier": [
          {
            "assigner": {
              "display": "HL7 Europe"
            },
            "system": "urn:oid:2.16.840.1.113883.2.51.999",
            "value": "73f37937-7243-4f8f-8486-ebc9425457e8"
          }
        ],
        "extension": [
          {
            "url": "http://hl7.org/fhir/5.0/StructureDefinition/extension-DiagnosticReport.composition",
            "valueReference": {
              "reference": "urn:uuid:a9362716-264a-4119-b709-4cc3abfcfb9d"
            }
          }
        ],
        "category": [
          {
            "coding": [
              {
                "code": "26436-6",
                "system": "http://loinc.org",
                "display": "Laboratory studies (set)"
              }
            ]
          }
        ],
        "specimen": [
          {
            "reference": "urn:uuid:d8f5afc9-fc63-4e2b-bf52-2700fbe5fe8b"
          }
        ],
        "result": [
          {
            "reference": "urn:uuid:5ad607ec-681f-46dd-987c-6d476c0c0f6d"
          },
          {
            "reference": "urn:uuid:3aa0df41-5326-4883-a731-950c57b0a997"
          },
          {
            "reference": "urn:uuid:773b0774-c96e-4634-b4fc-a1f6e9253282"
          },
          {
            "reference": "urn:uuid:84da2a07-14c4-46bc-8236-f3e644ce6159"
          },
          {
            "reference": "urn:uuid:44742f6b-3ae7-45f5-9e0b-8440d12635e9"
          },
          {
            "reference": "urn:uuid:63f6b135-5471-4c4c-a82c-6867a65d3fe2"
          },
          {
            "reference": "urn:uuid:c9c79aea-51e2-44f4-9bc5-d6352d23a59d"
          },
          {
            "reference": "urn:uuid:afea60ef-ebdb-4014-9160-f19c48940b42"
          },
          {
            "reference": "urn:uuid:b702f703-3cc2-4e9c-b9c5-b2bee2cc91ed"
          },
          {
            "reference": "urn:uuid:db9936a0-aec8-41e3-b2ea-e54e3721760a"
          },
          {
            "reference": "urn:uuid:31164eee-6f0b-4d5f-82f6-85f02d5ef36d"
          },
          {
            "reference": "urn:uuid:10098fe6-b82f-48b6-af54-825a25452403"
          },
          {
            "reference": "urn:uuid:3936669f-8e49-4ed4-ad5e-ce5312a5e335"
          },
          {
            "reference": "urn:uuid:28a9c784-9f93-4061-b883-7ede804d019b"
          },
          {
            "reference": "urn:uuid:b7b0115d-c67e-4613-9d60-d7c2eee8d6ff"
          }
        ],
        "status": "registered",
        "code": {
          "coding": [
            {
              "code": "11502-2",
              "system": "http://loinc.org",
              "display": "Laboratory report"
            }
          ]
        },
        "subject": {
          "reference": "urn:uuid:edcd2e15-c25b-4c4e-b9b7-d48a02d8979e",
          "display": "Hynek Kubíčková"
        }
      }
    },
    {
      "fullUrl": "urn:uuid:edcd2e15-c25b-4c4e-b9b7-d48a02d8979e",
      "resource": {
        "resourceType": "Patient",
        "id": "edcd2e15-c25b-4c4e-b9b7-d48a02d8979e",
        "meta": {
          "security": [
            {
              "system": "http://terminology.hl7.org/CodeSystem/v3-ActReason",
              "code": "HTEST"
            },
            {
              "system": "http://terminology.hl7.org/CodeSystem/v3-ActReason",
              "code": "TRAIN"
            }
          ],
          "tag": [
            {
              "system": "https://synderai.net/fhir/CodeSystem/tags",
              "code": "synthetic",
              "display": "SYNDERAI Synthetic data"
            }
          ],
          "profile": [
            "http://hl7.eu/fhir/base/StructureDefinition/patient-eu-core"
          ]
        },
        "identifier": [
          {
            "type": {
              "coding": [
                {
                  "code": "PT",
                  "system": "http://terminology.hl7.org/CodeSystem/v2-0203"
                }
              ]
            },
            "system": "http://ec.europa.eu/identifier/eci",
            "value": "9771-756399-9"
          },
          {
            "type": {
              "coding": [
                {
                  "code": "MR",
                  "system": "http://terminology.hl7.org/CodeSystem/v2-0203"
                }
              ]
            },
            "system": "http://local.setting.eu/identifier",
            "value": "0a9c3ea6-b526-4dcc-cde1-545cdfca14b2"
          }
        ],
        "name": [
          {
            "family": "Kubíčková"
          },
          {
            "given": [
              "Hynek"
            ]
          },
          {
            "text": "Hynek Kubíčková"
          }
        ],
        "address": [
          {
            "line": [
              "Vraňanská 9"
            ],
            "use": "home",
            "type": "physical",
            "postalCode": "739 11",
            "city": "Frýdlant nad Ostravicí",
            "country": "Czechia"
          }
        ],
        "telecom": [
          {
            "system": "phone",
            "value": "+420 605 458 784"
          }
        ],
        "extension": [
          {
            "url": "http://hl7.org/fhir/StructureDefinition/patient-nationality",
            "valueCodeableConcept": {
              "coding": [
                {
                  "code": "CZ",
                  "system": "http://hl7.org/fhir/ValueSet/country"
                }
              ]
            }
          }
        ],
        "text": {
          "status": "generated",
          "div": "<div xmlns=\"http://www.w3.org/1999/xhtml\"><table class=\"hl7__ips\"><tr><td>Hynek Kubíčková</td><td>male</td><td>24-Jun-2005</td></tr></table></div>"
        },
        "gender": "male",
        "birthDate": "2005-06-24"
      }
    },
    {
      "fullUrl": "urn:uuid:a7f2a766-3579-41c9-82e7-171969c4a9f0",
      "resource": {
        "resourceType": "ServiceRequest",
        "id": "a7f2a766-3579-41c9-82e7-171969c4a9f0",
        "meta": {
          "profile": [
            "http://hl7.eu/fhir/laboratory/StructureDefinition/ServiceRequest-eu-lab"
          ]
        },
        "identifier": [
          {
            "system": "http://example.org",
            "value": "4f239b41-6143-43c4-b97c-b41999465f88"
          }
        ],
        "specimen": [
          {
            "reference": "urn:uuid:d8f5afc9-fc63-4e2b-bf52-2700fbe5fe8b"
          }
        ],
        "status": "active",
        "intent": "order",
        "code": {
          "coding": [
            {
              "code": "108252007",
              "system": "http://snomed.info/sct",
              "display": "Laboratory procedure"
            }
          ]
        },
        "subject": {
          "reference": "urn:uuid:edcd2e15-c25b-4c4e-b9b7-d48a02d8979e",
          "display": "Hynek Kubíčková"
        },
        "requester": {
          "reference": "urn:uuid:654485fc-7377-44a5-b917-2294a6eb35a2"
        }
      }
    },
    {
      "fullUrl": "urn:uuid:654485fc-7377-44a5-b917-2294a6eb35a2",
      "resource": {
        "resourceType": "PractitionerRole",
        "id": "654485fc-7377-44a5-b917-2294a6eb35a2",
        "meta": {
          "profile": [
            "http://hl7.eu/fhir/base/StructureDefinition/practitionerRole-eu"
          ]
        },
        "text": {
          "status": "generated",
          "div": "<div xmlns=\"http://www.w3.org/1999/xhtml\">Provider Role Id: 654485fc-7377-44a5-b917-2294a6eb35a2</div>"
        },
        "organization": {
          "reference": "urn:uuid:bd0a11f5-72c4-45fc-ba5b-f0f988a84041"
        }
      }
    },
    {
      "fullUrl": "urn:uuid:bd0a11f5-72c4-45fc-ba5b-f0f988a84041",
      "resource": {
        "resourceType": "Organization",
        "id": "bd0a11f5-72c4-45fc-ba5b-f0f988a84041",
        "meta": {
          "profile": [
            "http://hl7.eu/fhir/base/StructureDefinition/organization-eu"
          ]
        },
        "identifier": [
          {
            "assigner": {
              "display": "HL7 Europe"
            },
            "system": "urn:oid:2.16.840.1.113883.2.51.999",
            "value": "26906cfa-56f6-45e8-8af1-0b51153dd945"
          }
        ],
        "address": [
          {
            "city": "Čeladná",
            "postalCode": "739 12",
            "country": "Czechia"
          }
        ],
        "text": {
          "status": "generated",
          "div": "<div xmlns=\"http://www.w3.org/1999/xhtml\">Provider Organization: Beskydské rehabilitační centrum</div>"
        },
        "name": "Beskydské rehabilitační centrum"
      }
    },
    {
      "fullUrl": "urn:uuid:d8f5afc9-fc63-4e2b-bf52-2700fbe5fe8b",
      "resource": {
        "resourceType": "Specimen",
        "id": "d8f5afc9-fc63-4e2b-bf52-2700fbe5fe8b",
        "meta": {
          "profile": [
            "http://hl7.eu/fhir/laboratory/StructureDefinition/Specimen-eu-lab"
          ]
        },
        "collection": {
          "collectedDateTime": "2017-09-29"
        },
        "text": {
          "status": "generated",
          "div": "<div xmlns=\"http://www.w3.org/1999/xhtml\"><table class=\"hl7__eu__lab__report\"><tr><th>Specimen</th><th>Collection Date</th></tr><tr><td>Serum specimen</td><td><span class=\"nb\">29-Sep-2017</span></td></tr></table></div>"
        },
        "type": {
          "coding": [
            {
              "code": "119364003",
              "system": "http://snomed.info/sct",
              "display": "Serum specimen"
            }
          ]
        }
      }
    },
    {
      "fullUrl": "urn:uuid:5ad607ec-681f-46dd-987c-6d476c0c0f6d",
      "resource": {
        "resourceType": "Observation",
        "id": "5ad607ec-681f-46dd-987c-6d476c0c0f6d",
        "meta": {
          "profile": [
            "http://hl7.eu/fhir/laboratory/StructureDefinition/Observation-resultslab-eu-lab"
          ]
        },
        "performer": [
          {
            "display": "The Central European Lab"
          }
        ],
        "category": [
          {
            "coding": [
              {
                "system": "http://terminology.hl7.org/CodeSystem/observation-category",
                "code": "laboratory"
              }
            ]
          }
        ],
        "code": {
          "coding": [
            {
              "code": "6206-7",
              "system": "http://loinc.org",
              "display": "Peanut IgE Ab [Units/volume] in Serum"
            }
          ],
          "text": "Peanut IgE Ab [Units/volume] in Serum"
        },
        "valueQuantity": {
          "system": "http://unitsofmeasure.org",
          "value": 0.3,
          "unit": "kU/L",
          "code": "kU/L"
        },
        "referenceRange": [
          {
            "low": {
              "value": 0,
              "code": "kU/L",
              "system": "http://unitsofmeasure.org"
            }
          },
          {
            "high": {
              "value": 0.35,
              "code": "kU/L",
              "system": "http://unitsofmeasure.org"
            }
          }
        ],
        "text": {
          "status": "generated",
          "div": "<div xmlns=\"http://www.w3.org/1999/xhtml\"><table class=\"hl7__eu__lab__report\"><tr><th>Test</th><th>29-Sep-2017</th><th>Reference&#xA0;Range</th><th>Unit</th></tr><tr><td>Peanut IgE Ab [Units/volume] in Serum</td><td>0.3</td><td>0 - 0.35</td><td></td><td>kU/L</td></tr></table></div>"
        },
        "status": "final",
        "subject": {
          "reference": "urn:uuid:edcd2e15-c25b-4c4e-b9b7-d48a02d8979e",
          "display": "Hynek Kubíčková"
        },
        "effectiveDateTime": "2017-09-29T21:58:43Z",
        "specimen": {
          "reference": "urn:uuid:d8f5afc9-fc63-4e2b-bf52-2700fbe5fe8b"
        }
      }
    },
    {
      "fullUrl": "urn:uuid:3aa0df41-5326-4883-a731-950c57b0a997",
      "resource": {
        "resourceType": "Observation",
        "id": "3aa0df41-5326-4883-a731-950c57b0a997",
        "meta": {
          "profile": [
            "http://hl7.eu/fhir/laboratory/StructureDefinition/Observation-resultslab-eu-lab"
          ]
        },
        "performer": [
          {
            "display": "The Central European Lab"
          }
        ],
        "category": [
          {
            "coding": [
              {
                "system": "http://terminology.hl7.org/CodeSystem/observation-category",
                "code": "laboratory"
              }
            ]
          }
        ],
        "code": {
          "coding": [
            {
              "code": "6273-7",
              "system": "http://loinc.org",
              "display": "Walnut IgE Ab [Units/volume] in Serum"
            }
          ],
          "text": "Walnut IgE Ab [Units/volume] in Serum"
        },
        "valueQuantity": {
          "system": "http://unitsofmeasure.org",
          "value": 0.1,
          "unit": "kU/L",
          "code": "kU/L"
        },
        "referenceRange": [
          {
            "low": {
              "value": 0,
              "code": "kU/L",
              "system": "http://unitsofmeasure.org"
            }
          },
          {
            "high": {
              "value": 100,
              "code": "kU/L",
              "system": "http://unitsofmeasure.org"
            }
          }
        ],
        "text": {
          "status": "generated",
          "div": "<div xmlns=\"http://www.w3.org/1999/xhtml\"><table class=\"hl7__eu__lab__report\"><tr><th>Test</th><th>29-Sep-2017</th><th>Reference&#xA0;Range</th><th>Unit</th></tr><tr><td>Walnut IgE Ab [Units/volume] in Serum</td><td>0.1</td><td>0 - 100</td><td></td><td>kU/L</td></tr></table></div>"
        },
        "status": "final",
        "subject": {
          "reference": "urn:uuid:edcd2e15-c25b-4c4e-b9b7-d48a02d8979e",
          "display": "Hynek Kubíčková"
        },
        "effectiveDateTime": "2017-09-29T21:58:43Z",
        "specimen": {
          "reference": "urn:uuid:d8f5afc9-fc63-4e2b-bf52-2700fbe5fe8b"
        }
      }
    },
    {
      "fullUrl": "urn:uuid:773b0774-c96e-4634-b4fc-a1f6e9253282",
      "resource": {
        "resourceType": "Observation",
        "id": "773b0774-c96e-4634-b4fc-a1f6e9253282",
        "meta": {
          "profile": [
            "http://hl7.eu/fhir/laboratory/StructureDefinition/Observation-resultslab-eu-lab"
          ]
        },
        "performer": [
          {
            "display": "The Central European Lab"
          }
        ],
        "category": [
          {
            "coding": [
              {
                "system": "http://terminology.hl7.org/CodeSystem/observation-category",
                "code": "laboratory"
              }
            ]
          }
        ],
        "code": {
          "coding": [
            {
              "code": "6082-2",
              "system": "http://loinc.org",
              "display": "Codfish IgE Ab [Units/volume] in Serum"
            }
          ],
          "text": "Codfish IgE Ab [Units/volume] in Serum"
        },
        "valueQuantity": {
          "system": "http://unitsofmeasure.org",
          "value": 0.3,
          "unit": "kU/L",
          "code": "kU/L"
        },
        "referenceRange": [
          {
            "low": {
              "value": 0,
              "code": "kU/L",
              "system": "http://unitsofmeasure.org"
            }
          },
          {
            "high": {
              "value": 100,
              "code": "kU/L",
              "system": "http://unitsofmeasure.org"
            }
          }
        ],
        "text": {
          "status": "generated",
          "div": "<div xmlns=\"http://www.w3.org/1999/xhtml\"><table class=\"hl7__eu__lab__report\"><tr><th>Test</th><th>29-Sep-2017</th><th>Reference&#xA0;Range</th><th>Unit</th></tr><tr><td>Codfish IgE Ab [Units/volume] in Serum</td><td>0.3</td><td>0 - 100</td><td></td><td>kU/L</td></tr></table></div>"
        },
        "status": "final",
        "subject": {
          "reference": "urn:uuid:edcd2e15-c25b-4c4e-b9b7-d48a02d8979e",
          "display": "Hynek Kubíčková"
        },
        "effectiveDateTime": "2017-09-29T21:58:43Z",
        "specimen": {
          "reference": "urn:uuid:d8f5afc9-fc63-4e2b-bf52-2700fbe5fe8b"
        }
      }
    },
    {
      "fullUrl": "urn:uuid:84da2a07-14c4-46bc-8236-f3e644ce6159",
      "resource": {
        "resourceType": "Observation",
        "id": "84da2a07-14c4-46bc-8236-f3e644ce6159",
        "meta": {
          "profile": [
            "http://hl7.eu/fhir/laboratory/StructureDefinition/Observation-resultslab-eu-lab"
          ]
        },
        "performer": [
          {
            "display": "The Central European Lab"
          }
        ],
        "category": [
          {
            "coding": [
              {
                "system": "http://terminology.hl7.org/CodeSystem/observation-category",
                "code": "laboratory"
              }
            ]
          }
        ],
        "code": {
          "coding": [
            {
              "code": "6246-3",
              "system": "http://loinc.org",
              "display": "Shrimp IgE Ab [Units/volume] in Serum"
            }
          ],
          "text": "Shrimp IgE Ab [Units/volume] in Serum"
        },
        "valueQuantity": {
          "system": "http://unitsofmeasure.org",
          "value": 0,
          "unit": "kU/L",
          "code": "kU/L"
        },
        "referenceRange": [
          {
            "low": {
              "value": 0,
              "code": "kU/L",
              "system": "http://unitsofmeasure.org"
            }
          },
          {
            "high": {
              "value": 0.35,
              "code": "kU/L",
              "system": "http://unitsofmeasure.org"
            }
          }
        ],
        "text": {
          "status": "generated",
          "div": "<div xmlns=\"http://www.w3.org/1999/xhtml\"><table class=\"hl7__eu__lab__report\"><tr><th>Test</th><th>29-Sep-2017</th><th>Reference&#xA0;Range</th><th>Unit</th></tr><tr><td>Shrimp IgE Ab [Units/volume] in Serum</td><td>0.0</td><td>0 - 0.35</td><td></td><td>kU/L</td></tr></table></div>"
        },
        "status": "final",
        "subject": {
          "reference": "urn:uuid:edcd2e15-c25b-4c4e-b9b7-d48a02d8979e",
          "display": "Hynek Kubíčková"
        },
        "effectiveDateTime": "2017-09-29T21:58:43Z",
        "specimen": {
          "reference": "urn:uuid:d8f5afc9-fc63-4e2b-bf52-2700fbe5fe8b"
        }
      }
    },
    {
      "fullUrl": "urn:uuid:44742f6b-3ae7-45f5-9e0b-8440d12635e9",
      "resource": {
        "resourceType": "Observation",
        "id": "44742f6b-3ae7-45f5-9e0b-8440d12635e9",
        "meta": {
          "profile": [
            "http://hl7.eu/fhir/laboratory/StructureDefinition/Observation-resultslab-eu-lab"
          ]
        },
        "performer": [
          {
            "display": "The Central European Lab"
          }
        ],
        "category": [
          {
            "coding": [
              {
                "system": "http://terminology.hl7.org/CodeSystem/observation-category",
                "code": "laboratory"
              }
            ]
          }
        ],
        "code": {
          "coding": [
            {
              "code": "6276-0",
              "system": "http://loinc.org",
              "display": "Wheat IgE Ab [Units/volume] in Serum"
            }
          ],
          "text": "Wheat IgE Ab [Units/volume] in Serum"
        },
        "valueQuantity": {
          "system": "http://unitsofmeasure.org",
          "value": 0.1,
          "unit": "kU/L",
          "code": "kU/L"
        },
        "referenceRange": [
          {
            "low": {
              "value": 0,
              "code": "kU/L",
              "system": "http://unitsofmeasure.org"
            }
          },
          {
            "high": {
              "value": 100,
              "code": "kU/L",
              "system": "http://unitsofmeasure.org"
            }
          }
        ],
        "text": {
          "status": "generated",
          "div": "<div xmlns=\"http://www.w3.org/1999/xhtml\"><table class=\"hl7__eu__lab__report\"><tr><th>Test</th><th>29-Sep-2017</th><th>Reference&#xA0;Range</th><th>Unit</th></tr><tr><td>Wheat IgE Ab [Units/volume] in Serum</td><td>0.1</td><td>0 - 100</td><td></td><td>kU/L</td></tr></table></div>"
        },
        "status": "final",
        "subject": {
          "reference": "urn:uuid:edcd2e15-c25b-4c4e-b9b7-d48a02d8979e",
          "display": "Hynek Kubíčková"
        },
        "effectiveDateTime": "2017-09-29T21:58:43Z",
        "specimen": {
          "reference": "urn:uuid:d8f5afc9-fc63-4e2b-bf52-2700fbe5fe8b"
        }
      }
    },
    {
      "fullUrl": "urn:uuid:63f6b135-5471-4c4c-a82c-6867a65d3fe2",
      "resource": {
        "resourceType": "Observation",
        "id": "63f6b135-5471-4c4c-a82c-6867a65d3fe2",
        "meta": {
          "profile": [
            "http://hl7.eu/fhir/laboratory/StructureDefinition/Observation-resultslab-eu-lab"
          ]
        },
        "performer": [
          {
            "display": "The Central European Lab"
          }
        ],
        "category": [
          {
            "coding": [
              {
                "system": "http://terminology.hl7.org/CodeSystem/observation-category",
                "code": "laboratory"
              }
            ]
          }
        ],
        "code": {
          "coding": [
            {
              "code": "6106-9",
              "system": "http://loinc.org",
              "display": "Egg white IgE Ab [Units/volume] in Serum"
            }
          ],
          "text": "Egg white IgE Ab [Units/volume] in Serum"
        },
        "valueQuantity": {
          "system": "http://unitsofmeasure.org",
          "value": 0.3,
          "unit": "kU/L",
          "code": "kU/L"
        },
        "referenceRange": [
          {
            "low": {
              "value": 0,
              "code": "kU/L",
              "system": "http://unitsofmeasure.org"
            }
          },
          {
            "high": {
              "value": 100,
              "code": "kU/L",
              "system": "http://unitsofmeasure.org"
            }
          }
        ],
        "text": {
          "status": "generated",
          "div": "<div xmlns=\"http://www.w3.org/1999/xhtml\"><table class=\"hl7__eu__lab__report\"><tr><th>Test</th><th>29-Sep-2017</th><th>Reference&#xA0;Range</th><th>Unit</th></tr><tr><td>Egg white IgE Ab [Units/volume] in Serum</td><td>0.3</td><td>0 - 100</td><td></td><td>kU/L</td></tr></table></div>"
        },
        "status": "final",
        "subject": {
          "reference": "urn:uuid:edcd2e15-c25b-4c4e-b9b7-d48a02d8979e",
          "display": "Hynek Kubíčková"
        },
        "effectiveDateTime": "2017-09-29T21:58:43Z",
        "specimen": {
          "reference": "urn:uuid:d8f5afc9-fc63-4e2b-bf52-2700fbe5fe8b"
        }
      }
    },
    {
      "fullUrl": "urn:uuid:c9c79aea-51e2-44f4-9bc5-d6352d23a59d",
      "resource": {
        "resourceType": "Observation",
        "id": "c9c79aea-51e2-44f4-9bc5-d6352d23a59d",
        "meta": {
          "profile": [
            "http://hl7.eu/fhir/laboratory/StructureDefinition/Observation-resultslab-eu-lab"
          ]
        },
        "performer": [
          {
            "display": "The Central European Lab"
          }
        ],
        "category": [
          {
            "coding": [
              {
                "system": "http://terminology.hl7.org/CodeSystem/observation-category",
                "code": "laboratory"
              }
            ]
          }
        ],
        "code": {
          "coding": [
            {
              "code": "6248-9",
              "system": "http://loinc.org",
              "display": "Soybean IgE Ab [Units/volume] in Serum"
            }
          ],
          "text": "Soybean IgE Ab [Units/volume] in Serum"
        },
        "valueQuantity": {
          "system": "http://unitsofmeasure.org",
          "value": 0.3,
          "unit": "kU/L",
          "code": "kU/L"
        },
        "referenceRange": [
          {
            "low": {
              "value": 0,
              "code": "kU/L",
              "system": "http://unitsofmeasure.org"
            }
          },
          {
            "high": {
              "value": 0.35,
              "code": "kU/L",
              "system": "http://unitsofmeasure.org"
            }
          }
        ],
        "text": {
          "status": "generated",
          "div": "<div xmlns=\"http://www.w3.org/1999/xhtml\"><table class=\"hl7__eu__lab__report\"><tr><th>Test</th><th>29-Sep-2017</th><th>Reference&#xA0;Range</th><th>Unit</th></tr><tr><td>Soybean IgE Ab [Units/volume] in Serum</td><td>0.3</td><td>0 - 0.35</td><td></td><td>kU/L</td></tr></table></div>"
        },
        "status": "final",
        "subject": {
          "reference": "urn:uuid:edcd2e15-c25b-4c4e-b9b7-d48a02d8979e",
          "display": "Hynek Kubíčková"
        },
        "effectiveDateTime": "2017-09-29T21:58:43Z",
        "specimen": {
          "reference": "urn:uuid:d8f5afc9-fc63-4e2b-bf52-2700fbe5fe8b"
        }
      }
    },
    {
      "fullUrl": "urn:uuid:afea60ef-ebdb-4014-9160-f19c48940b42",
      "resource": {
        "resourceType": "Observation",
        "id": "afea60ef-ebdb-4014-9160-f19c48940b42",
        "meta": {
          "profile": [
            "http://hl7.eu/fhir/laboratory/StructureDefinition/Observation-resultslab-eu-lab"
          ]
        },
        "performer": [
          {
            "display": "The Central European Lab"
          }
        ],
        "category": [
          {
            "coding": [
              {
                "system": "http://terminology.hl7.org/CodeSystem/observation-category",
                "code": "laboratory"
              }
            ]
          }
        ],
        "code": {
          "coding": [
            {
              "code": "7258-7",
              "system": "http://loinc.org",
              "display": "Cow milk IgE Ab [Units/volume] in Serum"
            }
          ],
          "text": "Cow milk IgE Ab [Units/volume] in Serum"
        },
        "valueQuantity": {
          "system": "http://unitsofmeasure.org",
          "value": 0.3,
          "unit": "kU/L",
          "code": "kU/L"
        },
        "referenceRange": [
          {
            "low": {
              "value": 0,
              "code": "kU/L",
              "system": "http://unitsofmeasure.org"
            }
          },
          {
            "high": {
              "value": 0.35,
              "code": "kU/L",
              "system": "http://unitsofmeasure.org"
            }
          }
        ],
        "text": {
          "status": "generated",
          "div": "<div xmlns=\"http://www.w3.org/1999/xhtml\"><table class=\"hl7__eu__lab__report\"><tr><th>Test</th><th>29-Sep-2017</th><th>Reference&#xA0;Range</th><th>Unit</th></tr><tr><td>Cow milk IgE Ab [Units/volume] in Serum</td><td>0.3</td><td>0 - 0.35</td><td></td><td>kU/L</td></tr></table></div>"
        },
        "status": "final",
        "subject": {
          "reference": "urn:uuid:edcd2e15-c25b-4c4e-b9b7-d48a02d8979e",
          "display": "Hynek Kubíčková"
        },
        "effectiveDateTime": "2017-09-29T21:58:43Z",
        "specimen": {
          "reference": "urn:uuid:d8f5afc9-fc63-4e2b-bf52-2700fbe5fe8b"
        }
      }
    },
    {
      "fullUrl": "urn:uuid:b702f703-3cc2-4e9c-b9c5-b2bee2cc91ed",
      "resource": {
        "resourceType": "Observation",
        "id": "b702f703-3cc2-4e9c-b9c5-b2bee2cc91ed",
        "meta": {
          "profile": [
            "http://hl7.eu/fhir/laboratory/StructureDefinition/Observation-resultslab-eu-lab"
          ]
        },
        "performer": [
          {
            "display": "The Central European Lab"
          }
        ],
        "category": [
          {
            "coding": [
              {
                "system": "http://terminology.hl7.org/CodeSystem/observation-category",
                "code": "laboratory"
              }
            ]
          }
        ],
        "code": {
          "coding": [
            {
              "code": "6189-5",
              "system": "http://loinc.org",
              "display": "White Oak IgE Ab [Units/volume] in Serum"
            }
          ],
          "text": "White Oak IgE Ab [Units/volume] in Serum"
        },
        "valueQuantity": {
          "system": "http://unitsofmeasure.org",
          "value": 0.2,
          "unit": "kU/L",
          "code": "kU/L"
        },
        "referenceRange": [
          {
            "low": {
              "value": 0,
              "code": "kU/L",
              "system": "http://unitsofmeasure.org"
            }
          },
          {
            "high": {
              "value": 100,
              "code": "kU/L",
              "system": "http://unitsofmeasure.org"
            }
          }
        ],
        "text": {
          "status": "generated",
          "div": "<div xmlns=\"http://www.w3.org/1999/xhtml\"><table class=\"hl7__eu__lab__report\"><tr><th>Test</th><th>29-Sep-2017</th><th>Reference&#xA0;Range</th><th>Unit</th></tr><tr><td>White Oak IgE Ab [Units/volume] in Serum</td><td>0.2</td><td>0 - 100</td><td></td><td>kU/L</td></tr></table></div>"
        },
        "status": "final",
        "subject": {
          "reference": "urn:uuid:edcd2e15-c25b-4c4e-b9b7-d48a02d8979e",
          "display": "Hynek Kubíčková"
        },
        "effectiveDateTime": "2017-09-29T21:58:43Z",
        "specimen": {
          "reference": "urn:uuid:d8f5afc9-fc63-4e2b-bf52-2700fbe5fe8b"
        }
      }
    },
    {
      "fullUrl": "urn:uuid:db9936a0-aec8-41e3-b2ea-e54e3721760a",
      "resource": {
        "resourceType": "Observation",
        "id": "db9936a0-aec8-41e3-b2ea-e54e3721760a",
        "meta": {
          "profile": [
            "http://hl7.eu/fhir/laboratory/StructureDefinition/Observation-resultslab-eu-lab"
          ]
        },
        "performer": [
          {
            "display": "The Central European Lab"
          }
        ],
        "category": [
          {
            "coding": [
              {
                "system": "http://terminology.hl7.org/CodeSystem/observation-category",
                "code": "laboratory"
              }
            ]
          }
        ],
        "code": {
          "coding": [
            {
              "code": "6085-5",
              "system": "http://loinc.org",
              "display": "Common Ragweed IgE Ab [Units/volume] in Serum"
            }
          ],
          "text": "Common Ragweed IgE Ab [Units/volume] in Serum"
        },
        "valueQuantity": {
          "system": "http://unitsofmeasure.org",
          "value": 0.3,
          "unit": "kU/L",
          "code": "kU/L"
        },
        "referenceRange": [
          {
            "low": {
              "value": 0,
              "code": "kU/L",
              "system": "http://unitsofmeasure.org"
            }
          },
          {
            "high": {
              "value": 0.35,
              "code": "kU/L",
              "system": "http://unitsofmeasure.org"
            }
          }
        ],
        "text": {
          "status": "generated",
          "div": "<div xmlns=\"http://www.w3.org/1999/xhtml\"><table class=\"hl7__eu__lab__report\"><tr><th>Test</th><th>29-Sep-2017</th><th>Reference&#xA0;Range</th><th>Unit</th></tr><tr><td>Common Ragweed IgE Ab [Units/volume] in Serum</td><td>0.3</td><td>0 - 0.35</td><td></td><td>kU/L</td></tr></table></div>"
        },
        "status": "final",
        "subject": {
          "reference": "urn:uuid:edcd2e15-c25b-4c4e-b9b7-d48a02d8979e",
          "display": "Hynek Kubíčková"
        },
        "effectiveDateTime": "2017-09-29T21:58:43Z",
        "specimen": {
          "reference": "urn:uuid:d8f5afc9-fc63-4e2b-bf52-2700fbe5fe8b"
        }
      }
    },
    {
      "fullUrl": "urn:uuid:31164eee-6f0b-4d5f-82f6-85f02d5ef36d",
      "resource": {
        "resourceType": "Observation",
        "id": "31164eee-6f0b-4d5f-82f6-85f02d5ef36d",
        "meta": {
          "profile": [
            "http://hl7.eu/fhir/laboratory/StructureDefinition/Observation-resultslab-eu-lab"
          ]
        },
        "performer": [
          {
            "display": "The Central European Lab"
          }
        ],
        "category": [
          {
            "coding": [
              {
                "system": "http://terminology.hl7.org/CodeSystem/observation-category",
                "code": "laboratory"
              }
            ]
          }
        ],
        "code": {
          "coding": [
            {
              "code": "6833-8",
              "system": "http://loinc.org",
              "display": "Cat dander IgE Ab [Units/volume] in Serum"
            }
          ],
          "text": "Cat dander IgE Ab [Units/volume] in Serum"
        },
        "valueQuantity": {
          "system": "http://unitsofmeasure.org",
          "value": 0.3,
          "unit": "kU/L",
          "code": "kU/L"
        },
        "referenceRange": [
          {
            "low": {
              "value": 0,
              "code": "kU/L",
              "system": "http://unitsofmeasure.org"
            }
          },
          {
            "high": {
              "value": 0.35,
              "code": "kU/L",
              "system": "http://unitsofmeasure.org"
            }
          }
        ],
        "text": {
          "status": "generated",
          "div": "<div xmlns=\"http://www.w3.org/1999/xhtml\"><table class=\"hl7__eu__lab__report\"><tr><th>Test</th><th>29-Sep-2017</th><th>Reference&#xA0;Range</th><th>Unit</th></tr><tr><td>Cat dander IgE Ab [Units/volume] in Serum</td><td>0.3</td><td>0 - 0.35</td><td></td><td>kU/L</td></tr></table></div>"
        },
        "status": "final",
        "subject": {
          "reference": "urn:uuid:edcd2e15-c25b-4c4e-b9b7-d48a02d8979e",
          "display": "Hynek Kubíčková"
        },
        "effectiveDateTime": "2017-09-29T21:58:43Z",
        "specimen": {
          "reference": "urn:uuid:d8f5afc9-fc63-4e2b-bf52-2700fbe5fe8b"
        }
      }
    },
    {
      "fullUrl": "urn:uuid:10098fe6-b82f-48b6-af54-825a25452403",
      "resource": {
        "resourceType": "Observation",
        "id": "10098fe6-b82f-48b6-af54-825a25452403",
        "meta": {
          "profile": [
            "http://hl7.eu/fhir/laboratory/StructureDefinition/Observation-resultslab-eu-lab"
          ]
        },
        "performer": [
          {
            "display": "The Central European Lab"
          }
        ],
        "category": [
          {
            "coding": [
              {
                "system": "http://terminology.hl7.org/CodeSystem/observation-category",
                "code": "laboratory"
              }
            ]
          }
        ],
        "code": {
          "coding": [
            {
              "code": "6095-4",
              "system": "http://loinc.org",
              "display": "American house dust mite IgE Ab [Units/volume] in Serum"
            }
          ],
          "text": "American house dust mite IgE Ab [Units/volume] in Serum"
        },
        "valueQuantity": {
          "system": "http://unitsofmeasure.org",
          "value": 0.2,
          "unit": "kU/L",
          "code": "kU/L"
        },
        "referenceRange": [
          {
            "low": {
              "value": 0,
              "code": "kU/L",
              "system": "http://unitsofmeasure.org"
            }
          },
          {
            "high": {
              "value": 0.35,
              "code": "kU/L",
              "system": "http://unitsofmeasure.org"
            }
          }
        ],
        "text": {
          "status": "generated",
          "div": "<div xmlns=\"http://www.w3.org/1999/xhtml\"><table class=\"hl7__eu__lab__report\"><tr><th>Test</th><th>29-Sep-2017</th><th>Reference&#xA0;Range</th><th>Unit</th></tr><tr><td>American house dust mite IgE Ab [Units/volume] in Serum</td><td>0.2</td><td>0 - 0.35</td><td></td><td>kU/L</td></tr></table></div>"
        },
        "status": "final",
        "subject": {
          "reference": "urn:uuid:edcd2e15-c25b-4c4e-b9b7-d48a02d8979e",
          "display": "Hynek Kubíčková"
        },
        "effectiveDateTime": "2017-09-29T21:58:43Z",
        "specimen": {
          "reference": "urn:uuid:d8f5afc9-fc63-4e2b-bf52-2700fbe5fe8b"
        }
      }
    },
    {
      "fullUrl": "urn:uuid:3936669f-8e49-4ed4-ad5e-ce5312a5e335",
      "resource": {
        "resourceType": "Observation",
        "id": "3936669f-8e49-4ed4-ad5e-ce5312a5e335",
        "meta": {
          "profile": [
            "http://hl7.eu/fhir/laboratory/StructureDefinition/Observation-resultslab-eu-lab"
          ]
        },
        "performer": [
          {
            "display": "The Central European Lab"
          }
        ],
        "category": [
          {
            "coding": [
              {
                "system": "http://terminology.hl7.org/CodeSystem/observation-category",
                "code": "laboratory"
              }
            ]
          }
        ],
        "code": {
          "coding": [
            {
              "code": "6075-6",
              "system": "http://loinc.org",
              "display": "Cladosporium herbarum IgE Ab [Units/volume] in Serum"
            }
          ],
          "text": "Cladosporium herbarum IgE Ab [Units/volume] in Serum"
        },
        "valueQuantity": {
          "system": "http://unitsofmeasure.org",
          "value": 0.3,
          "unit": "kU/L",
          "code": "kU/L"
        },
        "referenceRange": [
          {
            "low": {
              "value": 0,
              "code": "kU/L",
              "system": "http://unitsofmeasure.org"
            }
          },
          {
            "high": {
              "value": 0.35,
              "code": "kU/L",
              "system": "http://unitsofmeasure.org"
            }
          }
        ],
        "text": {
          "status": "generated",
          "div": "<div xmlns=\"http://www.w3.org/1999/xhtml\"><table class=\"hl7__eu__lab__report\"><tr><th>Test</th><th>29-Sep-2017</th><th>Reference&#xA0;Range</th><th>Unit</th></tr><tr><td>Cladosporium herbarum IgE Ab [Units/volume] in Serum</td><td>0.3</td><td>0 - 0.35</td><td></td><td>kU/L</td></tr></table></div>"
        },
        "status": "final",
        "subject": {
          "reference": "urn:uuid:edcd2e15-c25b-4c4e-b9b7-d48a02d8979e",
          "display": "Hynek Kubíčková"
        },
        "effectiveDateTime": "2017-09-29T21:58:43Z",
        "specimen": {
          "reference": "urn:uuid:d8f5afc9-fc63-4e2b-bf52-2700fbe5fe8b"
        }
      }
    },
    {
      "fullUrl": "urn:uuid:28a9c784-9f93-4061-b883-7ede804d019b",
      "resource": {
        "resourceType": "Observation",
        "id": "28a9c784-9f93-4061-b883-7ede804d019b",
        "meta": {
          "profile": [
            "http://hl7.eu/fhir/laboratory/StructureDefinition/Observation-resultslab-eu-lab"
          ]
        },
        "performer": [
          {
            "display": "The Central European Lab"
          }
        ],
        "category": [
          {
            "coding": [
              {
                "system": "http://terminology.hl7.org/CodeSystem/observation-category",
                "code": "laboratory"
              }
            ]
          }
        ],
        "code": {
          "coding": [
            {
              "code": "6844-5",
              "system": "http://loinc.org",
              "display": "Honey bee IgE Ab [Units/volume] in Serum"
            }
          ],
          "text": "Honey bee IgE Ab [Units/volume] in Serum"
        },
        "valueQuantity": {
          "system": "http://unitsofmeasure.org",
          "value": 0.1,
          "unit": "kU/L",
          "code": "kU/L"
        },
        "referenceRange": [
          {
            "low": {
              "value": 0,
              "code": "kU/L",
              "system": "http://unitsofmeasure.org"
            }
          },
          {
            "high": {
              "value": 0.35,
              "code": "kU/L",
              "system": "http://unitsofmeasure.org"
            }
          }
        ],
        "text": {
          "status": "generated",
          "div": "<div xmlns=\"http://www.w3.org/1999/xhtml\"><table class=\"hl7__eu__lab__report\"><tr><th>Test</th><th>29-Sep-2017</th><th>Reference&#xA0;Range</th><th>Unit</th></tr><tr><td>Honey bee IgE Ab [Units/volume] in Serum</td><td>0.1</td><td>0 - 0.35</td><td></td><td>kU/L</td></tr></table></div>"
        },
        "status": "final",
        "subject": {
          "reference": "urn:uuid:edcd2e15-c25b-4c4e-b9b7-d48a02d8979e",
          "display": "Hynek Kubíčková"
        },
        "effectiveDateTime": "2017-09-29T21:58:43Z",
        "specimen": {
          "reference": "urn:uuid:d8f5afc9-fc63-4e2b-bf52-2700fbe5fe8b"
        }
      }
    },
    {
      "fullUrl": "urn:uuid:b7b0115d-c67e-4613-9d60-d7c2eee8d6ff",
      "resource": {
        "resourceType": "Observation",
        "id": "b7b0115d-c67e-4613-9d60-d7c2eee8d6ff",
        "meta": {
          "profile": [
            "http://hl7.eu/fhir/laboratory/StructureDefinition/Observation-resultslab-eu-lab"
          ]
        },
        "performer": [
          {
            "display": "The Central European Lab"
          }
        ],
        "category": [
          {
            "coding": [
              {
                "system": "http://terminology.hl7.org/CodeSystem/observation-category",
                "code": "laboratory"
              }
            ]
          }
        ],
        "code": {
          "coding": [
            {
              "code": "6158-0",
              "system": "http://loinc.org",
              "display": "Latex IgE Ab [Units/volume] in Serum"
            }
          ],
          "text": "Latex IgE Ab [Units/volume] in Serum"
        },
        "valueQuantity": {
          "system": "http://unitsofmeasure.org",
          "value": 0.3,
          "unit": "kU/L",
          "code": "kU/L"
        },
        "referenceRange": [
          {
            "low": {
              "value": 0,
              "code": "kU/L",
              "system": "http://unitsofmeasure.org"
            }
          },
          {
            "high": {
              "value": 0.7,
              "code": "kU/L",
              "system": "http://unitsofmeasure.org"
            }
          }
        ],
        "text": {
          "status": "generated",
          "div": "<div xmlns=\"http://www.w3.org/1999/xhtml\"><table class=\"hl7__eu__lab__report\"><tr><th>Test</th><th>29-Sep-2017</th><th>Reference&#xA0;Range</th><th>Unit</th></tr><tr><td>Latex IgE Ab [Units/volume] in Serum</td><td>0.3</td><td>0 - 0.7</td><td></td><td>kU/L</td></tr></table></div>"
        },
        "status": "final",
        "subject": {
          "reference": "urn:uuid:edcd2e15-c25b-4c4e-b9b7-d48a02d8979e",
          "display": "Hynek Kubíčková"
        },
        "effectiveDateTime": "2017-09-29T21:58:43Z",
        "specimen": {
          "reference": "urn:uuid:d8f5afc9-fc63-4e2b-bf52-2700fbe5fe8b"
        }
      }
    },
    {
      "fullUrl": "urn:uuid:e8bf367c-c7fe-44c5-9419-33f5aa9ec3b9",
      "resource": {
        "resourceType": "Device",
        "id": "e8bf367c-c7fe-44c5-9419-33f5aa9ec3b9",
        "deviceName": [
          {
            "name": "SYNDERAI Synthetic Generator",
            "type": "manufacturer-name"
          }
        ],
        "version": [
          {
            "value": "5.0"
          }
        ],
        "text": {
          "status": "generated",
          "div": "<div xmlns=\"http://www.w3.org/1999/xhtml\">SYNDERAI Synthetic Generator v5.0</div>"
        },
        "status": "active\"",
        "distinctIdentifier": "synderai-generator-50",
        "manufacturer": "SYNDERAI Project"
      }
    },
    {
      "fullUrl": "urn:uuid:1b9d64cc-98c2-4755-b818-644072cc19ce",
      "resource": {
        "resourceType": "Provenance",
        "id": "1b9d64cc-98c2-4755-b818-644072cc19ce",
        "target": [
          {
            "reference": "Patient/edcd2e15-c25b-4c4e-b9b7-d48a02d8979e"
          },
          {
            "reference": "Bundle/b26fc513-4b53-451a-a2e2-0c1b4cedcdb9"
          },
          {
            "reference": "Composition/4881bbfe-6329-43d3-8df7-5fd088b2c3f6"
          },
          {
            "reference": "PractitionerRole/b9894c83-cdb6-4320-ba96-0da34c775b1a"
          },
          {
            "reference": "Practitioner/3b3a6a3d-a9d1-4b52-9a3f-6bdcbafbb97d"
          },
          {
            "reference": "PractitionerRole/654485fc-7377-44a5-b917-2294a6eb35a2"
          },
          {
            "reference": "Organization/bd0a11f5-72c4-45fc-ba5b-f0f988a84041"
          }
        ],
        "activity": {
          "text": "Synthetic Example Data Generation"
        },
        "policy": [
          "https://synderai.net/synderai-synthetic-data-policy"
        ],
        "agent": [
          {
            "type": {
              "text": "author"
            },
            "who": {
              "reference": "Device/e8bf367c-c7fe-44c5-9419-33f5aa9ec3b9"
            }
          }
        ],
        "reason": [
          {
            "text": "Interoperability Testing and Training (non-clinical use)"
          }
        ],
        "text": {
          "status": "generated",
          "div": "<div xmlns=\"http://www.w3.org/1999/xhtml\">Provenance for SYNDERAI Synthetic Example Data Resource</div>"
        },
        "recorded": "2017-09-29T23:58:43Z"
      }
    },
    {
      "fullUrl": "urn:uuid:b9894c83-cdb6-4320-ba96-0da34c775b1a",
      "resource": {
        "resourceType": "PractitionerRole",
        "id": "b9894c83-cdb6-4320-ba96-0da34c775b1a",
        "meta": {
          "profile": [
            "http://hl7.eu/fhir/base/StructureDefinition/practitionerRole-eu"
          ]
        },
        "text": {
          "status": "generated",
          "div": "<div xmlns=\"http://www.w3.org/1999/xhtml\">Laboratory Role Id: b9894c83-cdb6-4320-ba96-0da34c775b1a</div>"
        },
        "practitioner": {
          "reference": "urn:uuid:3b3a6a3d-a9d1-4b52-9a3f-6bdcbafbb97d"
        }
      }
    },
    {
      "fullUrl": "urn:uuid:3b3a6a3d-a9d1-4b52-9a3f-6bdcbafbb97d",
      "resource": {
        "resourceType": "Practitioner",
        "id": "3b3a6a3d-a9d1-4b52-9a3f-6bdcbafbb97d",
        "meta": {
          "profile": [
            "http://hl7.eu/fhir/base/StructureDefinition/practitioner-eu"
          ]
        },
        "identifier": [
          {
            "assigner": {
              "display": "HL7 Europe"
            },
            "system": "urn:oid:2.16.840.1.113883.2.51.999",
            "value": "2e16f689-6398-487d-abc1-0984565d0839"
          }
        ],
        "name": [
          {
            "prefix": [
              "dr"
            ],
            "given": [
              "Ex"
            ],
            "family": "Ample"
          }
        ],
        "address": [
          {
            "line": [
              "Laboratoire Central Européenne",
              "Boulevard du Jardin Botanique 32"
            ],
            "postalCode": "1000",
            "city": "Brussels",
            "country": "Belgium"
          }
        ],
        "text": {
          "status": "generated",
          "div": "<div xmlns=\"http://www.w3.org/1999/xhtml\">Laboratory: Laboratoire Central Européenne, 1000 Brussels, Belgium</div>"
        }
      }
    }
  ],
  "type": "document",
  "timestamp": "2017-09-29T23:58:43Z"
}
