{
  "resourceType": "Bundle",
  "id": "3e69681d-62a1-44e5-87e0-2724339fac62",
  "meta": {
    "profile": [
      "http://hl7.eu/fhir/laboratory/StructureDefinition/Bundle-eu-lab"
    ]
  },
  "identifier": {
    "assigner": {
      "display": "HL7 Europe"
    },
    "system": "urn:oid:2.16.840.1.113883.2.51.999",
    "value": "e65b68d6-947a-4c75-a2a2-adadd65641c0"
  },
  "entry": [
    {
      "fullUrl": "urn:uuid:4d6a72a3-97d4-47b2-9ec3-ed34110fc09d",
      "resource": {
        "resourceType": "Composition",
        "id": "4d6a72a3-97d4-47b2-9ec3-ed34110fc09d",
        "meta": {
          "profile": [
            "http://hl7.eu/fhir/laboratory/StructureDefinition/Composition-eu-lab"
          ]
        },
        "identifier": {
          "assigner": {
            "display": "HL7 Europe"
          },
          "system": "urn:oid:2.16.840.1.113883.2.51.999",
          "value": "e06d1e1a-1907-42cb-9fdf-9f99aef3cfb9"
        },
        "author": [
          {
            "reference": "urn:uuid:5b1b5410-8da5-481e-83f7-b91f1034d9ce"
          }
        ],
        "category": [
          {
            "coding": [
              {
                "code": "26436-6",
                "system": "http://loinc.org",
                "display": "Laboratory studies (set)"
              }
            ]
          }
        ],
        "type": {
          "coding": [
            {
              "code": "11502-2",
              "system": "http://loinc.org",
              "display": "Laboratory report"
            }
          ],
          "text": "Laboratory Report"
        },
        "section": [
          {
            "code": {
              "coding": [
                {
                  "code": "26436-6",
                  "system": "http://loinc.org",
                  "display": "Laboratory studies (set)"
                }
              ],
              "text": "Laboratory studies"
            },
            "section": [
              {
                "code": {
                  "coding": [
                    {
                      "code": "$18719-5",
                      "system": "http://loinc.org",
                      "display": "Chemistry studies (set)"
                    }
                  ],
                  "text": "Chemistry"
                },
                "entry": [
                  {
                    "reference": "urn:uuid:4b18d037-1d96-458d-9f1e-60e97c0b972c"
                  },
                  {
                    "reference": "urn:uuid:7745802e-c177-4a2e-9485-122393d6a752"
                  },
                  {
                    "reference": "urn:uuid:a17feac5-bc09-43e5-a0d2-837c20e63eca"
                  },
                  {
                    "reference": "urn:uuid:9e20d62c-1672-4009-8cd2-8d0d08b63f45"
                  },
                  {
                    "reference": "urn:uuid:309ff628-04bf-4f29-826a-98893e623a3b"
                  },
                  {
                    "reference": "urn:uuid:c2436a7f-9a73-4022-b07e-2f2e6df2f9fd"
                  },
                  {
                    "reference": "urn:uuid:622738fa-5d75-411d-b410-6e884fd82b7e"
                  },
                  {
                    "reference": "urn:uuid:4bee0945-09dc-4067-a9eb-595768deb884"
                  },
                  {
                    "reference": "urn:uuid:413746f4-c0b4-4f1f-bb5d-f89bd2bd2a5b"
                  },
                  {
                    "reference": "urn:uuid:729ab8f5-3e35-439c-ab95-413738e1bfae"
                  },
                  {
                    "reference": "urn:uuid:96793e27-c365-4372-aa70-2fa00acef65b"
                  },
                  {
                    "reference": "urn:uuid:f53822e1-5188-4e81-bb19-114c1b0f248a"
                  },
                  {
                    "reference": "urn:uuid:5a2ebe6d-01bf-4530-b3b7-fa5e148610ff"
                  },
                  {
                    "reference": "urn:uuid:c47292e8-cb5b-4387-915f-7f1e88692d43"
                  },
                  {
                    "reference": "urn:uuid:5b0b0f51-3560-444e-8a82-165973a0f56f"
                  },
                  {
                    "reference": "urn:uuid:8c4cae78-de35-4f14-b170-01c8dd93c71c"
                  },
                  {
                    "reference": "urn:uuid:7f9888cb-4bb3-4e8f-ac81-6f1e58ea1137"
                  },
                  {
                    "reference": "urn:uuid:27f78f32-2993-4366-9b18-8221cefef10c"
                  }
                ],
                "text": {
                  "status": "generated",
                  "div": "<div xmlns=\"http://www.w3.org/1999/xhtml\"><h3>Chemistry</h3><table class=\"hl7__eu__lab__report\"><thead><tr><th>Test</th><th>29-OCT-2021</th><th>Reference&#xA0;Range</th><th>Unit</th></tr></thead><tbody><tr><td>Glucose [Mass/volume] in Serum or Plasma</td><td>87.4</td><td>70 - 140</td><td>mg/dL</td></tr><tr><td>Urea nitrogen [Mass/volume] in Serum or Plasma</td><td>7.5</td><td>7 - 20</td><td>mg/dL</td></tr><tr><td>Creatinine [Mass/volume] in Serum or Plasma</td><td><strong>2.0 H</strong></td><td>0.9 - 1.3</td><td>mg/dL</td></tr><tr><td>Calcium [Mass/volume] in Serum or Plasma</td><td>10.2</td><td>8.5 - 10.5</td><td>mg/dL</td></tr><tr><td>Sodium [Moles/volume] in Serum or Plasma</td><td>141.9</td><td>135 - 145</td><td>mmol/L</td></tr><tr><td>Potassium [Moles/volume] in Serum or Plasma</td><td>5.1</td><td>3.5 - 5.3</td><td>mmol/L</td></tr><tr><td>Chloride [Moles/volume] in Serum or Plasma</td><td><strong>109.1 H</strong></td><td>98 - 107</td><td>mmol/L</td></tr><tr><td>Carbon dioxide, total [Moles/volume] in Serum or Plasma</td><td>23.8</td><td>22 - 33</td><td>mmol/L</td></tr><tr><td>Ketones [Presence] in Urine by Test strip</td><td>Urine ketone test = ++</td><td></td><td></td></tr><tr><td>Hemoglobin A1c/Hemoglobin.total in Blood</td><td><strong>3.1 L</strong></td><td>4.3 - 6</td><td>%</td></tr><tr><td>Glucose [Mass/volume] in Blood</td><td>87.4</td><td>70 - 140</td><td>mg/dL</td></tr><tr><td>Urea nitrogen [Mass/volume] in Blood</td><td>7.5</td><td>7 - 20</td><td>mg/dL</td></tr><tr><td>Creatinine [Mass/volume] in Blood</td><td><strong>4.4 H</strong></td><td>0.9 - 1.3</td><td>mg/dL</td></tr><tr><td>Calcium [Mass/volume] in Blood</td><td>10.2</td><td>8.5 - 10.5</td><td>mg/dL</td></tr><tr><td>Sodium [Moles/volume] in Blood</td><td>141.9</td><td>135 - 145</td><td>mmol/L</td></tr><tr><td>Potassium [Moles/volume] in Blood</td><td>5.1</td><td>3.5 - 5.1</td><td>mmol/L</td></tr><tr><td>Chloride [Moles/volume] in Blood</td><td><strong>109.1 H</strong></td><td>98 - 108</td><td>mmol/L</td></tr><tr><td>Carbon dioxide, total [Moles/volume] in Blood</td><td>23.8</td><td>22 - 29</td><td>mmol/L</td></tr></tbody></table></div>"
                },
                "title": "Chemistry"
              },
              {
                "code": {
                  "coding": [
                    {
                      "code": "$18729-4",
                      "system": "http://loinc.org",
                      "display": "Urinalysis studies (set)"
                    }
                  ],
                  "text": "Urinalysis"
                },
                "entry": [
                  {
                    "reference": "urn:uuid:85035c2d-894f-4e51-97ae-c2e5203bb470"
                  },
                  {
                    "reference": "urn:uuid:46194693-9b99-49c7-8a2d-2b7538f98458"
                  },
                  {
                    "reference": "urn:uuid:39b02aa2-b49b-4647-9768-8810653509ab"
                  },
                  {
                    "reference": "urn:uuid:f65599ef-b090-4f43-8934-fb560dbab39d"
                  },
                  {
                    "reference": "urn:uuid:a8e88036-7b83-4dde-99cf-448c0f9af70e"
                  },
                  {
                    "reference": "urn:uuid:d1722dda-e2ea-4282-808e-bf72d13c81fb"
                  },
                  {
                    "reference": "urn:uuid:95592c60-1116-48c0-8bf7-955e8a86d4e7"
                  },
                  {
                    "reference": "urn:uuid:6890d631-6dc8-4c26-8ff9-dcd73dd569b9"
                  },
                  {
                    "reference": "urn:uuid:08ece957-82ad-4075-81ca-8d89147e1430"
                  },
                  {
                    "reference": "urn:uuid:677cd163-973f-475c-9e5a-a0fec607bc58"
                  },
                  {
                    "reference": "urn:uuid:ef411dab-b733-4c13-82c0-32619e12da39"
                  },
                  {
                    "reference": "urn:uuid:e791e603-9d59-42d8-9b9c-5ef89436894a"
                  }
                ],
                "text": {
                  "status": "generated",
                  "div": "<div xmlns=\"http://www.w3.org/1999/xhtml\"><h3>Urinalysis</h3><table class=\"hl7__eu__lab__report\"><thead><tr><th>Test</th><th>29-OCT-2021</th><th>Reference&#xA0;Range</th><th>Unit</th></tr></thead><tbody><tr><td>Glucose [Mass/volume] in Urine by Test strip</td><td><strong>1.8 H</strong></td><td>0 - 0.8</td><td>mg/dL</td></tr><tr><td>Glucose [Presence] in Urine by Test strip</td><td>++</td><td></td><td></td></tr><tr><td>Bilirubin.total [Mass/volume] in Urine by Test strip</td><td>0.5</td><td>0 - 1.9</td><td>mg/dL</td></tr><tr><td>Bilirubin.total [Presence] in Urine by Test strip</td><td>Finding of bilirubin in urine</td><td></td><td></td></tr><tr><td>Ketones [Mass/volume] in Urine by Test strip</td><td><strong>5.7 H</strong></td><td>0 - 3</td><td>mg/dL</td></tr><tr><td>Specific gravity of Urine by Test strip</td><td><strong>1.0 L</strong></td><td>1.01 - 1.03</td><td>{nominal}</td></tr><tr><td>pH of Urine by Test strip</td><td>6.9</td><td>4.5 - 7.5</td><td>pH</td></tr><tr><td>Protein [Mass/volume] in Urine by Test strip</td><td><strong>398.0 H</strong></td><td>0 - 149</td><td>mg/dL</td></tr><tr><td>Protein [Presence] in Urine by Test strip</td><td>Urine protein test = ++</td><td></td><td></td></tr><tr><td>Nitrite [Presence] in Urine by Test strip</td><td>Urine nitrite negative</td><td></td><td></td></tr><tr><td>Hemoglobin [Presence] in Urine by Test strip</td><td>Urine blood test = negative</td><td></td><td></td></tr><tr><td>Leukocyte esterase [Presence] in Urine by Test strip</td><td>Urine leukocyte test negative</td><td></td><td></td></tr></tbody></table></div>"
                },
                "title": "Urinalysis"
              },
              {
                "code": {
                  "coding": [
                    {
                      "code": "$LP7846-1",
                      "system": "http://loinc.org",
                      "display": "Specimen information"
                    }
                  ],
                  "text": "Specimen information"
                },
                "entry": [
                  {
                    "reference": "urn:uuid:9cd93703-9a03-4220-b00b-4189ba9c3c88"
                  },
                  {
                    "reference": "urn:uuid:04841e61-4904-436d-94c3-0d7d57a45377"
                  },
                  {
                    "reference": "urn:uuid:5009dffe-5039-489f-a86b-f0dca417235f"
                  },
                  {
                    "reference": "urn:uuid:18742a6a-7427-47c8-ab83-5e8375e27780"
                  }
                ],
                "text": {
                  "status": "generated",
                  "div": "<div xmlns=\"http://www.w3.org/1999/xhtml\"><h3>Specimen information</h3><table class=\"hl7__eu__lab__report\"><thead><tr><th>Test</th><th>29-OCT-2021</th><th>Specimen</th><th></th></tr></thead><tbody><tr><td>Appearance of Urine</td><td>Cloudy urine</td><td>Urine</td><td></td></tr><tr><td>Odor of Urine</td><td>Urine smell ammoniacal</td><td>Urine</td><td></td></tr><tr><td>Clarity of Urine</td><td>Translucent</td><td>Urine</td><td></td></tr><tr><td>Color of Urine</td><td>Brown color</td><td>Urine</td><td></td></tr></tbody></table></div>"
                },
                "title": "Specimen information"
              }
            ],
            "title": "Laboratory Report"
          },
          {
            "text": {
              "status": "generated",
              "div": "<div xmlns=\"http://www.w3.org/1999/xhtml\"><h3>Annotation</h3><table class=\"hl7__eu__lab__report\"><tr><th>Conclusion and Recommendations based on this report and previous findings known to us</th></tr><tr><td>The patient shows significant renal impairment (elevated creatinine), proteinuria, glucosuria, and ketonuria, with low urine specific gravity, suggesting possible nephrotic syndrome or advanced diabetic nephropathy, though HbA1c is unexpectedly low. Urine is cloudy, brown, and ammoniacal, but no evidence of infection. Electrolytes are mostly normal except for mild hyperchloremia. Further clinical correlation and nephrology evaluation are recommended.</td></tr></table></div>"
            },
            "code": {
              "coding": [
                {
                  "system": "http://loinc.org",
                  "code": "48767-8",
                  "display": "Annotation comment"
                }
              ]
            },
            "title": "Annotation comment"
          }
        ],
        "status": "final",
        "subject": {
          "reference": "urn:uuid:690f723e-8ace-41e6-bb34-3ecd303446f9",
          "display": "Victor Lagarde"
        },
        "date": "2021-10-29T06:48:18Z",
        "title": "Laboratory Report",
        "confidentiality": "N"
      }
    },
    {
      "fullUrl": "urn:uuid:9d18c4f7-b7b5-4fb3-9905-f308245334db",
      "resource": {
        "resourceType": "DiagnosticReport",
        "id": "9d18c4f7-b7b5-4fb3-9905-f308245334db",
        "meta": {
          "profile": [
            "http://hl7.eu/fhir/laboratory/StructureDefinition/DiagnosticReport-eu-lab"
          ]
        },
        "identifier": [
          {
            "assigner": {
              "display": "HL7 Europe"
            },
            "system": "urn:oid:2.16.840.1.113883.2.51.999",
            "value": "e100e86e-b22e-43f4-9a43-fbf4569bc931"
          }
        ],
        "extension": [
          {
            "url": "http://hl7.org/fhir/5.0/StructureDefinition/extension-DiagnosticReport.composition",
            "valueReference": {
              "reference": "urn:uuid:e06d1e1a-1907-42cb-9fdf-9f99aef3cfb9"
            }
          }
        ],
        "category": [
          {
            "coding": [
              {
                "code": "26436-6",
                "system": "http://loinc.org",
                "display": "Laboratory studies (set)"
              }
            ]
          }
        ],
        "specimen": [
          {
            "reference": "urn:uuid:4ddade9c-cae2-4f53-a523-f846372f407d"
          },
          {
            "reference": "urn:uuid:4146ea88-14cd-4e35-b999-64e1b6273ad9"
          },
          {
            "reference": "urn:uuid:7a08f00e-4594-47d2-9073-da3fb00ae1b8"
          }
        ],
        "result": [
          {
            "reference": "urn:uuid:4b18d037-1d96-458d-9f1e-60e97c0b972c"
          },
          {
            "reference": "urn:uuid:7745802e-c177-4a2e-9485-122393d6a752"
          },
          {
            "reference": "urn:uuid:a17feac5-bc09-43e5-a0d2-837c20e63eca"
          },
          {
            "reference": "urn:uuid:9e20d62c-1672-4009-8cd2-8d0d08b63f45"
          },
          {
            "reference": "urn:uuid:309ff628-04bf-4f29-826a-98893e623a3b"
          },
          {
            "reference": "urn:uuid:c2436a7f-9a73-4022-b07e-2f2e6df2f9fd"
          },
          {
            "reference": "urn:uuid:622738fa-5d75-411d-b410-6e884fd82b7e"
          },
          {
            "reference": "urn:uuid:4bee0945-09dc-4067-a9eb-595768deb884"
          },
          {
            "reference": "urn:uuid:9cd93703-9a03-4220-b00b-4189ba9c3c88"
          },
          {
            "reference": "urn:uuid:04841e61-4904-436d-94c3-0d7d57a45377"
          },
          {
            "reference": "urn:uuid:5009dffe-5039-489f-a86b-f0dca417235f"
          },
          {
            "reference": "urn:uuid:18742a6a-7427-47c8-ab83-5e8375e27780"
          },
          {
            "reference": "urn:uuid:85035c2d-894f-4e51-97ae-c2e5203bb470"
          },
          {
            "reference": "urn:uuid:46194693-9b99-49c7-8a2d-2b7538f98458"
          },
          {
            "reference": "urn:uuid:39b02aa2-b49b-4647-9768-8810653509ab"
          },
          {
            "reference": "urn:uuid:f65599ef-b090-4f43-8934-fb560dbab39d"
          },
          {
            "reference": "urn:uuid:a8e88036-7b83-4dde-99cf-448c0f9af70e"
          },
          {
            "reference": "urn:uuid:413746f4-c0b4-4f1f-bb5d-f89bd2bd2a5b"
          },
          {
            "reference": "urn:uuid:d1722dda-e2ea-4282-808e-bf72d13c81fb"
          },
          {
            "reference": "urn:uuid:95592c60-1116-48c0-8bf7-955e8a86d4e7"
          },
          {
            "reference": "urn:uuid:6890d631-6dc8-4c26-8ff9-dcd73dd569b9"
          },
          {
            "reference": "urn:uuid:08ece957-82ad-4075-81ca-8d89147e1430"
          },
          {
            "reference": "urn:uuid:677cd163-973f-475c-9e5a-a0fec607bc58"
          },
          {
            "reference": "urn:uuid:ef411dab-b733-4c13-82c0-32619e12da39"
          },
          {
            "reference": "urn:uuid:e791e603-9d59-42d8-9b9c-5ef89436894a"
          },
          {
            "reference": "urn:uuid:729ab8f5-3e35-439c-ab95-413738e1bfae"
          },
          {
            "reference": "urn:uuid:96793e27-c365-4372-aa70-2fa00acef65b"
          },
          {
            "reference": "urn:uuid:f53822e1-5188-4e81-bb19-114c1b0f248a"
          },
          {
            "reference": "urn:uuid:5a2ebe6d-01bf-4530-b3b7-fa5e148610ff"
          },
          {
            "reference": "urn:uuid:c47292e8-cb5b-4387-915f-7f1e88692d43"
          },
          {
            "reference": "urn:uuid:5b0b0f51-3560-444e-8a82-165973a0f56f"
          },
          {
            "reference": "urn:uuid:8c4cae78-de35-4f14-b170-01c8dd93c71c"
          },
          {
            "reference": "urn:uuid:7f9888cb-4bb3-4e8f-ac81-6f1e58ea1137"
          },
          {
            "reference": "urn:uuid:27f78f32-2993-4366-9b18-8221cefef10c"
          }
        ],
        "status": "registered",
        "code": {
          "coding": [
            {
              "code": "11502-2",
              "system": "http://loinc.org",
              "display": "Laboratory report"
            }
          ]
        },
        "subject": {
          "reference": "urn:uuid:690f723e-8ace-41e6-bb34-3ecd303446f9",
          "display": "Victor Lagarde"
        }
      }
    },
    {
      "fullUrl": "urn:uuid:690f723e-8ace-41e6-bb34-3ecd303446f9",
      "resource": {
        "resourceType": "Patient",
        "id": "690f723e-8ace-41e6-bb34-3ecd303446f9",
        "meta": {
          "security": [
            {
              "system": "http://terminology.hl7.org/CodeSystem/v3-ActReason",
              "code": "HTEST"
            },
            {
              "system": "http://terminology.hl7.org/CodeSystem/v3-ActReason",
              "code": "TRAIN"
            }
          ],
          "tag": [
            {
              "system": "https://synderai.net/fhir/CodeSystem/tags",
              "code": "synthetic",
              "display": "SYNDERAI Synthetic data"
            }
          ],
          "profile": [
            "http://hl7.eu/fhir/base/StructureDefinition/patient-eu-core"
          ]
        },
        "identifier": [
          {
            "type": {
              "coding": [
                {
                  "code": "PT",
                  "system": "http://terminology.hl7.org/CodeSystem/v2-0203"
                }
              ]
            },
            "system": "http://ec.europa.eu/identifier/eci",
            "value": "9925-001801-9"
          },
          {
            "type": {
              "coding": [
                {
                  "code": "MR",
                  "system": "http://terminology.hl7.org/CodeSystem/v2-0203"
                }
              ]
            },
            "system": "http://local.setting.eu/identifier",
            "value": "22c2dfd0-ac57-8833-2532-848f180896a4"
          }
        ],
        "name": [
          {
            "family": "Lagarde"
          },
          {
            "given": [
              "Victor"
            ]
          },
          {
            "text": "Victor Lagarde"
          }
        ],
        "address": [
          {
            "line": [
              "avenue Robert"
            ],
            "use": "home",
            "type": "physical",
            "postalCode": "80300",
            "city": "Albert",
            "country": "France"
          }
        ],
        "telecom": [
          {
            "system": "phone",
            "value": "0177941801"
          }
        ],
        "extension": [
          {
            "url": "http://hl7.org/fhir/StructureDefinition/patient-nationality",
            "valueCodeableConcept": {
              "coding": [
                {
                  "code": "FR",
                  "system": "http://hl7.org/fhir/ValueSet/country"
                }
              ]
            }
          }
        ],
        "text": {
          "status": "generated",
          "div": "<div xmlns=\"http://www.w3.org/1999/xhtml\"><table class=\"hl7__ips\"><tr><td>Victor Lagarde</td><td>male</td><td>31-Aug-1939</td></tr></table></div>"
        },
        "gender": "male",
        "birthDate": "1939-08-31"
      }
    },
    {
      "fullUrl": "urn:uuid:3a283884-1b4c-4441-ab17-fd967c3f8bd5",
      "resource": {
        "resourceType": "ServiceRequest",
        "id": "3a283884-1b4c-4441-ab17-fd967c3f8bd5",
        "meta": {
          "profile": [
            "http://hl7.eu/fhir/laboratory/StructureDefinition/ServiceRequest-eu-lab"
          ]
        },
        "identifier": [
          {
            "system": "http://example.org",
            "value": "0b413fd3-f73d-4072-b008-3a001fe551fc"
          }
        ],
        "specimen": [
          {
            "reference": "urn:uuid:4ddade9c-cae2-4f53-a523-f846372f407d"
          },
          {
            "reference": "urn:uuid:4146ea88-14cd-4e35-b999-64e1b6273ad9"
          },
          {
            "reference": "urn:uuid:7a08f00e-4594-47d2-9073-da3fb00ae1b8"
          }
        ],
        "reasonCode": [
          {
            "coding": [
              {
                "code": "433144002",
                "system": "http://snomed.info/sct",
                "display": "Chronic kidney disease stage 3"
              }
            ]
          },
          {
            "coding": [
              {
                "code": "157141000119108",
                "system": "http://snomed.info/sct",
                "display": "Proteinuria due to type 2 diabetes mellitus"
              }
            ]
          },
          {
            "coding": [
              {
                "code": "431856006",
                "system": "http://snomed.info/sct",
                "display": "Chronic kidney disease stage 2"
              }
            ]
          },
          {
            "coding": [
              {
                "code": "90781000119102",
                "system": "http://snomed.info/sct",
                "display": "Microalbuminuria due to type 2 diabetes mellitus"
              }
            ]
          },
          {
            "coding": [
              {
                "code": "127013003",
                "system": "http://snomed.info/sct",
                "display": "Disorder of kidney due to diabetes mellitus"
              }
            ]
          },
          {
            "coding": [
              {
                "code": "431855005",
                "system": "http://snomed.info/sct",
                "display": "Chronic kidney disease stage 1"
              }
            ]
          },
          {
            "coding": [
              {
                "code": "55822004",
                "system": "http://snomed.info/sct",
                "display": "Hyperlipidemia"
              }
            ]
          },
          {
            "coding": [
              {
                "code": "59621000",
                "system": "http://snomed.info/sct",
                "display": "Essential hypertension"
              }
            ]
          },
          {
            "coding": [
              {
                "code": "237602007",
                "system": "http://snomed.info/sct",
                "display": "Metabolic syndrome X"
              }
            ]
          },
          {
            "coding": [
              {
                "code": "414545008",
                "system": "http://snomed.info/sct",
                "display": "Ischemic heart disease"
              }
            ]
          },
          {
            "coding": [
              {
                "code": "40055000",
                "system": "http://snomed.info/sct",
                "display": "Chronic sinusitis"
              }
            ]
          },
          {
            "coding": [
              {
                "code": "15777000",
                "system": "http://snomed.info/sct",
                "display": "Prediabetes"
              }
            ]
          },
          {
            "coding": [
              {
                "code": "271737000",
                "system": "http://snomed.info/sct",
                "display": "Anemia"
              }
            ]
          }
        ],
        "status": "active",
        "intent": "order",
        "code": {
          "coding": [
            {
              "code": "108252007",
              "system": "http://snomed.info/sct",
              "display": "Laboratory procedure"
            }
          ]
        },
        "subject": {
          "reference": "urn:uuid:690f723e-8ace-41e6-bb34-3ecd303446f9",
          "display": "Victor Lagarde"
        },
        "requester": {
          "reference": "urn:uuid:b058cafc-93b0-45c4-813f-a052279bd5ef"
        }
      }
    },
    {
      "fullUrl": "urn:uuid:b058cafc-93b0-45c4-813f-a052279bd5ef",
      "resource": {
        "resourceType": "PractitionerRole",
        "id": "b058cafc-93b0-45c4-813f-a052279bd5ef",
        "meta": {
          "profile": [
            "http://hl7.eu/fhir/base/StructureDefinition/practitionerRole-eu"
          ]
        },
        "text": {
          "status": "generated",
          "div": "<div xmlns=\"http://www.w3.org/1999/xhtml\">Provider Role Id: b058cafc-93b0-45c4-813f-a052279bd5ef</div>"
        },
        "organization": {
          "reference": "urn:uuid:5927ec38-6984-4032-853a-5d3b32a1a52f"
        }
      }
    },
    {
      "fullUrl": "urn:uuid:5927ec38-6984-4032-853a-5d3b32a1a52f",
      "resource": {
        "resourceType": "Organization",
        "id": "5927ec38-6984-4032-853a-5d3b32a1a52f",
        "meta": {
          "profile": [
            "http://hl7.eu/fhir/base/StructureDefinition/organization-eu"
          ]
        },
        "identifier": [
          {
            "assigner": {
              "display": "HL7 Europe"
            },
            "system": "urn:oid:2.16.840.1.113883.2.51.999",
            "value": "3f0bf36e-7bb7-4b4c-8d0c-f07eb38757f3"
          }
        ],
        "address": [
          {
            "city": "Auxerre",
            "postalCode": "89000",
            "country": "France"
          }
        ],
        "text": {
          "status": "generated",
          "div": "<div xmlns=\"http://www.w3.org/1999/xhtml\">Provider Organization: Thiriot Didier (Cardiologie)</div>"
        },
        "name": "Thiriot Didier (Cardiologie)"
      }
    },
    {
      "fullUrl": "urn:uuid:4ddade9c-cae2-4f53-a523-f846372f407d",
      "resource": {
        "resourceType": "Specimen",
        "id": "4ddade9c-cae2-4f53-a523-f846372f407d",
        "meta": {
          "profile": [
            "http://hl7.eu/fhir/laboratory/StructureDefinition/Specimen-eu-lab"
          ]
        },
        "collection": {
          "collectedDateTime": "2021-10-29"
        },
        "text": {
          "status": "generated",
          "div": "<div xmlns=\"http://www.w3.org/1999/xhtml\"><table class=\"hl7__eu__lab__report\"><tr><th>Specimen</th><th>Collection Date</th></tr><tr><td>Acellular blood (serum or plasma) specimen</td><td><span class=\"nb\">29-Oct-2021</span></td></tr></table></div>"
        },
        "type": {
          "coding": [
            {
              "code": "122592007",
              "system": "http://snomed.info/sct",
              "display": "Acellular blood (serum or plasma) specimen"
            }
          ]
        }
      }
    },
    {
      "fullUrl": "urn:uuid:4146ea88-14cd-4e35-b999-64e1b6273ad9",
      "resource": {
        "resourceType": "Specimen",
        "id": "4146ea88-14cd-4e35-b999-64e1b6273ad9",
        "meta": {
          "profile": [
            "http://hl7.eu/fhir/laboratory/StructureDefinition/Specimen-eu-lab"
          ]
        },
        "collection": {
          "collectedDateTime": "2021-10-29"
        },
        "text": {
          "status": "generated",
          "div": "<div xmlns=\"http://www.w3.org/1999/xhtml\"><table class=\"hl7__eu__lab__report\"><tr><th>Specimen</th><th>Collection Date</th></tr><tr><td>Urine specimen</td><td><span class=\"nb\">29-Oct-2021</span></td></tr></table></div>"
        },
        "type": {
          "coding": [
            {
              "code": "122575003",
              "system": "http://snomed.info/sct",
              "display": "Urine specimen"
            }
          ]
        }
      }
    },
    {
      "fullUrl": "urn:uuid:7a08f00e-4594-47d2-9073-da3fb00ae1b8",
      "resource": {
        "resourceType": "Specimen",
        "id": "7a08f00e-4594-47d2-9073-da3fb00ae1b8",
        "meta": {
          "profile": [
            "http://hl7.eu/fhir/laboratory/StructureDefinition/Specimen-eu-lab"
          ]
        },
        "collection": {
          "collectedDateTime": "2021-10-29"
        },
        "text": {
          "status": "generated",
          "div": "<div xmlns=\"http://www.w3.org/1999/xhtml\"><table class=\"hl7__eu__lab__report\"><tr><th>Specimen</th><th>Collection Date</th></tr><tr><td>Whole blood specimen (specimen)</td><td><span class=\"nb\">29-Oct-2021</span></td></tr></table></div>"
        },
        "type": {
          "coding": [
            {
              "code": "258580003",
              "system": "http://snomed.info/sct",
              "display": "Whole blood specimen (specimen)"
            }
          ]
        }
      }
    },
    {
      "fullUrl": "urn:uuid:4b18d037-1d96-458d-9f1e-60e97c0b972c",
      "resource": {
        "resourceType": "Observation",
        "id": "4b18d037-1d96-458d-9f1e-60e97c0b972c",
        "meta": {
          "profile": [
            "http://hl7.eu/fhir/laboratory/StructureDefinition/Observation-resultslab-eu-lab"
          ]
        },
        "performer": [
          {
            "display": "The Central European Lab"
          }
        ],
        "category": [
          {
            "coding": [
              {
                "system": "http://terminology.hl7.org/CodeSystem/observation-category",
                "code": "laboratory"
              }
            ]
          }
        ],
        "code": {
          "coding": [
            {
              "code": "2345-7",
              "system": "http://loinc.org",
              "display": "Glucose [Mass/volume] in Serum or Plasma"
            }
          ],
          "text": "Glucose [Mass/volume] in Serum or Plasma"
        },
        "valueQuantity": {
          "system": "http://unitsofmeasure.org",
          "value": 87.4,
          "unit": "mg/dL",
          "code": "mg/dL"
        },
        "referenceRange": [
          {
            "low": {
              "value": 70,
              "code": "mg/dL",
              "system": "http://unitsofmeasure.org"
            }
          },
          {
            "high": {
              "value": 140,
              "code": "mg/dL",
              "system": "http://unitsofmeasure.org"
            }
          }
        ],
        "text": {
          "status": "generated",
          "div": "<div xmlns=\"http://www.w3.org/1999/xhtml\"><table class=\"hl7__eu__lab__report\"><tr><th>Test</th><th>29-Oct-2021</th><th>Reference&#xA0;Range</th><th>Unit</th></tr><tr><td>Glucose [Mass/volume] in Serum or Plasma</td><td>87.4</td><td>70 - 140</td><td></td><td>mg/dL</td></tr></table></div>"
        },
        "status": "final",
        "subject": {
          "reference": "urn:uuid:690f723e-8ace-41e6-bb34-3ecd303446f9",
          "display": "Victor Lagarde"
        },
        "effectiveDateTime": "2021-10-29T04:48:18Z",
        "specimen": {
          "reference": "urn:uuid:4ddade9c-cae2-4f53-a523-f846372f407d"
        }
      }
    },
    {
      "fullUrl": "urn:uuid:7745802e-c177-4a2e-9485-122393d6a752",
      "resource": {
        "resourceType": "Observation",
        "id": "7745802e-c177-4a2e-9485-122393d6a752",
        "meta": {
          "profile": [
            "http://hl7.eu/fhir/laboratory/StructureDefinition/Observation-resultslab-eu-lab"
          ]
        },
        "performer": [
          {
            "display": "The Central European Lab"
          }
        ],
        "category": [
          {
            "coding": [
              {
                "system": "http://terminology.hl7.org/CodeSystem/observation-category",
                "code": "laboratory"
              }
            ]
          }
        ],
        "code": {
          "coding": [
            {
              "code": "3094-0",
              "system": "http://loinc.org",
              "display": "Urea nitrogen [Mass/volume] in Serum or Plasma"
            }
          ],
          "text": "Urea nitrogen [Mass/volume] in Serum or Plasma"
        },
        "valueQuantity": {
          "system": "http://unitsofmeasure.org",
          "value": 7.5,
          "unit": "mg/dL",
          "code": "mg/dL"
        },
        "referenceRange": [
          {
            "low": {
              "value": 7,
              "code": "mg/dL",
              "system": "http://unitsofmeasure.org"
            }
          },
          {
            "high": {
              "value": 20,
              "code": "mg/dL",
              "system": "http://unitsofmeasure.org"
            }
          }
        ],
        "text": {
          "status": "generated",
          "div": "<div xmlns=\"http://www.w3.org/1999/xhtml\"><table class=\"hl7__eu__lab__report\"><tr><th>Test</th><th>29-Oct-2021</th><th>Reference&#xA0;Range</th><th>Unit</th></tr><tr><td>Urea nitrogen [Mass/volume] in Serum or Plasma</td><td>7.5</td><td>7 - 20</td><td></td><td>mg/dL</td></tr></table></div>"
        },
        "status": "final",
        "subject": {
          "reference": "urn:uuid:690f723e-8ace-41e6-bb34-3ecd303446f9",
          "display": "Victor Lagarde"
        },
        "effectiveDateTime": "2021-10-29T04:48:18Z",
        "specimen": {
          "reference": "urn:uuid:4ddade9c-cae2-4f53-a523-f846372f407d"
        }
      }
    },
    {
      "fullUrl": "urn:uuid:a17feac5-bc09-43e5-a0d2-837c20e63eca",
      "resource": {
        "resourceType": "Observation",
        "id": "a17feac5-bc09-43e5-a0d2-837c20e63eca",
        "meta": {
          "profile": [
            "http://hl7.eu/fhir/laboratory/StructureDefinition/Observation-resultslab-eu-lab"
          ]
        },
        "performer": [
          {
            "display": "The Central European Lab"
          }
        ],
        "category": [
          {
            "coding": [
              {
                "system": "http://terminology.hl7.org/CodeSystem/observation-category",
                "code": "laboratory"
              }
            ]
          }
        ],
        "code": {
          "coding": [
            {
              "code": "2160-0",
              "system": "http://loinc.org",
              "display": "Creatinine [Mass/volume] in Serum or Plasma"
            }
          ],
          "text": "Creatinine [Mass/volume] in Serum or Plasma"
        },
        "valueQuantity": {
          "system": "http://unitsofmeasure.org",
          "value": 2,
          "unit": "mg/dL",
          "code": "mg/dL"
        },
        "referenceRange": [
          {
            "low": {
              "value": 0.9,
              "code": "mg/dL",
              "system": "http://unitsofmeasure.org"
            }
          },
          {
            "high": {
              "value": 1.3,
              "code": "mg/dL",
              "system": "http://unitsofmeasure.org"
            }
          }
        ],
        "interpretation": [
          {
            "coding": [
              {
                "code": "H",
                "system": "http://terminology.hl7.org/CodeSystem/v3-ObservationInterpretation",
                "display": "High"
              }
            ]
          }
        ],
        "text": {
          "status": "generated",
          "div": "<div xmlns=\"http://www.w3.org/1999/xhtml\"><table class=\"hl7__eu__lab__report\"><tr><th>Test</th><th>29-Oct-2021</th><th>Reference&#xA0;Range</th><th>Unit</th></tr><tr><td>Creatinine [Mass/volume] in Serum or Plasma</td><td>2.0</td><td>0.9 - 1.3</td><td>H</td><td>mg/dL</td></tr></table></div>"
        },
        "status": "final",
        "subject": {
          "reference": "urn:uuid:690f723e-8ace-41e6-bb34-3ecd303446f9",
          "display": "Victor Lagarde"
        },
        "effectiveDateTime": "2021-10-29T04:48:18Z",
        "specimen": {
          "reference": "urn:uuid:4ddade9c-cae2-4f53-a523-f846372f407d"
        }
      }
    },
    {
      "fullUrl": "urn:uuid:9e20d62c-1672-4009-8cd2-8d0d08b63f45",
      "resource": {
        "resourceType": "Observation",
        "id": "9e20d62c-1672-4009-8cd2-8d0d08b63f45",
        "meta": {
          "profile": [
            "http://hl7.eu/fhir/laboratory/StructureDefinition/Observation-resultslab-eu-lab"
          ]
        },
        "performer": [
          {
            "display": "The Central European Lab"
          }
        ],
        "category": [
          {
            "coding": [
              {
                "system": "http://terminology.hl7.org/CodeSystem/observation-category",
                "code": "laboratory"
              }
            ]
          }
        ],
        "code": {
          "coding": [
            {
              "code": "17861-6",
              "system": "http://loinc.org",
              "display": "Calcium [Mass/volume] in Serum or Plasma"
            }
          ],
          "text": "Calcium [Mass/volume] in Serum or Plasma"
        },
        "valueQuantity": {
          "system": "http://unitsofmeasure.org",
          "value": 10.2,
          "unit": "mg/dL",
          "code": "mg/dL"
        },
        "referenceRange": [
          {
            "low": {
              "value": 8.5,
              "code": "mg/dL",
              "system": "http://unitsofmeasure.org"
            }
          },
          {
            "high": {
              "value": 10.5,
              "code": "mg/dL",
              "system": "http://unitsofmeasure.org"
            }
          }
        ],
        "text": {
          "status": "generated",
          "div": "<div xmlns=\"http://www.w3.org/1999/xhtml\"><table class=\"hl7__eu__lab__report\"><tr><th>Test</th><th>29-Oct-2021</th><th>Reference&#xA0;Range</th><th>Unit</th></tr><tr><td>Calcium [Mass/volume] in Serum or Plasma</td><td>10.2</td><td>8.5 - 10.5</td><td></td><td>mg/dL</td></tr></table></div>"
        },
        "status": "final",
        "subject": {
          "reference": "urn:uuid:690f723e-8ace-41e6-bb34-3ecd303446f9",
          "display": "Victor Lagarde"
        },
        "effectiveDateTime": "2021-10-29T04:48:18Z",
        "specimen": {
          "reference": "urn:uuid:4ddade9c-cae2-4f53-a523-f846372f407d"
        }
      }
    },
    {
      "fullUrl": "urn:uuid:309ff628-04bf-4f29-826a-98893e623a3b",
      "resource": {
        "resourceType": "Observation",
        "id": "309ff628-04bf-4f29-826a-98893e623a3b",
        "meta": {
          "profile": [
            "http://hl7.eu/fhir/laboratory/StructureDefinition/Observation-resultslab-eu-lab"
          ]
        },
        "performer": [
          {
            "display": "The Central European Lab"
          }
        ],
        "category": [
          {
            "coding": [
              {
                "system": "http://terminology.hl7.org/CodeSystem/observation-category",
                "code": "laboratory"
              }
            ]
          }
        ],
        "code": {
          "coding": [
            {
              "code": "2951-2",
              "system": "http://loinc.org",
              "display": "Sodium [Moles/volume] in Serum or Plasma"
            }
          ],
          "text": "Sodium [Moles/volume] in Serum or Plasma"
        },
        "valueQuantity": {
          "system": "http://unitsofmeasure.org",
          "value": 141.9,
          "unit": "mmol/L",
          "code": "mmol/L"
        },
        "referenceRange": [
          {
            "low": {
              "value": 135,
              "code": "mmol/L",
              "system": "http://unitsofmeasure.org"
            }
          },
          {
            "high": {
              "value": 145,
              "code": "mmol/L",
              "system": "http://unitsofmeasure.org"
            }
          }
        ],
        "text": {
          "status": "generated",
          "div": "<div xmlns=\"http://www.w3.org/1999/xhtml\"><table class=\"hl7__eu__lab__report\"><tr><th>Test</th><th>29-Oct-2021</th><th>Reference&#xA0;Range</th><th>Unit</th></tr><tr><td>Sodium [Moles/volume] in Serum or Plasma</td><td>141.9</td><td>135 - 145</td><td></td><td>mmol/L</td></tr></table></div>"
        },
        "status": "final",
        "subject": {
          "reference": "urn:uuid:690f723e-8ace-41e6-bb34-3ecd303446f9",
          "display": "Victor Lagarde"
        },
        "effectiveDateTime": "2021-10-29T04:48:18Z",
        "specimen": {
          "reference": "urn:uuid:4ddade9c-cae2-4f53-a523-f846372f407d"
        }
      }
    },
    {
      "fullUrl": "urn:uuid:c2436a7f-9a73-4022-b07e-2f2e6df2f9fd",
      "resource": {
        "resourceType": "Observation",
        "id": "c2436a7f-9a73-4022-b07e-2f2e6df2f9fd",
        "meta": {
          "profile": [
            "http://hl7.eu/fhir/laboratory/StructureDefinition/Observation-resultslab-eu-lab"
          ]
        },
        "performer": [
          {
            "display": "The Central European Lab"
          }
        ],
        "category": [
          {
            "coding": [
              {
                "system": "http://terminology.hl7.org/CodeSystem/observation-category",
                "code": "laboratory"
              }
            ]
          }
        ],
        "code": {
          "coding": [
            {
              "code": "2823-3",
              "system": "http://loinc.org",
              "display": "Potassium [Moles/volume] in Serum or Plasma"
            }
          ],
          "text": "Potassium [Moles/volume] in Serum or Plasma"
        },
        "valueQuantity": {
          "system": "http://unitsofmeasure.org",
          "value": 5.1,
          "unit": "mmol/L",
          "code": "mmol/L"
        },
        "referenceRange": [
          {
            "low": {
              "value": 3.5,
              "code": "mmol/L",
              "system": "http://unitsofmeasure.org"
            }
          },
          {
            "high": {
              "value": 5.3,
              "code": "mmol/L",
              "system": "http://unitsofmeasure.org"
            }
          }
        ],
        "text": {
          "status": "generated",
          "div": "<div xmlns=\"http://www.w3.org/1999/xhtml\"><table class=\"hl7__eu__lab__report\"><tr><th>Test</th><th>29-Oct-2021</th><th>Reference&#xA0;Range</th><th>Unit</th></tr><tr><td>Potassium [Moles/volume] in Serum or Plasma</td><td>5.1</td><td>3.5 - 5.3</td><td></td><td>mmol/L</td></tr></table></div>"
        },
        "status": "final",
        "subject": {
          "reference": "urn:uuid:690f723e-8ace-41e6-bb34-3ecd303446f9",
          "display": "Victor Lagarde"
        },
        "effectiveDateTime": "2021-10-29T04:48:18Z",
        "specimen": {
          "reference": "urn:uuid:4ddade9c-cae2-4f53-a523-f846372f407d"
        }
      }
    },
    {
      "fullUrl": "urn:uuid:622738fa-5d75-411d-b410-6e884fd82b7e",
      "resource": {
        "resourceType": "Observation",
        "id": "622738fa-5d75-411d-b410-6e884fd82b7e",
        "meta": {
          "profile": [
            "http://hl7.eu/fhir/laboratory/StructureDefinition/Observation-resultslab-eu-lab"
          ]
        },
        "performer": [
          {
            "display": "The Central European Lab"
          }
        ],
        "category": [
          {
            "coding": [
              {
                "system": "http://terminology.hl7.org/CodeSystem/observation-category",
                "code": "laboratory"
              }
            ]
          }
        ],
        "code": {
          "coding": [
            {
              "code": "2075-0",
              "system": "http://loinc.org",
              "display": "Chloride [Moles/volume] in Serum or Plasma"
            }
          ],
          "text": "Chloride [Moles/volume] in Serum or Plasma"
        },
        "valueQuantity": {
          "system": "http://unitsofmeasure.org",
          "value": 109.1,
          "unit": "mmol/L",
          "code": "mmol/L"
        },
        "referenceRange": [
          {
            "low": {
              "value": 98,
              "code": "mmol/L",
              "system": "http://unitsofmeasure.org"
            }
          },
          {
            "high": {
              "value": 107,
              "code": "mmol/L",
              "system": "http://unitsofmeasure.org"
            }
          }
        ],
        "interpretation": [
          {
            "coding": [
              {
                "code": "H",
                "system": "http://terminology.hl7.org/CodeSystem/v3-ObservationInterpretation",
                "display": "High"
              }
            ]
          }
        ],
        "text": {
          "status": "generated",
          "div": "<div xmlns=\"http://www.w3.org/1999/xhtml\"><table class=\"hl7__eu__lab__report\"><tr><th>Test</th><th>29-Oct-2021</th><th>Reference&#xA0;Range</th><th>Unit</th></tr><tr><td>Chloride [Moles/volume] in Serum or Plasma</td><td>109.1</td><td>98 - 107</td><td>H</td><td>mmol/L</td></tr></table></div>"
        },
        "status": "final",
        "subject": {
          "reference": "urn:uuid:690f723e-8ace-41e6-bb34-3ecd303446f9",
          "display": "Victor Lagarde"
        },
        "effectiveDateTime": "2021-10-29T04:48:18Z",
        "specimen": {
          "reference": "urn:uuid:4ddade9c-cae2-4f53-a523-f846372f407d"
        }
      }
    },
    {
      "fullUrl": "urn:uuid:4bee0945-09dc-4067-a9eb-595768deb884",
      "resource": {
        "resourceType": "Observation",
        "id": "4bee0945-09dc-4067-a9eb-595768deb884",
        "meta": {
          "profile": [
            "http://hl7.eu/fhir/laboratory/StructureDefinition/Observation-resultslab-eu-lab"
          ]
        },
        "performer": [
          {
            "display": "The Central European Lab"
          }
        ],
        "category": [
          {
            "coding": [
              {
                "system": "http://terminology.hl7.org/CodeSystem/observation-category",
                "code": "laboratory"
              }
            ]
          }
        ],
        "code": {
          "coding": [
            {
              "code": "2028-9",
              "system": "http://loinc.org",
              "display": "Carbon dioxide, total [Moles/volume] in Serum or Plasma"
            }
          ],
          "text": "Carbon dioxide, total [Moles/volume] in Serum or Plasma"
        },
        "valueQuantity": {
          "system": "http://unitsofmeasure.org",
          "value": 23.8,
          "unit": "mmol/L",
          "code": "mmol/L"
        },
        "referenceRange": [
          {
            "low": {
              "value": 22,
              "code": "mmol/L",
              "system": "http://unitsofmeasure.org"
            }
          },
          {
            "high": {
              "value": 33,
              "code": "mmol/L",
              "system": "http://unitsofmeasure.org"
            }
          }
        ],
        "text": {
          "status": "generated",
          "div": "<div xmlns=\"http://www.w3.org/1999/xhtml\"><table class=\"hl7__eu__lab__report\"><tr><th>Test</th><th>29-Oct-2021</th><th>Reference&#xA0;Range</th><th>Unit</th></tr><tr><td>Carbon dioxide, total [Moles/volume] in Serum or Plasma</td><td>23.8</td><td>22 - 33</td><td></td><td>mmol/L</td></tr></table></div>"
        },
        "status": "final",
        "subject": {
          "reference": "urn:uuid:690f723e-8ace-41e6-bb34-3ecd303446f9",
          "display": "Victor Lagarde"
        },
        "effectiveDateTime": "2021-10-29T04:48:18Z",
        "specimen": {
          "reference": "urn:uuid:4ddade9c-cae2-4f53-a523-f846372f407d"
        }
      }
    },
    {
      "fullUrl": "urn:uuid:9cd93703-9a03-4220-b00b-4189ba9c3c88",
      "resource": {
        "resourceType": "Observation",
        "id": "9cd93703-9a03-4220-b00b-4189ba9c3c88",
        "meta": {
          "profile": [
            "http://hl7.eu/fhir/laboratory/StructureDefinition/Observation-resultslab-eu-lab"
          ]
        },
        "performer": [
          {
            "display": "The Central European Lab"
          }
        ],
        "category": [
          {
            "coding": [
              {
                "system": "http://terminology.hl7.org/CodeSystem/observation-category",
                "code": "laboratory"
              }
            ]
          }
        ],
        "code": {
          "coding": [
            {
              "code": "5767-9",
              "system": "http://loinc.org",
              "display": "Appearance of Urine"
            }
          ],
          "text": "Appearance of Urine"
        },
        "text": {
          "status": "generated",
          "div": "<div xmlns=\"http://www.w3.org/1999/xhtml\"><table class=\"hl7__eu__lab__report\"><tr><th>Test</th><th>29-Oct-2021</th><th>Reference&#xA0;Range</th><th>Unit</th></tr><tr><td>Appearance of Urine</td></tr></table></div>"
        },
        "status": "final",
        "subject": {
          "reference": "urn:uuid:690f723e-8ace-41e6-bb34-3ecd303446f9",
          "display": "Victor Lagarde"
        },
        "effectiveDateTime": "2021-10-29T04:48:18Z",
        "specimen": {
          "reference": "urn:uuid:4146ea88-14cd-4e35-b999-64e1b6273ad9"
        }
      }
    },
    {
      "fullUrl": "urn:uuid:04841e61-4904-436d-94c3-0d7d57a45377",
      "resource": {
        "resourceType": "Observation",
        "id": "04841e61-4904-436d-94c3-0d7d57a45377",
        "meta": {
          "profile": [
            "http://hl7.eu/fhir/laboratory/StructureDefinition/Observation-resultslab-eu-lab"
          ]
        },
        "performer": [
          {
            "display": "The Central European Lab"
          }
        ],
        "category": [
          {
            "coding": [
              {
                "system": "http://terminology.hl7.org/CodeSystem/observation-category",
                "code": "laboratory"
              }
            ]
          }
        ],
        "code": {
          "coding": [
            {
              "code": "34533-0",
              "system": "http://loinc.org",
              "display": "Odor of Urine"
            }
          ],
          "text": "Odor of Urine"
        },
        "text": {
          "status": "generated",
          "div": "<div xmlns=\"http://www.w3.org/1999/xhtml\"><table class=\"hl7__eu__lab__report\"><tr><th>Test</th><th>29-Oct-2021</th><th>Reference&#xA0;Range</th><th>Unit</th></tr><tr><td>Odor of Urine</td></tr></table></div>"
        },
        "status": "final",
        "subject": {
          "reference": "urn:uuid:690f723e-8ace-41e6-bb34-3ecd303446f9",
          "display": "Victor Lagarde"
        },
        "effectiveDateTime": "2021-10-29T04:48:18Z",
        "specimen": {
          "reference": "urn:uuid:4146ea88-14cd-4e35-b999-64e1b6273ad9"
        }
      }
    },
    {
      "fullUrl": "urn:uuid:5009dffe-5039-489f-a86b-f0dca417235f",
      "resource": {
        "resourceType": "Observation",
        "id": "5009dffe-5039-489f-a86b-f0dca417235f",
        "meta": {
          "profile": [
            "http://hl7.eu/fhir/laboratory/StructureDefinition/Observation-resultslab-eu-lab"
          ]
        },
        "performer": [
          {
            "display": "The Central European Lab"
          }
        ],
        "category": [
          {
            "coding": [
              {
                "system": "http://terminology.hl7.org/CodeSystem/observation-category",
                "code": "laboratory"
              }
            ]
          }
        ],
        "code": {
          "coding": [
            {
              "code": "32167-9",
              "system": "http://loinc.org",
              "display": "Clarity of Urine"
            }
          ],
          "text": "Clarity of Urine"
        },
        "text": {
          "status": "generated",
          "div": "<div xmlns=\"http://www.w3.org/1999/xhtml\"><table class=\"hl7__eu__lab__report\"><tr><th>Test</th><th>29-Oct-2021</th><th>Reference&#xA0;Range</th><th>Unit</th></tr><tr><td>Clarity of Urine</td></tr></table></div>"
        },
        "status": "final",
        "subject": {
          "reference": "urn:uuid:690f723e-8ace-41e6-bb34-3ecd303446f9",
          "display": "Victor Lagarde"
        },
        "effectiveDateTime": "2021-10-29T04:48:18Z",
        "specimen": {
          "reference": "urn:uuid:4146ea88-14cd-4e35-b999-64e1b6273ad9"
        }
      }
    },
    {
      "fullUrl": "urn:uuid:18742a6a-7427-47c8-ab83-5e8375e27780",
      "resource": {
        "resourceType": "Observation",
        "id": "18742a6a-7427-47c8-ab83-5e8375e27780",
        "meta": {
          "profile": [
            "http://hl7.eu/fhir/laboratory/StructureDefinition/Observation-resultslab-eu-lab"
          ]
        },
        "performer": [
          {
            "display": "The Central European Lab"
          }
        ],
        "category": [
          {
            "coding": [
              {
                "system": "http://terminology.hl7.org/CodeSystem/observation-category",
                "code": "laboratory"
              }
            ]
          }
        ],
        "code": {
          "coding": [
            {
              "code": "5778-6",
              "system": "http://loinc.org",
              "display": "Color of Urine"
            }
          ],
          "text": "Color of Urine"
        },
        "text": {
          "status": "generated",
          "div": "<div xmlns=\"http://www.w3.org/1999/xhtml\"><table class=\"hl7__eu__lab__report\"><tr><th>Test</th><th>29-Oct-2021</th><th>Reference&#xA0;Range</th><th>Unit</th></tr><tr><td>Color of Urine</td></tr></table></div>"
        },
        "status": "final",
        "subject": {
          "reference": "urn:uuid:690f723e-8ace-41e6-bb34-3ecd303446f9",
          "display": "Victor Lagarde"
        },
        "effectiveDateTime": "2021-10-29T04:48:18Z",
        "specimen": {
          "reference": "urn:uuid:4146ea88-14cd-4e35-b999-64e1b6273ad9"
        }
      }
    },
    {
      "fullUrl": "urn:uuid:85035c2d-894f-4e51-97ae-c2e5203bb470",
      "resource": {
        "resourceType": "Observation",
        "id": "85035c2d-894f-4e51-97ae-c2e5203bb470",
        "meta": {
          "profile": [
            "http://hl7.eu/fhir/laboratory/StructureDefinition/Observation-resultslab-eu-lab"
          ]
        },
        "performer": [
          {
            "display": "The Central European Lab"
          }
        ],
        "category": [
          {
            "coding": [
              {
                "system": "http://terminology.hl7.org/CodeSystem/observation-category",
                "code": "laboratory"
              }
            ]
          }
        ],
        "code": {
          "coding": [
            {
              "code": "5792-7",
              "system": "http://loinc.org",
              "display": "Glucose [Mass/volume] in Urine by Test strip"
            }
          ],
          "text": "Glucose [Mass/volume] in Urine by Test strip"
        },
        "valueQuantity": {
          "system": "http://unitsofmeasure.org",
          "value": 1.8,
          "unit": "mg/dL",
          "code": "mg/dL"
        },
        "referenceRange": [
          {
            "low": {
              "value": 0,
              "code": "mg/dL",
              "system": "http://unitsofmeasure.org"
            }
          },
          {
            "high": {
              "value": 0.8,
              "code": "mg/dL",
              "system": "http://unitsofmeasure.org"
            }
          }
        ],
        "interpretation": [
          {
            "coding": [
              {
                "code": "H",
                "system": "http://terminology.hl7.org/CodeSystem/v3-ObservationInterpretation",
                "display": "High"
              }
            ]
          }
        ],
        "text": {
          "status": "generated",
          "div": "<div xmlns=\"http://www.w3.org/1999/xhtml\"><table class=\"hl7__eu__lab__report\"><tr><th>Test</th><th>29-Oct-2021</th><th>Reference&#xA0;Range</th><th>Unit</th></tr><tr><td>Glucose [Mass/volume] in Urine by Test strip</td><td>1.8</td><td>0 - 0.8</td><td>H</td><td>mg/dL</td></tr></table></div>"
        },
        "status": "final",
        "subject": {
          "reference": "urn:uuid:690f723e-8ace-41e6-bb34-3ecd303446f9",
          "display": "Victor Lagarde"
        },
        "effectiveDateTime": "2021-10-29T04:48:18Z",
        "specimen": {
          "reference": "urn:uuid:4146ea88-14cd-4e35-b999-64e1b6273ad9"
        }
      }
    },
    {
      "fullUrl": "urn:uuid:46194693-9b99-49c7-8a2d-2b7538f98458",
      "resource": {
        "resourceType": "Observation",
        "id": "46194693-9b99-49c7-8a2d-2b7538f98458",
        "meta": {
          "profile": [
            "http://hl7.eu/fhir/laboratory/StructureDefinition/Observation-resultslab-eu-lab"
          ]
        },
        "performer": [
          {
            "display": "The Central European Lab"
          }
        ],
        "category": [
          {
            "coding": [
              {
                "system": "http://terminology.hl7.org/CodeSystem/observation-category",
                "code": "laboratory"
              }
            ]
          }
        ],
        "code": {
          "coding": [
            {
              "code": "25428-4",
              "system": "http://loinc.org",
              "display": "Glucose [Presence] in Urine by Test strip"
            }
          ],
          "text": "Glucose [Presence] in Urine by Test strip"
        },
        "text": {
          "status": "generated",
          "div": "<div xmlns=\"http://www.w3.org/1999/xhtml\"><table class=\"hl7__eu__lab__report\"><tr><th>Test</th><th>29-Oct-2021</th><th>Reference&#xA0;Range</th><th>Unit</th></tr><tr><td>Glucose [Presence] in Urine by Test strip</td></tr></table></div>"
        },
        "status": "final",
        "subject": {
          "reference": "urn:uuid:690f723e-8ace-41e6-bb34-3ecd303446f9",
          "display": "Victor Lagarde"
        },
        "effectiveDateTime": "2021-10-29T04:48:18Z",
        "specimen": {
          "reference": "urn:uuid:4146ea88-14cd-4e35-b999-64e1b6273ad9"
        }
      }
    },
    {
      "fullUrl": "urn:uuid:39b02aa2-b49b-4647-9768-8810653509ab",
      "resource": {
        "resourceType": "Observation",
        "id": "39b02aa2-b49b-4647-9768-8810653509ab",
        "meta": {
          "profile": [
            "http://hl7.eu/fhir/laboratory/StructureDefinition/Observation-resultslab-eu-lab"
          ]
        },
        "performer": [
          {
            "display": "The Central European Lab"
          }
        ],
        "category": [
          {
            "coding": [
              {
                "system": "http://terminology.hl7.org/CodeSystem/observation-category",
                "code": "laboratory"
              }
            ]
          }
        ],
        "code": {
          "coding": [
            {
              "code": "20505-4",
              "system": "http://loinc.org",
              "display": "Bilirubin.total [Mass/volume] in Urine by Test strip"
            }
          ],
          "text": "Bilirubin.total [Mass/volume] in Urine by Test strip"
        },
        "valueQuantity": {
          "system": "http://unitsofmeasure.org",
          "value": 0.5,
          "unit": "mg/dL",
          "code": "mg/dL"
        },
        "referenceRange": [
          {
            "low": {
              "value": 0,
              "code": "mg/dL",
              "system": "http://unitsofmeasure.org"
            }
          },
          {
            "high": {
              "value": 1.9,
              "code": "mg/dL",
              "system": "http://unitsofmeasure.org"
            }
          }
        ],
        "text": {
          "status": "generated",
          "div": "<div xmlns=\"http://www.w3.org/1999/xhtml\"><table class=\"hl7__eu__lab__report\"><tr><th>Test</th><th>29-Oct-2021</th><th>Reference&#xA0;Range</th><th>Unit</th></tr><tr><td>Bilirubin.total [Mass/volume] in Urine by Test strip</td><td>0.5</td><td>0 - 1.9</td><td></td><td>mg/dL</td></tr></table></div>"
        },
        "status": "final",
        "subject": {
          "reference": "urn:uuid:690f723e-8ace-41e6-bb34-3ecd303446f9",
          "display": "Victor Lagarde"
        },
        "effectiveDateTime": "2021-10-29T04:48:18Z",
        "specimen": {
          "reference": "urn:uuid:4146ea88-14cd-4e35-b999-64e1b6273ad9"
        }
      }
    },
    {
      "fullUrl": "urn:uuid:f65599ef-b090-4f43-8934-fb560dbab39d",
      "resource": {
        "resourceType": "Observation",
        "id": "f65599ef-b090-4f43-8934-fb560dbab39d",
        "meta": {
          "profile": [
            "http://hl7.eu/fhir/laboratory/StructureDefinition/Observation-resultslab-eu-lab"
          ]
        },
        "performer": [
          {
            "display": "The Central European Lab"
          }
        ],
        "category": [
          {
            "coding": [
              {
                "system": "http://terminology.hl7.org/CodeSystem/observation-category",
                "code": "laboratory"
              }
            ]
          }
        ],
        "code": {
          "coding": [
            {
              "code": "5770-3",
              "system": "http://loinc.org",
              "display": "Bilirubin.total [Presence] in Urine by Test strip"
            }
          ],
          "text": "Bilirubin.total [Presence] in Urine by Test strip"
        },
        "text": {
          "status": "generated",
          "div": "<div xmlns=\"http://www.w3.org/1999/xhtml\"><table class=\"hl7__eu__lab__report\"><tr><th>Test</th><th>29-Oct-2021</th><th>Reference&#xA0;Range</th><th>Unit</th></tr><tr><td>Bilirubin.total [Presence] in Urine by Test strip</td></tr></table></div>"
        },
        "status": "final",
        "subject": {
          "reference": "urn:uuid:690f723e-8ace-41e6-bb34-3ecd303446f9",
          "display": "Victor Lagarde"
        },
        "effectiveDateTime": "2021-10-29T04:48:18Z",
        "specimen": {
          "reference": "urn:uuid:4146ea88-14cd-4e35-b999-64e1b6273ad9"
        }
      }
    },
    {
      "fullUrl": "urn:uuid:a8e88036-7b83-4dde-99cf-448c0f9af70e",
      "resource": {
        "resourceType": "Observation",
        "id": "a8e88036-7b83-4dde-99cf-448c0f9af70e",
        "meta": {
          "profile": [
            "http://hl7.eu/fhir/laboratory/StructureDefinition/Observation-resultslab-eu-lab"
          ]
        },
        "performer": [
          {
            "display": "The Central European Lab"
          }
        ],
        "category": [
          {
            "coding": [
              {
                "system": "http://terminology.hl7.org/CodeSystem/observation-category",
                "code": "laboratory"
              }
            ]
          }
        ],
        "code": {
          "coding": [
            {
              "code": "5797-6",
              "system": "http://loinc.org",
              "display": "Ketones [Mass/volume] in Urine by Test strip"
            }
          ],
          "text": "Ketones [Mass/volume] in Urine by Test strip"
        },
        "valueQuantity": {
          "system": "http://unitsofmeasure.org",
          "value": 5.7,
          "unit": "mg/dL",
          "code": "mg/dL"
        },
        "referenceRange": [
          {
            "low": {
              "value": 0,
              "code": "mg/dL",
              "system": "http://unitsofmeasure.org"
            }
          },
          {
            "high": {
              "value": 3,
              "code": "mg/dL",
              "system": "http://unitsofmeasure.org"
            }
          }
        ],
        "interpretation": [
          {
            "coding": [
              {
                "code": "H",
                "system": "http://terminology.hl7.org/CodeSystem/v3-ObservationInterpretation",
                "display": "High"
              }
            ]
          }
        ],
        "text": {
          "status": "generated",
          "div": "<div xmlns=\"http://www.w3.org/1999/xhtml\"><table class=\"hl7__eu__lab__report\"><tr><th>Test</th><th>29-Oct-2021</th><th>Reference&#xA0;Range</th><th>Unit</th></tr><tr><td>Ketones [Mass/volume] in Urine by Test strip</td><td>5.7</td><td>0 - 3</td><td>H</td><td>mg/dL</td></tr></table></div>"
        },
        "status": "final",
        "subject": {
          "reference": "urn:uuid:690f723e-8ace-41e6-bb34-3ecd303446f9",
          "display": "Victor Lagarde"
        },
        "effectiveDateTime": "2021-10-29T04:48:18Z",
        "specimen": {
          "reference": "urn:uuid:4146ea88-14cd-4e35-b999-64e1b6273ad9"
        }
      }
    },
    {
      "fullUrl": "urn:uuid:413746f4-c0b4-4f1f-bb5d-f89bd2bd2a5b",
      "resource": {
        "resourceType": "Observation",
        "id": "413746f4-c0b4-4f1f-bb5d-f89bd2bd2a5b",
        "meta": {
          "profile": [
            "http://hl7.eu/fhir/laboratory/StructureDefinition/Observation-resultslab-eu-lab"
          ]
        },
        "performer": [
          {
            "display": "The Central European Lab"
          }
        ],
        "category": [
          {
            "coding": [
              {
                "system": "http://terminology.hl7.org/CodeSystem/observation-category",
                "code": "laboratory"
              }
            ]
          }
        ],
        "code": {
          "coding": [
            {
              "code": "2514-8",
              "system": "http://loinc.org",
              "display": "Ketones [Presence] in Urine by Test strip"
            }
          ],
          "text": "Ketones [Presence] in Urine by Test strip"
        },
        "text": {
          "status": "generated",
          "div": "<div xmlns=\"http://www.w3.org/1999/xhtml\"><table class=\"hl7__eu__lab__report\"><tr><th>Test</th><th>29-Oct-2021</th><th>Reference&#xA0;Range</th><th>Unit</th></tr><tr><td>Ketones [Presence] in Urine by Test strip</td></tr></table></div>"
        },
        "status": "final",
        "subject": {
          "reference": "urn:uuid:690f723e-8ace-41e6-bb34-3ecd303446f9",
          "display": "Victor Lagarde"
        },
        "effectiveDateTime": "2021-10-29T04:48:18Z",
        "specimen": {
          "reference": "urn:uuid:4146ea88-14cd-4e35-b999-64e1b6273ad9"
        }
      }
    },
    {
      "fullUrl": "urn:uuid:d1722dda-e2ea-4282-808e-bf72d13c81fb",
      "resource": {
        "resourceType": "Observation",
        "id": "d1722dda-e2ea-4282-808e-bf72d13c81fb",
        "meta": {
          "profile": [
            "http://hl7.eu/fhir/laboratory/StructureDefinition/Observation-resultslab-eu-lab"
          ]
        },
        "performer": [
          {
            "display": "The Central European Lab"
          }
        ],
        "category": [
          {
            "coding": [
              {
                "system": "http://terminology.hl7.org/CodeSystem/observation-category",
                "code": "laboratory"
              }
            ]
          }
        ],
        "code": {
          "coding": [
            {
              "code": "5811-5",
              "system": "http://loinc.org",
              "display": "Specific gravity of Urine by Test strip"
            }
          ],
          "text": "Specific gravity of Urine by Test strip"
        },
        "valueQuantity": {
          "system": "http://unitsofmeasure.org",
          "value": 1,
          "unit": "{nominal}",
          "code": "{nominal}"
        },
        "referenceRange": [
          {
            "low": {
              "value": 1.01,
              "code": "g/mL",
              "system": "http://unitsofmeasure.org"
            }
          },
          {
            "high": {
              "value": 1.03,
              "code": "g/mL",
              "system": "http://unitsofmeasure.org"
            }
          }
        ],
        "interpretation": [
          {
            "coding": [
              {
                "code": "L",
                "system": "http://terminology.hl7.org/CodeSystem/v3-ObservationInterpretation",
                "display": "Low"
              }
            ]
          }
        ],
        "text": {
          "status": "generated",
          "div": "<div xmlns=\"http://www.w3.org/1999/xhtml\"><table class=\"hl7__eu__lab__report\"><tr><th>Test</th><th>29-Oct-2021</th><th>Reference&#xA0;Range</th><th>Unit</th></tr><tr><td>Specific gravity of Urine by Test strip</td><td>1.0</td><td>1.01 - 1.03</td><td>L</td><td>{nominal}</td></tr></table></div>"
        },
        "status": "final",
        "subject": {
          "reference": "urn:uuid:690f723e-8ace-41e6-bb34-3ecd303446f9",
          "display": "Victor Lagarde"
        },
        "effectiveDateTime": "2021-10-29T04:48:18Z",
        "specimen": {
          "reference": "urn:uuid:4146ea88-14cd-4e35-b999-64e1b6273ad9"
        }
      }
    },
    {
      "fullUrl": "urn:uuid:95592c60-1116-48c0-8bf7-955e8a86d4e7",
      "resource": {
        "resourceType": "Observation",
        "id": "95592c60-1116-48c0-8bf7-955e8a86d4e7",
        "meta": {
          "profile": [
            "http://hl7.eu/fhir/laboratory/StructureDefinition/Observation-resultslab-eu-lab"
          ]
        },
        "performer": [
          {
            "display": "The Central European Lab"
          }
        ],
        "category": [
          {
            "coding": [
              {
                "system": "http://terminology.hl7.org/CodeSystem/observation-category",
                "code": "laboratory"
              }
            ]
          }
        ],
        "code": {
          "coding": [
            {
              "code": "5803-2",
              "system": "http://loinc.org",
              "display": "pH of Urine by Test strip"
            }
          ],
          "text": "pH of Urine by Test strip"
        },
        "valueQuantity": {
          "system": "http://unitsofmeasure.org",
          "value": 6.9,
          "unit": "pH",
          "code": "pH"
        },
        "referenceRange": [
          {
            "low": {
              "value": 4.5,
              "code": "pH",
              "system": "http://unitsofmeasure.org"
            }
          },
          {
            "high": {
              "value": 7.5,
              "code": "pH",
              "system": "http://unitsofmeasure.org"
            }
          }
        ],
        "text": {
          "status": "generated",
          "div": "<div xmlns=\"http://www.w3.org/1999/xhtml\"><table class=\"hl7__eu__lab__report\"><tr><th>Test</th><th>29-Oct-2021</th><th>Reference&#xA0;Range</th><th>Unit</th></tr><tr><td>pH of Urine by Test strip</td><td>6.9</td><td>4.5 - 7.5</td><td></td><td>pH</td></tr></table></div>"
        },
        "status": "final",
        "subject": {
          "reference": "urn:uuid:690f723e-8ace-41e6-bb34-3ecd303446f9",
          "display": "Victor Lagarde"
        },
        "effectiveDateTime": "2021-10-29T04:48:18Z",
        "specimen": {
          "reference": "urn:uuid:4146ea88-14cd-4e35-b999-64e1b6273ad9"
        }
      }
    },
    {
      "fullUrl": "urn:uuid:6890d631-6dc8-4c26-8ff9-dcd73dd569b9",
      "resource": {
        "resourceType": "Observation",
        "id": "6890d631-6dc8-4c26-8ff9-dcd73dd569b9",
        "meta": {
          "profile": [
            "http://hl7.eu/fhir/laboratory/StructureDefinition/Observation-resultslab-eu-lab"
          ]
        },
        "performer": [
          {
            "display": "The Central European Lab"
          }
        ],
        "category": [
          {
            "coding": [
              {
                "system": "http://terminology.hl7.org/CodeSystem/observation-category",
                "code": "laboratory"
              }
            ]
          }
        ],
        "code": {
          "coding": [
            {
              "code": "5804-0",
              "system": "http://loinc.org",
              "display": "Protein [Mass/volume] in Urine by Test strip"
            }
          ],
          "text": "Protein [Mass/volume] in Urine by Test strip"
        },
        "valueQuantity": {
          "system": "http://unitsofmeasure.org",
          "value": 398,
          "unit": "mg/dL",
          "code": "mg/dL"
        },
        "referenceRange": [
          {
            "low": {
              "value": 0,
              "code": "mg/dL",
              "system": "http://unitsofmeasure.org"
            }
          },
          {
            "high": {
              "value": 149,
              "code": "mg/dL",
              "system": "http://unitsofmeasure.org"
            }
          }
        ],
        "interpretation": [
          {
            "coding": [
              {
                "code": "H",
                "system": "http://terminology.hl7.org/CodeSystem/v3-ObservationInterpretation",
                "display": "High"
              }
            ]
          }
        ],
        "text": {
          "status": "generated",
          "div": "<div xmlns=\"http://www.w3.org/1999/xhtml\"><table class=\"hl7__eu__lab__report\"><tr><th>Test</th><th>29-Oct-2021</th><th>Reference&#xA0;Range</th><th>Unit</th></tr><tr><td>Protein [Mass/volume] in Urine by Test strip</td><td>398.0</td><td>0 - 149</td><td>H</td><td>mg/dL</td></tr></table></div>"
        },
        "status": "final",
        "subject": {
          "reference": "urn:uuid:690f723e-8ace-41e6-bb34-3ecd303446f9",
          "display": "Victor Lagarde"
        },
        "effectiveDateTime": "2021-10-29T04:48:18Z",
        "specimen": {
          "reference": "urn:uuid:4146ea88-14cd-4e35-b999-64e1b6273ad9"
        }
      }
    },
    {
      "fullUrl": "urn:uuid:08ece957-82ad-4075-81ca-8d89147e1430",
      "resource": {
        "resourceType": "Observation",
        "id": "08ece957-82ad-4075-81ca-8d89147e1430",
        "meta": {
          "profile": [
            "http://hl7.eu/fhir/laboratory/StructureDefinition/Observation-resultslab-eu-lab"
          ]
        },
        "performer": [
          {
            "display": "The Central European Lab"
          }
        ],
        "category": [
          {
            "coding": [
              {
                "system": "http://terminology.hl7.org/CodeSystem/observation-category",
                "code": "laboratory"
              }
            ]
          }
        ],
        "code": {
          "coding": [
            {
              "code": "20454-5",
              "system": "http://loinc.org",
              "display": "Protein [Presence] in Urine by Test strip"
            }
          ],
          "text": "Protein [Presence] in Urine by Test strip"
        },
        "text": {
          "status": "generated",
          "div": "<div xmlns=\"http://www.w3.org/1999/xhtml\"><table class=\"hl7__eu__lab__report\"><tr><th>Test</th><th>29-Oct-2021</th><th>Reference&#xA0;Range</th><th>Unit</th></tr><tr><td>Protein [Presence] in Urine by Test strip</td></tr></table></div>"
        },
        "status": "final",
        "subject": {
          "reference": "urn:uuid:690f723e-8ace-41e6-bb34-3ecd303446f9",
          "display": "Victor Lagarde"
        },
        "effectiveDateTime": "2021-10-29T04:48:18Z",
        "specimen": {
          "reference": "urn:uuid:4146ea88-14cd-4e35-b999-64e1b6273ad9"
        }
      }
    },
    {
      "fullUrl": "urn:uuid:677cd163-973f-475c-9e5a-a0fec607bc58",
      "resource": {
        "resourceType": "Observation",
        "id": "677cd163-973f-475c-9e5a-a0fec607bc58",
        "meta": {
          "profile": [
            "http://hl7.eu/fhir/laboratory/StructureDefinition/Observation-resultslab-eu-lab"
          ]
        },
        "performer": [
          {
            "display": "The Central European Lab"
          }
        ],
        "category": [
          {
            "coding": [
              {
                "system": "http://terminology.hl7.org/CodeSystem/observation-category",
                "code": "laboratory"
              }
            ]
          }
        ],
        "code": {
          "coding": [
            {
              "code": "5802-4",
              "system": "http://loinc.org",
              "display": "Nitrite [Presence] in Urine by Test strip"
            }
          ],
          "text": "Nitrite [Presence] in Urine by Test strip"
        },
        "text": {
          "status": "generated",
          "div": "<div xmlns=\"http://www.w3.org/1999/xhtml\"><table class=\"hl7__eu__lab__report\"><tr><th>Test</th><th>29-Oct-2021</th><th>Reference&#xA0;Range</th><th>Unit</th></tr><tr><td>Nitrite [Presence] in Urine by Test strip</td></tr></table></div>"
        },
        "status": "final",
        "subject": {
          "reference": "urn:uuid:690f723e-8ace-41e6-bb34-3ecd303446f9",
          "display": "Victor Lagarde"
        },
        "effectiveDateTime": "2021-10-29T04:48:18Z",
        "specimen": {
          "reference": "urn:uuid:4146ea88-14cd-4e35-b999-64e1b6273ad9"
        }
      }
    },
    {
      "fullUrl": "urn:uuid:ef411dab-b733-4c13-82c0-32619e12da39",
      "resource": {
        "resourceType": "Observation",
        "id": "ef411dab-b733-4c13-82c0-32619e12da39",
        "meta": {
          "profile": [
            "http://hl7.eu/fhir/laboratory/StructureDefinition/Observation-resultslab-eu-lab"
          ]
        },
        "performer": [
          {
            "display": "The Central European Lab"
          }
        ],
        "category": [
          {
            "coding": [
              {
                "system": "http://terminology.hl7.org/CodeSystem/observation-category",
                "code": "laboratory"
              }
            ]
          }
        ],
        "code": {
          "coding": [
            {
              "code": "5794-3",
              "system": "http://loinc.org",
              "display": "Hemoglobin [Presence] in Urine by Test strip"
            }
          ],
          "text": "Hemoglobin [Presence] in Urine by Test strip"
        },
        "text": {
          "status": "generated",
          "div": "<div xmlns=\"http://www.w3.org/1999/xhtml\"><table class=\"hl7__eu__lab__report\"><tr><th>Test</th><th>29-Oct-2021</th><th>Reference&#xA0;Range</th><th>Unit</th></tr><tr><td>Hemoglobin [Presence] in Urine by Test strip</td></tr></table></div>"
        },
        "status": "final",
        "subject": {
          "reference": "urn:uuid:690f723e-8ace-41e6-bb34-3ecd303446f9",
          "display": "Victor Lagarde"
        },
        "effectiveDateTime": "2021-10-29T04:48:18Z",
        "specimen": {
          "reference": "urn:uuid:4146ea88-14cd-4e35-b999-64e1b6273ad9"
        }
      }
    },
    {
      "fullUrl": "urn:uuid:e791e603-9d59-42d8-9b9c-5ef89436894a",
      "resource": {
        "resourceType": "Observation",
        "id": "e791e603-9d59-42d8-9b9c-5ef89436894a",
        "meta": {
          "profile": [
            "http://hl7.eu/fhir/laboratory/StructureDefinition/Observation-resultslab-eu-lab"
          ]
        },
        "performer": [
          {
            "display": "The Central European Lab"
          }
        ],
        "category": [
          {
            "coding": [
              {
                "system": "http://terminology.hl7.org/CodeSystem/observation-category",
                "code": "laboratory"
              }
            ]
          }
        ],
        "code": {
          "coding": [
            {
              "code": "5799-2",
              "system": "http://loinc.org",
              "display": "Leukocyte esterase [Presence] in Urine by Test strip"
            }
          ],
          "text": "Leukocyte esterase [Presence] in Urine by Test strip"
        },
        "text": {
          "status": "generated",
          "div": "<div xmlns=\"http://www.w3.org/1999/xhtml\"><table class=\"hl7__eu__lab__report\"><tr><th>Test</th><th>29-Oct-2021</th><th>Reference&#xA0;Range</th><th>Unit</th></tr><tr><td>Leukocyte esterase [Presence] in Urine by Test strip</td></tr></table></div>"
        },
        "status": "final",
        "subject": {
          "reference": "urn:uuid:690f723e-8ace-41e6-bb34-3ecd303446f9",
          "display": "Victor Lagarde"
        },
        "effectiveDateTime": "2021-10-29T04:48:18Z",
        "specimen": {
          "reference": "urn:uuid:4146ea88-14cd-4e35-b999-64e1b6273ad9"
        }
      }
    },
    {
      "fullUrl": "urn:uuid:729ab8f5-3e35-439c-ab95-413738e1bfae",
      "resource": {
        "resourceType": "Observation",
        "id": "729ab8f5-3e35-439c-ab95-413738e1bfae",
        "meta": {
          "profile": [
            "http://hl7.eu/fhir/laboratory/StructureDefinition/Observation-resultslab-eu-lab"
          ]
        },
        "performer": [
          {
            "display": "The Central European Lab"
          }
        ],
        "category": [
          {
            "coding": [
              {
                "system": "http://terminology.hl7.org/CodeSystem/observation-category",
                "code": "laboratory"
              }
            ]
          }
        ],
        "code": {
          "coding": [
            {
              "code": "4548-4",
              "system": "http://loinc.org",
              "display": "Hemoglobin A1c/Hemoglobin.total in Blood"
            }
          ],
          "text": "Hemoglobin A1c/Hemoglobin.total in Blood"
        },
        "valueQuantity": {
          "system": "http://unitsofmeasure.org",
          "value": 3.1,
          "unit": "%",
          "code": "%"
        },
        "referenceRange": [
          {
            "low": {
              "value": 4.3,
              "code": "%",
              "system": "http://unitsofmeasure.org"
            }
          },
          {
            "high": {
              "value": 6,
              "code": "%",
              "system": "http://unitsofmeasure.org"
            }
          }
        ],
        "interpretation": [
          {
            "coding": [
              {
                "code": "L",
                "system": "http://terminology.hl7.org/CodeSystem/v3-ObservationInterpretation",
                "display": "Low"
              }
            ]
          }
        ],
        "text": {
          "status": "generated",
          "div": "<div xmlns=\"http://www.w3.org/1999/xhtml\"><table class=\"hl7__eu__lab__report\"><tr><th>Test</th><th>29-Oct-2021</th><th>Reference&#xA0;Range</th><th>Unit</th></tr><tr><td>Hemoglobin A1c/Hemoglobin.total in Blood</td><td>3.1</td><td>4.3 - 6</td><td>L</td><td>%</td></tr></table></div>"
        },
        "status": "final",
        "subject": {
          "reference": "urn:uuid:690f723e-8ace-41e6-bb34-3ecd303446f9",
          "display": "Victor Lagarde"
        },
        "effectiveDateTime": "2021-10-29T04:48:18Z",
        "specimen": {
          "reference": "urn:uuid:7a08f00e-4594-47d2-9073-da3fb00ae1b8"
        }
      }
    },
    {
      "fullUrl": "urn:uuid:96793e27-c365-4372-aa70-2fa00acef65b",
      "resource": {
        "resourceType": "Observation",
        "id": "96793e27-c365-4372-aa70-2fa00acef65b",
        "meta": {
          "profile": [
            "http://hl7.eu/fhir/laboratory/StructureDefinition/Observation-resultslab-eu-lab"
          ]
        },
        "performer": [
          {
            "display": "The Central European Lab"
          }
        ],
        "category": [
          {
            "coding": [
              {
                "system": "http://terminology.hl7.org/CodeSystem/observation-category",
                "code": "laboratory"
              }
            ]
          }
        ],
        "code": {
          "coding": [
            {
              "code": "2339-0",
              "system": "http://loinc.org",
              "display": "Glucose [Mass/volume] in Blood"
            }
          ],
          "text": "Glucose [Mass/volume] in Blood"
        },
        "valueQuantity": {
          "system": "http://unitsofmeasure.org",
          "value": 87.4,
          "unit": "mg/dL",
          "code": "mg/dL"
        },
        "referenceRange": [
          {
            "low": {
              "value": 70,
              "code": "mg/dL",
              "system": "http://unitsofmeasure.org"
            }
          },
          {
            "high": {
              "value": 140,
              "code": "mg/dL",
              "system": "http://unitsofmeasure.org"
            }
          }
        ],
        "text": {
          "status": "generated",
          "div": "<div xmlns=\"http://www.w3.org/1999/xhtml\"><table class=\"hl7__eu__lab__report\"><tr><th>Test</th><th>29-Oct-2021</th><th>Reference&#xA0;Range</th><th>Unit</th></tr><tr><td>Glucose [Mass/volume] in Blood</td><td>87.4</td><td>70 - 140</td><td></td><td>mg/dL</td></tr></table></div>"
        },
        "status": "final",
        "subject": {
          "reference": "urn:uuid:690f723e-8ace-41e6-bb34-3ecd303446f9",
          "display": "Victor Lagarde"
        },
        "effectiveDateTime": "2021-10-29T04:48:18Z",
        "specimen": {
          "reference": "urn:uuid:7a08f00e-4594-47d2-9073-da3fb00ae1b8"
        }
      }
    },
    {
      "fullUrl": "urn:uuid:f53822e1-5188-4e81-bb19-114c1b0f248a",
      "resource": {
        "resourceType": "Observation",
        "id": "f53822e1-5188-4e81-bb19-114c1b0f248a",
        "meta": {
          "profile": [
            "http://hl7.eu/fhir/laboratory/StructureDefinition/Observation-resultslab-eu-lab"
          ]
        },
        "performer": [
          {
            "display": "The Central European Lab"
          }
        ],
        "category": [
          {
            "coding": [
              {
                "system": "http://terminology.hl7.org/CodeSystem/observation-category",
                "code": "laboratory"
              }
            ]
          }
        ],
        "code": {
          "coding": [
            {
              "code": "6299-2",
              "system": "http://loinc.org",
              "display": "Urea nitrogen [Mass/volume] in Blood"
            }
          ],
          "text": "Urea nitrogen [Mass/volume] in Blood"
        },
        "valueQuantity": {
          "system": "http://unitsofmeasure.org",
          "value": 7.5,
          "unit": "mg/dL",
          "code": "mg/dL"
        },
        "referenceRange": [
          {
            "low": {
              "value": 7,
              "code": "mg/dL",
              "system": "http://unitsofmeasure.org"
            }
          },
          {
            "high": {
              "value": 20,
              "code": "mg/dL",
              "system": "http://unitsofmeasure.org"
            }
          }
        ],
        "text": {
          "status": "generated",
          "div": "<div xmlns=\"http://www.w3.org/1999/xhtml\"><table class=\"hl7__eu__lab__report\"><tr><th>Test</th><th>29-Oct-2021</th><th>Reference&#xA0;Range</th><th>Unit</th></tr><tr><td>Urea nitrogen [Mass/volume] in Blood</td><td>7.5</td><td>7 - 20</td><td></td><td>mg/dL</td></tr></table></div>"
        },
        "status": "final",
        "subject": {
          "reference": "urn:uuid:690f723e-8ace-41e6-bb34-3ecd303446f9",
          "display": "Victor Lagarde"
        },
        "effectiveDateTime": "2021-10-29T04:48:18Z",
        "specimen": {
          "reference": "urn:uuid:7a08f00e-4594-47d2-9073-da3fb00ae1b8"
        }
      }
    },
    {
      "fullUrl": "urn:uuid:5a2ebe6d-01bf-4530-b3b7-fa5e148610ff",
      "resource": {
        "resourceType": "Observation",
        "id": "5a2ebe6d-01bf-4530-b3b7-fa5e148610ff",
        "meta": {
          "profile": [
            "http://hl7.eu/fhir/laboratory/StructureDefinition/Observation-resultslab-eu-lab"
          ]
        },
        "performer": [
          {
            "display": "The Central European Lab"
          }
        ],
        "category": [
          {
            "coding": [
              {
                "system": "http://terminology.hl7.org/CodeSystem/observation-category",
                "code": "laboratory"
              }
            ]
          }
        ],
        "code": {
          "coding": [
            {
              "code": "38483-4",
              "system": "http://loinc.org",
              "display": "Creatinine [Mass/volume] in Blood"
            }
          ],
          "text": "Creatinine [Mass/volume] in Blood"
        },
        "valueQuantity": {
          "system": "http://unitsofmeasure.org",
          "value": 4.4,
          "unit": "mg/dL",
          "code": "mg/dL"
        },
        "referenceRange": [
          {
            "low": {
              "value": 0.9,
              "code": "mg/dL",
              "system": "http://unitsofmeasure.org"
            }
          },
          {
            "high": {
              "value": 1.3,
              "code": "mg/dL",
              "system": "http://unitsofmeasure.org"
            }
          }
        ],
        "interpretation": [
          {
            "coding": [
              {
                "code": "H",
                "system": "http://terminology.hl7.org/CodeSystem/v3-ObservationInterpretation",
                "display": "High"
              }
            ]
          }
        ],
        "text": {
          "status": "generated",
          "div": "<div xmlns=\"http://www.w3.org/1999/xhtml\"><table class=\"hl7__eu__lab__report\"><tr><th>Test</th><th>29-Oct-2021</th><th>Reference&#xA0;Range</th><th>Unit</th></tr><tr><td>Creatinine [Mass/volume] in Blood</td><td>4.4</td><td>0.9 - 1.3</td><td>H</td><td>mg/dL</td></tr></table></div>"
        },
        "status": "final",
        "subject": {
          "reference": "urn:uuid:690f723e-8ace-41e6-bb34-3ecd303446f9",
          "display": "Victor Lagarde"
        },
        "effectiveDateTime": "2021-10-29T04:48:18Z",
        "specimen": {
          "reference": "urn:uuid:7a08f00e-4594-47d2-9073-da3fb00ae1b8"
        }
      }
    },
    {
      "fullUrl": "urn:uuid:c47292e8-cb5b-4387-915f-7f1e88692d43",
      "resource": {
        "resourceType": "Observation",
        "id": "c47292e8-cb5b-4387-915f-7f1e88692d43",
        "meta": {
          "profile": [
            "http://hl7.eu/fhir/laboratory/StructureDefinition/Observation-resultslab-eu-lab"
          ]
        },
        "performer": [
          {
            "display": "The Central European Lab"
          }
        ],
        "category": [
          {
            "coding": [
              {
                "system": "http://terminology.hl7.org/CodeSystem/observation-category",
                "code": "laboratory"
              }
            ]
          }
        ],
        "code": {
          "coding": [
            {
              "code": "49765-1",
              "system": "http://loinc.org",
              "display": "Calcium [Mass/volume] in Blood"
            }
          ],
          "text": "Calcium [Mass/volume] in Blood"
        },
        "valueQuantity": {
          "system": "http://unitsofmeasure.org",
          "value": 10.2,
          "unit": "mg/dL",
          "code": "mg/dL"
        },
        "referenceRange": [
          {
            "low": {
              "value": 8.5,
              "code": "mg/dL",
              "system": "http://unitsofmeasure.org"
            }
          },
          {
            "high": {
              "value": 10.5,
              "code": "mg/dL",
              "system": "http://unitsofmeasure.org"
            }
          }
        ],
        "text": {
          "status": "generated",
          "div": "<div xmlns=\"http://www.w3.org/1999/xhtml\"><table class=\"hl7__eu__lab__report\"><tr><th>Test</th><th>29-Oct-2021</th><th>Reference&#xA0;Range</th><th>Unit</th></tr><tr><td>Calcium [Mass/volume] in Blood</td><td>10.2</td><td>8.5 - 10.5</td><td></td><td>mg/dL</td></tr></table></div>"
        },
        "status": "final",
        "subject": {
          "reference": "urn:uuid:690f723e-8ace-41e6-bb34-3ecd303446f9",
          "display": "Victor Lagarde"
        },
        "effectiveDateTime": "2021-10-29T04:48:18Z",
        "specimen": {
          "reference": "urn:uuid:7a08f00e-4594-47d2-9073-da3fb00ae1b8"
        }
      }
    },
    {
      "fullUrl": "urn:uuid:5b0b0f51-3560-444e-8a82-165973a0f56f",
      "resource": {
        "resourceType": "Observation",
        "id": "5b0b0f51-3560-444e-8a82-165973a0f56f",
        "meta": {
          "profile": [
            "http://hl7.eu/fhir/laboratory/StructureDefinition/Observation-resultslab-eu-lab"
          ]
        },
        "performer": [
          {
            "display": "The Central European Lab"
          }
        ],
        "category": [
          {
            "coding": [
              {
                "system": "http://terminology.hl7.org/CodeSystem/observation-category",
                "code": "laboratory"
              }
            ]
          }
        ],
        "code": {
          "coding": [
            {
              "code": "2947-0",
              "system": "http://loinc.org",
              "display": "Sodium [Moles/volume] in Blood"
            }
          ],
          "text": "Sodium [Moles/volume] in Blood"
        },
        "valueQuantity": {
          "system": "http://unitsofmeasure.org",
          "value": 141.9,
          "unit": "mmol/L",
          "code": "mmol/L"
        },
        "referenceRange": [
          {
            "low": {
              "value": 135,
              "code": "mmol/L",
              "system": "http://unitsofmeasure.org"
            }
          },
          {
            "high": {
              "value": 145,
              "code": "mmol/L",
              "system": "http://unitsofmeasure.org"
            }
          }
        ],
        "text": {
          "status": "generated",
          "div": "<div xmlns=\"http://www.w3.org/1999/xhtml\"><table class=\"hl7__eu__lab__report\"><tr><th>Test</th><th>29-Oct-2021</th><th>Reference&#xA0;Range</th><th>Unit</th></tr><tr><td>Sodium [Moles/volume] in Blood</td><td>141.9</td><td>135 - 145</td><td></td><td>mmol/L</td></tr></table></div>"
        },
        "status": "final",
        "subject": {
          "reference": "urn:uuid:690f723e-8ace-41e6-bb34-3ecd303446f9",
          "display": "Victor Lagarde"
        },
        "effectiveDateTime": "2021-10-29T04:48:18Z",
        "specimen": {
          "reference": "urn:uuid:7a08f00e-4594-47d2-9073-da3fb00ae1b8"
        }
      }
    },
    {
      "fullUrl": "urn:uuid:8c4cae78-de35-4f14-b170-01c8dd93c71c",
      "resource": {
        "resourceType": "Observation",
        "id": "8c4cae78-de35-4f14-b170-01c8dd93c71c",
        "meta": {
          "profile": [
            "http://hl7.eu/fhir/laboratory/StructureDefinition/Observation-resultslab-eu-lab"
          ]
        },
        "performer": [
          {
            "display": "The Central European Lab"
          }
        ],
        "category": [
          {
            "coding": [
              {
                "system": "http://terminology.hl7.org/CodeSystem/observation-category",
                "code": "laboratory"
              }
            ]
          }
        ],
        "code": {
          "coding": [
            {
              "code": "6298-4",
              "system": "http://loinc.org",
              "display": "Potassium [Moles/volume] in Blood"
            }
          ],
          "text": "Potassium [Moles/volume] in Blood"
        },
        "valueQuantity": {
          "system": "http://unitsofmeasure.org",
          "value": 5.1,
          "unit": "mmol/L",
          "code": "mmol/L"
        },
        "referenceRange": [
          {
            "low": {
              "value": 3.5,
              "code": "mmol/L",
              "system": "http://unitsofmeasure.org"
            }
          },
          {
            "high": {
              "value": 5.1,
              "code": "mmol/L",
              "system": "http://unitsofmeasure.org"
            }
          }
        ],
        "text": {
          "status": "generated",
          "div": "<div xmlns=\"http://www.w3.org/1999/xhtml\"><table class=\"hl7__eu__lab__report\"><tr><th>Test</th><th>29-Oct-2021</th><th>Reference&#xA0;Range</th><th>Unit</th></tr><tr><td>Potassium [Moles/volume] in Blood</td><td>5.1</td><td>3.5 - 5.1</td><td></td><td>mmol/L</td></tr></table></div>"
        },
        "status": "final",
        "subject": {
          "reference": "urn:uuid:690f723e-8ace-41e6-bb34-3ecd303446f9",
          "display": "Victor Lagarde"
        },
        "effectiveDateTime": "2021-10-29T04:48:18Z",
        "specimen": {
          "reference": "urn:uuid:7a08f00e-4594-47d2-9073-da3fb00ae1b8"
        }
      }
    },
    {
      "fullUrl": "urn:uuid:7f9888cb-4bb3-4e8f-ac81-6f1e58ea1137",
      "resource": {
        "resourceType": "Observation",
        "id": "7f9888cb-4bb3-4e8f-ac81-6f1e58ea1137",
        "meta": {
          "profile": [
            "http://hl7.eu/fhir/laboratory/StructureDefinition/Observation-resultslab-eu-lab"
          ]
        },
        "performer": [
          {
            "display": "The Central European Lab"
          }
        ],
        "category": [
          {
            "coding": [
              {
                "system": "http://terminology.hl7.org/CodeSystem/observation-category",
                "code": "laboratory"
              }
            ]
          }
        ],
        "code": {
          "coding": [
            {
              "code": "2069-3",
              "system": "http://loinc.org",
              "display": "Chloride [Moles/volume] in Blood"
            }
          ],
          "text": "Chloride [Moles/volume] in Blood"
        },
        "valueQuantity": {
          "system": "http://unitsofmeasure.org",
          "value": 109.1,
          "unit": "mmol/L",
          "code": "mmol/L"
        },
        "referenceRange": [
          {
            "low": {
              "value": 98,
              "code": "mmol/L",
              "system": "http://unitsofmeasure.org"
            }
          },
          {
            "high": {
              "value": 108,
              "code": "mmol/L",
              "system": "http://unitsofmeasure.org"
            }
          }
        ],
        "interpretation": [
          {
            "coding": [
              {
                "code": "H",
                "system": "http://terminology.hl7.org/CodeSystem/v3-ObservationInterpretation",
                "display": "High"
              }
            ]
          }
        ],
        "text": {
          "status": "generated",
          "div": "<div xmlns=\"http://www.w3.org/1999/xhtml\"><table class=\"hl7__eu__lab__report\"><tr><th>Test</th><th>29-Oct-2021</th><th>Reference&#xA0;Range</th><th>Unit</th></tr><tr><td>Chloride [Moles/volume] in Blood</td><td>109.1</td><td>98 - 108</td><td>H</td><td>mmol/L</td></tr></table></div>"
        },
        "status": "final",
        "subject": {
          "reference": "urn:uuid:690f723e-8ace-41e6-bb34-3ecd303446f9",
          "display": "Victor Lagarde"
        },
        "effectiveDateTime": "2021-10-29T04:48:18Z",
        "specimen": {
          "reference": "urn:uuid:7a08f00e-4594-47d2-9073-da3fb00ae1b8"
        }
      }
    },
    {
      "fullUrl": "urn:uuid:27f78f32-2993-4366-9b18-8221cefef10c",
      "resource": {
        "resourceType": "Observation",
        "id": "27f78f32-2993-4366-9b18-8221cefef10c",
        "meta": {
          "profile": [
            "http://hl7.eu/fhir/laboratory/StructureDefinition/Observation-resultslab-eu-lab"
          ]
        },
        "performer": [
          {
            "display": "The Central European Lab"
          }
        ],
        "category": [
          {
            "coding": [
              {
                "system": "http://terminology.hl7.org/CodeSystem/observation-category",
                "code": "laboratory"
              }
            ]
          }
        ],
        "code": {
          "coding": [
            {
              "code": "20565-8",
              "system": "http://loinc.org",
              "display": "Carbon dioxide, total [Moles/volume] in Blood"
            }
          ],
          "text": "Carbon dioxide, total [Moles/volume] in Blood"
        },
        "valueQuantity": {
          "system": "http://unitsofmeasure.org",
          "value": 23.8,
          "unit": "mmol/L",
          "code": "mmol/L"
        },
        "referenceRange": [
          {
            "low": {
              "value": 22,
              "code": "mmol/L",
              "system": "http://unitsofmeasure.org"
            }
          },
          {
            "high": {
              "value": 29,
              "code": "mmol/L",
              "system": "http://unitsofmeasure.org"
            }
          }
        ],
        "text": {
          "status": "generated",
          "div": "<div xmlns=\"http://www.w3.org/1999/xhtml\"><table class=\"hl7__eu__lab__report\"><tr><th>Test</th><th>29-Oct-2021</th><th>Reference&#xA0;Range</th><th>Unit</th></tr><tr><td>Carbon dioxide, total [Moles/volume] in Blood</td><td>23.8</td><td>22 - 29</td><td></td><td>mmol/L</td></tr></table></div>"
        },
        "status": "final",
        "subject": {
          "reference": "urn:uuid:690f723e-8ace-41e6-bb34-3ecd303446f9",
          "display": "Victor Lagarde"
        },
        "effectiveDateTime": "2021-10-29T04:48:18Z",
        "specimen": {
          "reference": "urn:uuid:7a08f00e-4594-47d2-9073-da3fb00ae1b8"
        }
      }
    },
    {
      "fullUrl": "urn:uuid:60a06f66-8c3f-4872-b82f-f0c0babb03ae",
      "resource": {
        "resourceType": "Device",
        "id": "60a06f66-8c3f-4872-b82f-f0c0babb03ae",
        "deviceName": [
          {
            "name": "SYNDERAI Synthetic Generator",
            "type": "manufacturer-name"
          }
        ],
        "version": [
          {
            "value": "5.0"
          }
        ],
        "text": {
          "status": "generated",
          "div": "<div xmlns=\"http://www.w3.org/1999/xhtml\">SYNDERAI Synthetic Generator v5.0</div>"
        },
        "status": "active\"",
        "distinctIdentifier": "synderai-generator-50",
        "manufacturer": "SYNDERAI Project"
      }
    },
    {
      "fullUrl": "urn:uuid:7de958e0-c86d-4f47-b44c-62ef40406ef2",
      "resource": {
        "resourceType": "Provenance",
        "id": "7de958e0-c86d-4f47-b44c-62ef40406ef2",
        "target": [
          {
            "reference": "Patient/690f723e-8ace-41e6-bb34-3ecd303446f9"
          },
          {
            "reference": "Bundle/3e69681d-62a1-44e5-87e0-2724339fac62"
          },
          {
            "reference": "Composition/4d6a72a3-97d4-47b2-9ec3-ed34110fc09d"
          },
          {
            "reference": "PractitionerRole/5b1b5410-8da5-481e-83f7-b91f1034d9ce"
          },
          {
            "reference": "Practitioner/a9b42e9d-92fb-49d8-b1e6-e68506c98d0d"
          },
          {
            "reference": "PractitionerRole/b058cafc-93b0-45c4-813f-a052279bd5ef"
          },
          {
            "reference": "Organization/5927ec38-6984-4032-853a-5d3b32a1a52f"
          }
        ],
        "activity": {
          "text": "Synthetic Example Data Generation"
        },
        "policy": [
          "https://synderai.net/synderai-synthetic-data-policy"
        ],
        "agent": [
          {
            "type": {
              "text": "author"
            },
            "who": {
              "reference": "Device/60a06f66-8c3f-4872-b82f-f0c0babb03ae"
            }
          }
        ],
        "reason": [
          {
            "text": "Interoperability Testing and Training (non-clinical use)"
          }
        ],
        "text": {
          "status": "generated",
          "div": "<div xmlns=\"http://www.w3.org/1999/xhtml\">Provenance for SYNDERAI Synthetic Example Data Resource</div>"
        },
        "recorded": "2021-10-29T06:48:18Z"
      }
    },
    {
      "fullUrl": "urn:uuid:5b1b5410-8da5-481e-83f7-b91f1034d9ce",
      "resource": {
        "resourceType": "PractitionerRole",
        "id": "5b1b5410-8da5-481e-83f7-b91f1034d9ce",
        "meta": {
          "profile": [
            "http://hl7.eu/fhir/base/StructureDefinition/practitionerRole-eu"
          ]
        },
        "text": {
          "status": "generated",
          "div": "<div xmlns=\"http://www.w3.org/1999/xhtml\">Laboratory Role Id: 5b1b5410-8da5-481e-83f7-b91f1034d9ce</div>"
        },
        "practitioner": {
          "reference": "urn:uuid:a9b42e9d-92fb-49d8-b1e6-e68506c98d0d"
        }
      }
    },
    {
      "fullUrl": "urn:uuid:a9b42e9d-92fb-49d8-b1e6-e68506c98d0d",
      "resource": {
        "resourceType": "Practitioner",
        "id": "a9b42e9d-92fb-49d8-b1e6-e68506c98d0d",
        "meta": {
          "profile": [
            "http://hl7.eu/fhir/base/StructureDefinition/practitioner-eu"
          ]
        },
        "identifier": [
          {
            "assigner": {
              "display": "HL7 Europe"
            },
            "system": "urn:oid:2.16.840.1.113883.2.51.999",
            "value": "a594b93f-3973-45ea-8c2c-4c5f7d871aef"
          }
        ],
        "name": [
          {
            "prefix": [
              "dr"
            ],
            "given": [
              "Ex"
            ],
            "family": "Ample"
          }
        ],
        "address": [
          {
            "line": [
              "Laboratoire Central Européenne",
              "Boulevard du Jardin Botanique 32"
            ],
            "postalCode": "1000",
            "city": "Brussels",
            "country": "Belgium"
          }
        ],
        "text": {
          "status": "generated",
          "div": "<div xmlns=\"http://www.w3.org/1999/xhtml\">Laboratory: Laboratoire Central Européenne, 1000 Brussels, Belgium</div>"
        }
      }
    }
  ],
  "type": "document",
  "timestamp": "2021-10-29T06:48:18Z"
}
