{
  "resourceType": "Bundle",
  "id": "a610253d-1c96-4b28-b42e-8e82cc7c80d2",
  "meta": {
    "profile": [
      "http://hl7.eu/fhir/laboratory/StructureDefinition/Bundle-eu-lab"
    ]
  },
  "identifier": {
    "assigner": {
      "display": "HL7 Europe"
    },
    "system": "urn:oid:2.16.840.1.113883.2.51.999",
    "value": "26537c15-0744-4d16-ad3b-dc2d306bd405"
  },
  "entry": [
    {
      "fullUrl": "urn:uuid:a9393e32-15b8-4f10-baeb-26c516739c8e",
      "resource": {
        "resourceType": "Composition",
        "id": "a9393e32-15b8-4f10-baeb-26c516739c8e",
        "meta": {
          "profile": [
            "http://hl7.eu/fhir/laboratory/StructureDefinition/Composition-eu-lab"
          ]
        },
        "identifier": {
          "assigner": {
            "display": "HL7 Europe"
          },
          "system": "urn:oid:2.16.840.1.113883.2.51.999",
          "value": "d100b428-01c2-4da2-b16f-12a1c52e558a"
        },
        "author": [
          {
            "reference": "urn:uuid:1ea09c54-c2a0-4177-93ca-2a193823f4f3"
          }
        ],
        "category": [
          {
            "coding": [
              {
                "code": "26436-6",
                "system": "http://loinc.org",
                "display": "Laboratory studies (set)"
              }
            ]
          }
        ],
        "type": {
          "coding": [
            {
              "code": "11502-2",
              "system": "http://loinc.org",
              "display": "Laboratory report"
            }
          ],
          "text": "Laboratory Report"
        },
        "section": [
          {
            "code": {
              "coding": [
                {
                  "code": "26436-6",
                  "system": "http://loinc.org",
                  "display": "Laboratory studies (set)"
                }
              ],
              "text": "Laboratory studies"
            },
            "section": [
              {
                "code": {
                  "coding": [
                    {
                      "code": "$18719-5",
                      "system": "http://loinc.org",
                      "display": "Chemistry studies (set)"
                    }
                  ],
                  "text": "Chemistry"
                },
                "entry": [
                  {
                    "reference": "urn:uuid:ea48954b-0ada-469e-b3d9-a7831ac274d8"
                  },
                  {
                    "reference": "urn:uuid:e81211e1-00f8-4df4-9b10-158612de99b1"
                  },
                  {
                    "reference": "urn:uuid:3b2016cc-d0f5-466e-9098-1f61845de869"
                  },
                  {
                    "reference": "urn:uuid:9da99c35-d8b7-47e5-9256-22d40a663741"
                  },
                  {
                    "reference": "urn:uuid:08cbb1e4-c86c-44af-877d-32fc6d33af35"
                  },
                  {
                    "reference": "urn:uuid:a0546755-1c74-4d4f-843b-d619498c66b4"
                  },
                  {
                    "reference": "urn:uuid:4e4521c8-41b3-4c6b-885c-ac709185afa9"
                  },
                  {
                    "reference": "urn:uuid:3249112c-153e-4641-b736-d460908844b6"
                  },
                  {
                    "reference": "urn:uuid:656a6739-61b3-4824-a641-1f242610557f"
                  },
                  {
                    "reference": "urn:uuid:3814d724-f597-4f7c-9af1-4813a46dd23f"
                  },
                  {
                    "reference": "urn:uuid:49220b5a-3ea2-4c3d-8367-811970e4110e"
                  },
                  {
                    "reference": "urn:uuid:ab3cbecb-23c6-47e2-94ee-26b62224e4f2"
                  },
                  {
                    "reference": "urn:uuid:090a5018-4510-48cd-b908-35a453b5fc19"
                  },
                  {
                    "reference": "urn:uuid:d0b5b7d1-d980-4daa-9e74-7882a4e92093"
                  },
                  {
                    "reference": "urn:uuid:4677bb2c-bc01-43d3-82e1-997d9fefb324"
                  },
                  {
                    "reference": "urn:uuid:43a49a79-51df-4c4b-a3a0-c27017977337"
                  }
                ],
                "text": {
                  "status": "generated",
                  "div": "<div xmlns=\"http://www.w3.org/1999/xhtml\"><h3>Chemistry</h3><table class=\"hl7__eu__lab__report\"><thead><tr><th>Test</th><th>11-AUG-2015</th><th>Reference&#xA0;Range</th><th>Unit</th></tr></thead><tbody><tr><td>Glucose [Mass/volume] in Blood</td><td>97.3</td><td>70 - 140</td><td>mg/dL</td></tr><tr><td>Urea nitrogen [Mass/volume] in Blood</td><td>8.3</td><td>7 - 25</td><td>mg/dL</td></tr><tr><td>Creatinine [Mass/volume] in Blood</td><td><strong>3.4 H</strong></td><td>0.6 - 1.1</td><td>mg/dL</td></tr><tr><td>Calcium [Mass/volume] in Blood</td><td>8.8</td><td>8.6 - 10.4</td><td>mg/dL</td></tr><tr><td>Sodium [Moles/volume] in Blood</td><td>137.0</td><td>135 - 145</td><td>mmol/L</td></tr><tr><td>Potassium [Moles/volume] in Blood</td><td>3.9</td><td>3.5 - 5.1</td><td>mmol/L</td></tr><tr><td>Chloride [Moles/volume] in Blood</td><td>104.7</td><td>98 - 110</td><td>mmol/L</td></tr><tr><td>Carbon dioxide, total [Moles/volume] in Blood</td><td>28.2</td><td>22 - 29</td><td>mmol/L</td></tr><tr><td>Protein [Mass/volume] in Serum or Plasma</td><td><strong>6.1 L</strong></td><td>6.6 - 8.3</td><td>g/dL</td></tr><tr><td>Albumin [Mass/volume] in Serum or Plasma</td><td>3.8</td><td>3.5 - 5</td><td>g/dL</td></tr><tr><td>Globulin [Mass/volume] in Serum by calculation</td><td>2.1</td><td>2 - 3.5</td><td>g/L</td></tr><tr><td>Bilirubin.total [Mass/volume] in Serum or Plasma</td><td>1.0</td><td>0.3 - 1.2</td><td>mg/dL</td></tr><tr><td>Alkaline phosphatase [Enzymatic activity/volume] in Serum or Plasma</td><td>84.8</td><td>39 - 141</td><td>U/L</td></tr><tr><td>Alanine aminotransferase [Enzymatic activity/volume] in Serum or Plasma</td><td><strong>41.9 H</strong></td><td>7 - 40</td><td>U/L</td></tr><tr><td>Aspartate aminotransferase [Enzymatic activity/volume] in Serum or Plasma</td><td>17.5</td><td>10 - 32</td><td>U/L</td></tr><tr><td>Ketones [Presence] in Urine by Test strip</td><td>Urine ketone test = +++</td><td></td><td></td></tr></tbody></table></div>"
                },
                "title": "Chemistry"
              },
              {
                "code": {
                  "coding": [
                    {
                      "code": "$18729-4",
                      "system": "http://loinc.org",
                      "display": "Urinalysis studies (set)"
                    }
                  ],
                  "text": "Urinalysis"
                },
                "entry": [
                  {
                    "reference": "urn:uuid:4cb67bec-4f46-42dd-aa7d-b3c6dc49aaef"
                  },
                  {
                    "reference": "urn:uuid:6a6f41cc-c8e5-4f3b-b3da-cebab18af4dd"
                  },
                  {
                    "reference": "urn:uuid:4cc25828-2f79-4bcd-bfa6-42db40aa8988"
                  },
                  {
                    "reference": "urn:uuid:9053bdcb-8c85-4c10-ad78-0639356ac267"
                  },
                  {
                    "reference": "urn:uuid:be1a8735-b1a8-43ee-966d-8d949583fc7e"
                  },
                  {
                    "reference": "urn:uuid:ccf21fdc-d00a-4d7c-8cab-4ea738002f8e"
                  },
                  {
                    "reference": "urn:uuid:e6bf6828-38f2-4fb9-910b-50c7a79c2892"
                  },
                  {
                    "reference": "urn:uuid:dfeb0498-d096-4593-be14-9976e72ef42c"
                  },
                  {
                    "reference": "urn:uuid:78b08322-d35c-4c9d-9aeb-59ce83134498"
                  },
                  {
                    "reference": "urn:uuid:60852d5b-dfec-4019-bf88-66ef0b7db0b7"
                  },
                  {
                    "reference": "urn:uuid:77603324-a23b-4c7e-ba46-27eb50073ff8"
                  },
                  {
                    "reference": "urn:uuid:8ca76d2e-9f0d-4c74-8d73-3d9b4dd4418a"
                  }
                ],
                "text": {
                  "status": "generated",
                  "div": "<div xmlns=\"http://www.w3.org/1999/xhtml\"><h3>Urinalysis</h3><table class=\"hl7__eu__lab__report\"><thead><tr><th>Test</th><th>11-AUG-2015</th><th>Reference&#xA0;Range</th><th>Unit</th></tr></thead><tbody><tr><td>Glucose [Mass/volume] in Urine by Test strip</td><td>0.8</td><td>0 - 0.8</td><td>mg/dL</td></tr><tr><td>Glucose [Presence] in Urine by Test strip</td><td>++</td><td></td><td></td></tr><tr><td>Bilirubin.total [Mass/volume] in Urine by Test strip</td><td>0.6</td><td>0 - 1</td><td>mg/dL</td></tr><tr><td>Bilirubin.total [Presence] in Urine by Test strip</td><td>Finding of bilirubin in urine</td><td></td><td></td></tr><tr><td>Ketones [Mass/volume] in Urine by Test strip</td><td>3.5</td><td>0 - 4</td><td>mg/dL</td></tr><tr><td>Specific gravity of Urine by Test strip</td><td><strong>1.0 L</strong></td><td>1.005 - 1.03</td><td>{nominal}</td></tr><tr><td>pH of Urine by Test strip</td><td>6.0</td><td>4.5 - 7</td><td>pH</td></tr><tr><td>Protein [Mass/volume] in Urine by Test strip</td><td><strong>300.6 H</strong></td><td>0 - 145</td><td>mg/dL</td></tr><tr><td>Protein [Presence] in Urine by Test strip</td><td>Urine protein test = +++</td><td></td><td></td></tr><tr><td>Nitrite [Presence] in Urine by Test strip</td><td>Urine nitrite negative</td><td></td><td></td></tr><tr><td>Hemoglobin [Presence] in Urine by Test strip</td><td>Urine blood test = negative</td><td></td><td></td></tr><tr><td>Leukocyte esterase [Presence] in Urine by Test strip</td><td>Urine leukocyte test negative</td><td></td><td></td></tr></tbody></table></div>"
                },
                "title": "Urinalysis"
              },
              {
                "code": {
                  "coding": [
                    {
                      "code": "$LP7846-1",
                      "system": "http://loinc.org",
                      "display": "Specimen information"
                    }
                  ],
                  "text": "Specimen information"
                },
                "entry": [
                  {
                    "reference": "urn:uuid:002468cf-883d-4287-a7a1-0f5d1441717f"
                  },
                  {
                    "reference": "urn:uuid:c59fa4b8-58ec-4a0f-8877-f5350d1b2396"
                  },
                  {
                    "reference": "urn:uuid:838cdee6-4e50-4759-b60e-def021047e1a"
                  },
                  {
                    "reference": "urn:uuid:6f6b68bf-1d23-4e72-a659-3e79995a9b6f"
                  }
                ],
                "text": {
                  "status": "generated",
                  "div": "<div xmlns=\"http://www.w3.org/1999/xhtml\"><h3>Specimen information</h3><table class=\"hl7__eu__lab__report\"><thead><tr><th>Test</th><th>11-AUG-2015</th><th>Specimen</th><th></th></tr></thead><tbody><tr><td>Appearance of Urine</td><td>Cloudy urine</td><td>Urine</td><td></td></tr><tr><td>Odor of Urine</td><td>Urine smell ammoniacal</td><td>Urine</td><td></td></tr><tr><td>Clarity of Urine</td><td>Translucent</td><td>Urine</td><td></td></tr><tr><td>Color of Urine</td><td>Brown color</td><td>Urine</td><td></td></tr></tbody></table></div>"
                },
                "title": "Specimen information"
              }
            ],
            "title": "Laboratory Report"
          },
          {
            "text": {
              "status": "generated",
              "div": "<div xmlns=\"http://www.w3.org/1999/xhtml\"><h3>Annotation</h3><table class=\"hl7__eu__lab__report\"><tr><th>Conclusion and Recommendations based on this report and previous findings known to us</th></tr><tr><td>The patient shows markedly elevated serum creatinine and proteinuria, indicating significant renal impairment. Mildly elevated ALT suggests possible hepatic involvement. Low serum protein may reflect protein loss or decreased synthesis. Urinalysis reveals glucosuria, ketonuria, and proteinuria, with abnormal urine appearance and color, but no evidence of infection. Findings are consistent with acute or chronic kidney disease, possibly with nephrotic features and metabolic derangements. Prompt nephrology evaluation is recommended.</td></tr></table></div>"
            },
            "code": {
              "coding": [
                {
                  "system": "http://loinc.org",
                  "code": "48767-8",
                  "display": "Annotation comment"
                }
              ]
            },
            "title": "Annotation comment"
          }
        ],
        "status": "final",
        "subject": {
          "reference": "urn:uuid:71632625-4326-4313-8b82-222d259faf4b",
          "display": "Iva Kratochvílová"
        },
        "date": "2015-08-11T13:56:29Z",
        "title": "Laboratory Report",
        "confidentiality": "N"
      }
    },
    {
      "fullUrl": "urn:uuid:8fabcb7c-eb61-4621-b806-6a2c4ce741c3",
      "resource": {
        "resourceType": "DiagnosticReport",
        "id": "8fabcb7c-eb61-4621-b806-6a2c4ce741c3",
        "meta": {
          "profile": [
            "http://hl7.eu/fhir/laboratory/StructureDefinition/DiagnosticReport-eu-lab"
          ]
        },
        "identifier": [
          {
            "assigner": {
              "display": "HL7 Europe"
            },
            "system": "urn:oid:2.16.840.1.113883.2.51.999",
            "value": "3d3f7cd2-ca4b-44ec-baf2-d967774837aa"
          }
        ],
        "extension": [
          {
            "url": "http://hl7.org/fhir/5.0/StructureDefinition/extension-DiagnosticReport.composition",
            "valueReference": {
              "reference": "urn:uuid:d100b428-01c2-4da2-b16f-12a1c52e558a"
            }
          }
        ],
        "category": [
          {
            "coding": [
              {
                "code": "26436-6",
                "system": "http://loinc.org",
                "display": "Laboratory studies (set)"
              }
            ]
          }
        ],
        "specimen": [
          {
            "reference": "urn:uuid:7a315f75-5472-41dd-9633-855c599aeacc"
          },
          {
            "reference": "urn:uuid:55a8a3bb-2449-4eff-9759-69891e9a367c"
          },
          {
            "reference": "urn:uuid:bdf5530d-a520-45f6-89c3-ce9bc931ce72"
          },
          {
            "reference": "urn:uuid:d31562ec-60be-4c51-b08b-119366380f94"
          }
        ],
        "result": [
          {
            "reference": "urn:uuid:ea48954b-0ada-469e-b3d9-a7831ac274d8"
          },
          {
            "reference": "urn:uuid:e81211e1-00f8-4df4-9b10-158612de99b1"
          },
          {
            "reference": "urn:uuid:3b2016cc-d0f5-466e-9098-1f61845de869"
          },
          {
            "reference": "urn:uuid:9da99c35-d8b7-47e5-9256-22d40a663741"
          },
          {
            "reference": "urn:uuid:08cbb1e4-c86c-44af-877d-32fc6d33af35"
          },
          {
            "reference": "urn:uuid:a0546755-1c74-4d4f-843b-d619498c66b4"
          },
          {
            "reference": "urn:uuid:4e4521c8-41b3-4c6b-885c-ac709185afa9"
          },
          {
            "reference": "urn:uuid:3249112c-153e-4641-b736-d460908844b6"
          },
          {
            "reference": "urn:uuid:656a6739-61b3-4824-a641-1f242610557f"
          },
          {
            "reference": "urn:uuid:3814d724-f597-4f7c-9af1-4813a46dd23f"
          },
          {
            "reference": "urn:uuid:49220b5a-3ea2-4c3d-8367-811970e4110e"
          },
          {
            "reference": "urn:uuid:ab3cbecb-23c6-47e2-94ee-26b62224e4f2"
          },
          {
            "reference": "urn:uuid:090a5018-4510-48cd-b908-35a453b5fc19"
          },
          {
            "reference": "urn:uuid:d0b5b7d1-d980-4daa-9e74-7882a4e92093"
          },
          {
            "reference": "urn:uuid:4677bb2c-bc01-43d3-82e1-997d9fefb324"
          },
          {
            "reference": "urn:uuid:002468cf-883d-4287-a7a1-0f5d1441717f"
          },
          {
            "reference": "urn:uuid:c59fa4b8-58ec-4a0f-8877-f5350d1b2396"
          },
          {
            "reference": "urn:uuid:838cdee6-4e50-4759-b60e-def021047e1a"
          },
          {
            "reference": "urn:uuid:6f6b68bf-1d23-4e72-a659-3e79995a9b6f"
          },
          {
            "reference": "urn:uuid:4cb67bec-4f46-42dd-aa7d-b3c6dc49aaef"
          },
          {
            "reference": "urn:uuid:6a6f41cc-c8e5-4f3b-b3da-cebab18af4dd"
          },
          {
            "reference": "urn:uuid:4cc25828-2f79-4bcd-bfa6-42db40aa8988"
          },
          {
            "reference": "urn:uuid:9053bdcb-8c85-4c10-ad78-0639356ac267"
          },
          {
            "reference": "urn:uuid:be1a8735-b1a8-43ee-966d-8d949583fc7e"
          },
          {
            "reference": "urn:uuid:43a49a79-51df-4c4b-a3a0-c27017977337"
          },
          {
            "reference": "urn:uuid:ccf21fdc-d00a-4d7c-8cab-4ea738002f8e"
          },
          {
            "reference": "urn:uuid:e6bf6828-38f2-4fb9-910b-50c7a79c2892"
          },
          {
            "reference": "urn:uuid:dfeb0498-d096-4593-be14-9976e72ef42c"
          },
          {
            "reference": "urn:uuid:78b08322-d35c-4c9d-9aeb-59ce83134498"
          },
          {
            "reference": "urn:uuid:60852d5b-dfec-4019-bf88-66ef0b7db0b7"
          },
          {
            "reference": "urn:uuid:77603324-a23b-4c7e-ba46-27eb50073ff8"
          },
          {
            "reference": "urn:uuid:8ca76d2e-9f0d-4c74-8d73-3d9b4dd4418a"
          }
        ],
        "status": "registered",
        "code": {
          "coding": [
            {
              "code": "11502-2",
              "system": "http://loinc.org",
              "display": "Laboratory report"
            }
          ]
        },
        "subject": {
          "reference": "urn:uuid:71632625-4326-4313-8b82-222d259faf4b",
          "display": "Iva Kratochvílová"
        }
      }
    },
    {
      "fullUrl": "urn:uuid:71632625-4326-4313-8b82-222d259faf4b",
      "resource": {
        "resourceType": "Patient",
        "id": "71632625-4326-4313-8b82-222d259faf4b",
        "meta": {
          "security": [
            {
              "system": "http://terminology.hl7.org/CodeSystem/v3-ActReason",
              "code": "HTEST"
            },
            {
              "system": "http://terminology.hl7.org/CodeSystem/v3-ActReason",
              "code": "TRAIN"
            }
          ],
          "tag": [
            {
              "system": "https://synderai.net/fhir/CodeSystem/tags",
              "code": "synthetic",
              "display": "SYNDERAI Synthetic data"
            }
          ],
          "profile": [
            "http://hl7.eu/fhir/base/StructureDefinition/patient-eu-core"
          ]
        },
        "identifier": [
          {
            "type": {
              "coding": [
                {
                  "code": "PT",
                  "system": "http://terminology.hl7.org/CodeSystem/v2-0203"
                }
              ]
            },
            "system": "http://ec.europa.eu/identifier/eci",
            "value": "4380-389488-0"
          },
          {
            "type": {
              "coding": [
                {
                  "code": "MR",
                  "system": "http://terminology.hl7.org/CodeSystem/v2-0203"
                }
              ]
            },
            "system": "http://local.setting.eu/identifier",
            "value": "f8f9ebdc-03dd-2fc0-819c-affa4ffd7f67"
          }
        ],
        "name": [
          {
            "family": "Kratochvílová"
          },
          {
            "given": [
              "Iva"
            ]
          },
          {
            "text": "Iva Kratochvílová"
          }
        ],
        "address": [
          {
            "line": [
              "Žofie Podlipské 4"
            ],
            "use": "home",
            "type": "physical",
            "postalCode": "27324",
            "city": "Postoloprty",
            "country": "Czechia"
          }
        ],
        "telecom": [
          {
            "system": "phone",
            "value": "00420 607 985 072"
          }
        ],
        "extension": [
          {
            "url": "http://hl7.org/fhir/StructureDefinition/patient-nationality",
            "valueCodeableConcept": {
              "coding": [
                {
                  "code": "CZ",
                  "system": "http://hl7.org/fhir/ValueSet/country"
                }
              ]
            }
          }
        ],
        "text": {
          "status": "generated",
          "div": "<div xmlns=\"http://www.w3.org/1999/xhtml\"><table class=\"hl7__ips\"><tr><td>Iva Kratochvílová</td><td>female</td><td>17-Sep-1964</td></tr></table></div>"
        },
        "gender": "female",
        "birthDate": "1964-09-17"
      }
    },
    {
      "fullUrl": "urn:uuid:8107c52b-71cc-47ff-a4cd-f4d6deaf8214",
      "resource": {
        "resourceType": "ServiceRequest",
        "id": "8107c52b-71cc-47ff-a4cd-f4d6deaf8214",
        "meta": {
          "profile": [
            "http://hl7.eu/fhir/laboratory/StructureDefinition/ServiceRequest-eu-lab"
          ]
        },
        "identifier": [
          {
            "system": "http://example.org",
            "value": "6cde01e2-f890-4aab-a1b3-37ba125bb9a1"
          }
        ],
        "specimen": [
          {
            "reference": "urn:uuid:7a315f75-5472-41dd-9633-855c599aeacc"
          },
          {
            "reference": "urn:uuid:55a8a3bb-2449-4eff-9759-69891e9a367c"
          },
          {
            "reference": "urn:uuid:bdf5530d-a520-45f6-89c3-ce9bc931ce72"
          },
          {
            "reference": "urn:uuid:d31562ec-60be-4c51-b08b-119366380f94"
          }
        ],
        "reasonCode": [
          {
            "coding": [
              {
                "code": "431856006",
                "system": "http://snomed.info/sct",
                "display": "Chronic kidney disease stage 2"
              }
            ]
          },
          {
            "coding": [
              {
                "code": "431855005",
                "system": "http://snomed.info/sct",
                "display": "Chronic kidney disease stage 1"
              }
            ]
          },
          {
            "coding": [
              {
                "code": "237602007",
                "system": "http://snomed.info/sct",
                "display": "Metabolic syndrome X"
              }
            ]
          },
          {
            "coding": [
              {
                "code": "91302008",
                "system": "http://snomed.info/sct",
                "display": "Sepsis"
              }
            ]
          },
          {
            "coding": [
              {
                "code": "271737000",
                "system": "http://snomed.info/sct",
                "display": "Anemia"
              }
            ]
          },
          {
            "coding": [
              {
                "code": "15777000",
                "system": "http://snomed.info/sct",
                "display": "Prediabetes"
              }
            ]
          },
          {
            "coding": [
              {
                "code": "157141000119108",
                "system": "http://snomed.info/sct",
                "display": "Proteinuria due to type 2 diabetes mellitus"
              }
            ]
          },
          {
            "coding": [
              {
                "code": "90781000119102",
                "system": "http://snomed.info/sct",
                "display": "Microalbuminuria due to type 2 diabetes mellitus"
              }
            ]
          },
          {
            "coding": [
              {
                "code": "239872002",
                "system": "http://snomed.info/sct",
                "display": "Osteoarthritis of hip"
              }
            ]
          },
          {
            "coding": [
              {
                "code": "40055000",
                "system": "http://snomed.info/sct",
                "display": "Chronic sinusitis"
              }
            ]
          },
          {
            "coding": [
              {
                "code": "127013003",
                "system": "http://snomed.info/sct",
                "display": "Disorder of kidney due to diabetes mellitus"
              }
            ]
          },
          {
            "coding": [
              {
                "code": "59621000",
                "system": "http://snomed.info/sct",
                "display": "Essential hypertension"
              }
            ]
          }
        ],
        "status": "active",
        "intent": "order",
        "code": {
          "coding": [
            {
              "code": "108252007",
              "system": "http://snomed.info/sct",
              "display": "Laboratory procedure"
            }
          ]
        },
        "subject": {
          "reference": "urn:uuid:71632625-4326-4313-8b82-222d259faf4b",
          "display": "Iva Kratochvílová"
        },
        "requester": {
          "reference": "urn:uuid:a474b883-f2bf-4a7f-b345-7cedfb1e5d73"
        }
      }
    },
    {
      "fullUrl": "urn:uuid:a474b883-f2bf-4a7f-b345-7cedfb1e5d73",
      "resource": {
        "resourceType": "PractitionerRole",
        "id": "a474b883-f2bf-4a7f-b345-7cedfb1e5d73",
        "meta": {
          "profile": [
            "http://hl7.eu/fhir/base/StructureDefinition/practitionerRole-eu"
          ]
        },
        "text": {
          "status": "generated",
          "div": "<div xmlns=\"http://www.w3.org/1999/xhtml\">Provider Role Id: a474b883-f2bf-4a7f-b345-7cedfb1e5d73</div>"
        },
        "organization": {
          "reference": "urn:uuid:87e95b61-cfd6-4b7e-beb8-7ba10bcd29d8"
        }
      }
    },
    {
      "fullUrl": "urn:uuid:87e95b61-cfd6-4b7e-beb8-7ba10bcd29d8",
      "resource": {
        "resourceType": "Organization",
        "id": "87e95b61-cfd6-4b7e-beb8-7ba10bcd29d8",
        "meta": {
          "profile": [
            "http://hl7.eu/fhir/base/StructureDefinition/organization-eu"
          ]
        },
        "identifier": [
          {
            "assigner": {
              "display": "HL7 Europe"
            },
            "system": "urn:oid:2.16.840.1.113883.2.51.999",
            "value": "71669255-bd91-463c-904e-f7866050ee8e"
          }
        ],
        "address": [
          {
            "city": "Kadaň",
            "postalCode": "432 01",
            "country": "Czechia"
          }
        ],
        "text": {
          "status": "generated",
          "div": "<div xmlns=\"http://www.w3.org/1999/xhtml\">Provider Organization: Nemocnice s poliklinikou Kadaň</div>"
        },
        "name": "Nemocnice s poliklinikou Kadaň"
      }
    },
    {
      "fullUrl": "urn:uuid:7a315f75-5472-41dd-9633-855c599aeacc",
      "resource": {
        "resourceType": "Specimen",
        "id": "7a315f75-5472-41dd-9633-855c599aeacc",
        "meta": {
          "profile": [
            "http://hl7.eu/fhir/laboratory/StructureDefinition/Specimen-eu-lab"
          ]
        },
        "collection": {
          "collectedDateTime": "2015-08-11"
        },
        "text": {
          "status": "generated",
          "div": "<div xmlns=\"http://www.w3.org/1999/xhtml\"><table class=\"hl7__eu__lab__report\"><tr><th>Specimen</th><th>Collection Date</th></tr><tr><td>Whole blood specimen (specimen)</td><td><span class=\"nb\">11-Aug-2015</span></td></tr></table></div>"
        },
        "type": {
          "coding": [
            {
              "code": "258580003",
              "system": "http://snomed.info/sct",
              "display": "Whole blood specimen (specimen)"
            }
          ]
        }
      }
    },
    {
      "fullUrl": "urn:uuid:55a8a3bb-2449-4eff-9759-69891e9a367c",
      "resource": {
        "resourceType": "Specimen",
        "id": "55a8a3bb-2449-4eff-9759-69891e9a367c",
        "meta": {
          "profile": [
            "http://hl7.eu/fhir/laboratory/StructureDefinition/Specimen-eu-lab"
          ]
        },
        "collection": {
          "collectedDateTime": "2015-08-11"
        },
        "text": {
          "status": "generated",
          "div": "<div xmlns=\"http://www.w3.org/1999/xhtml\"><table class=\"hl7__eu__lab__report\"><tr><th>Specimen</th><th>Collection Date</th></tr><tr><td>Acellular blood (serum or plasma) specimen</td><td><span class=\"nb\">11-Aug-2015</span></td></tr></table></div>"
        },
        "type": {
          "coding": [
            {
              "code": "122592007",
              "system": "http://snomed.info/sct",
              "display": "Acellular blood (serum or plasma) specimen"
            }
          ]
        }
      }
    },
    {
      "fullUrl": "urn:uuid:bdf5530d-a520-45f6-89c3-ce9bc931ce72",
      "resource": {
        "resourceType": "Specimen",
        "id": "bdf5530d-a520-45f6-89c3-ce9bc931ce72",
        "meta": {
          "profile": [
            "http://hl7.eu/fhir/laboratory/StructureDefinition/Specimen-eu-lab"
          ]
        },
        "collection": {
          "collectedDateTime": "2015-08-11"
        },
        "text": {
          "status": "generated",
          "div": "<div xmlns=\"http://www.w3.org/1999/xhtml\"><table class=\"hl7__eu__lab__report\"><tr><th>Specimen</th><th>Collection Date</th></tr><tr><td>Serum specimen</td><td><span class=\"nb\">11-Aug-2015</span></td></tr></table></div>"
        },
        "type": {
          "coding": [
            {
              "code": "119364003",
              "system": "http://snomed.info/sct",
              "display": "Serum specimen"
            }
          ]
        }
      }
    },
    {
      "fullUrl": "urn:uuid:d31562ec-60be-4c51-b08b-119366380f94",
      "resource": {
        "resourceType": "Specimen",
        "id": "d31562ec-60be-4c51-b08b-119366380f94",
        "meta": {
          "profile": [
            "http://hl7.eu/fhir/laboratory/StructureDefinition/Specimen-eu-lab"
          ]
        },
        "collection": {
          "collectedDateTime": "2015-08-11"
        },
        "text": {
          "status": "generated",
          "div": "<div xmlns=\"http://www.w3.org/1999/xhtml\"><table class=\"hl7__eu__lab__report\"><tr><th>Specimen</th><th>Collection Date</th></tr><tr><td>Urine specimen</td><td><span class=\"nb\">11-Aug-2015</span></td></tr></table></div>"
        },
        "type": {
          "coding": [
            {
              "code": "122575003",
              "system": "http://snomed.info/sct",
              "display": "Urine specimen"
            }
          ]
        }
      }
    },
    {
      "fullUrl": "urn:uuid:ea48954b-0ada-469e-b3d9-a7831ac274d8",
      "resource": {
        "resourceType": "Observation",
        "id": "ea48954b-0ada-469e-b3d9-a7831ac274d8",
        "meta": {
          "profile": [
            "http://hl7.eu/fhir/laboratory/StructureDefinition/Observation-resultslab-eu-lab"
          ]
        },
        "performer": [
          {
            "display": "The Central European Lab"
          }
        ],
        "category": [
          {
            "coding": [
              {
                "system": "http://terminology.hl7.org/CodeSystem/observation-category",
                "code": "laboratory"
              }
            ]
          }
        ],
        "code": {
          "coding": [
            {
              "code": "2339-0",
              "system": "http://loinc.org",
              "display": "Glucose [Mass/volume] in Blood"
            }
          ],
          "text": "Glucose [Mass/volume] in Blood"
        },
        "valueQuantity": {
          "system": "http://unitsofmeasure.org",
          "value": 97.3,
          "unit": "mg/dL",
          "code": "mg/dL"
        },
        "referenceRange": [
          {
            "low": {
              "value": 70,
              "code": "mg/dL",
              "system": "http://unitsofmeasure.org"
            }
          },
          {
            "high": {
              "value": 140,
              "code": "mg/dL",
              "system": "http://unitsofmeasure.org"
            }
          }
        ],
        "text": {
          "status": "generated",
          "div": "<div xmlns=\"http://www.w3.org/1999/xhtml\"><table class=\"hl7__eu__lab__report\"><tr><th>Test</th><th>11-Aug-2015</th><th>Reference&#xA0;Range</th><th>Unit</th></tr><tr><td>Glucose [Mass/volume] in Blood</td><td>97.3</td><td>70 - 140</td><td></td><td>mg/dL</td></tr></table></div>"
        },
        "status": "final",
        "subject": {
          "reference": "urn:uuid:71632625-4326-4313-8b82-222d259faf4b",
          "display": "Iva Kratochvílová"
        },
        "effectiveDateTime": "2015-08-11T11:56:29Z",
        "specimen": {
          "reference": "urn:uuid:7a315f75-5472-41dd-9633-855c599aeacc"
        }
      }
    },
    {
      "fullUrl": "urn:uuid:e81211e1-00f8-4df4-9b10-158612de99b1",
      "resource": {
        "resourceType": "Observation",
        "id": "e81211e1-00f8-4df4-9b10-158612de99b1",
        "meta": {
          "profile": [
            "http://hl7.eu/fhir/laboratory/StructureDefinition/Observation-resultslab-eu-lab"
          ]
        },
        "performer": [
          {
            "display": "The Central European Lab"
          }
        ],
        "category": [
          {
            "coding": [
              {
                "system": "http://terminology.hl7.org/CodeSystem/observation-category",
                "code": "laboratory"
              }
            ]
          }
        ],
        "code": {
          "coding": [
            {
              "code": "6299-2",
              "system": "http://loinc.org",
              "display": "Urea nitrogen [Mass/volume] in Blood"
            }
          ],
          "text": "Urea nitrogen [Mass/volume] in Blood"
        },
        "valueQuantity": {
          "system": "http://unitsofmeasure.org",
          "value": 8.3,
          "unit": "mg/dL",
          "code": "mg/dL"
        },
        "referenceRange": [
          {
            "low": {
              "value": 7,
              "code": "mg/dL",
              "system": "http://unitsofmeasure.org"
            }
          },
          {
            "high": {
              "value": 25,
              "code": "mg/dL",
              "system": "http://unitsofmeasure.org"
            }
          }
        ],
        "text": {
          "status": "generated",
          "div": "<div xmlns=\"http://www.w3.org/1999/xhtml\"><table class=\"hl7__eu__lab__report\"><tr><th>Test</th><th>11-Aug-2015</th><th>Reference&#xA0;Range</th><th>Unit</th></tr><tr><td>Urea nitrogen [Mass/volume] in Blood</td><td>8.3</td><td>7 - 25</td><td></td><td>mg/dL</td></tr></table></div>"
        },
        "status": "final",
        "subject": {
          "reference": "urn:uuid:71632625-4326-4313-8b82-222d259faf4b",
          "display": "Iva Kratochvílová"
        },
        "effectiveDateTime": "2015-08-11T11:56:29Z",
        "specimen": {
          "reference": "urn:uuid:7a315f75-5472-41dd-9633-855c599aeacc"
        }
      }
    },
    {
      "fullUrl": "urn:uuid:3b2016cc-d0f5-466e-9098-1f61845de869",
      "resource": {
        "resourceType": "Observation",
        "id": "3b2016cc-d0f5-466e-9098-1f61845de869",
        "meta": {
          "profile": [
            "http://hl7.eu/fhir/laboratory/StructureDefinition/Observation-resultslab-eu-lab"
          ]
        },
        "performer": [
          {
            "display": "The Central European Lab"
          }
        ],
        "category": [
          {
            "coding": [
              {
                "system": "http://terminology.hl7.org/CodeSystem/observation-category",
                "code": "laboratory"
              }
            ]
          }
        ],
        "code": {
          "coding": [
            {
              "code": "38483-4",
              "system": "http://loinc.org",
              "display": "Creatinine [Mass/volume] in Blood"
            }
          ],
          "text": "Creatinine [Mass/volume] in Blood"
        },
        "valueQuantity": {
          "system": "http://unitsofmeasure.org",
          "value": 3.4,
          "unit": "mg/dL",
          "code": "mg/dL"
        },
        "referenceRange": [
          {
            "low": {
              "value": 0.6,
              "code": "mg/dL",
              "system": "http://unitsofmeasure.org"
            }
          },
          {
            "high": {
              "value": 1.1,
              "code": "mg/dL",
              "system": "http://unitsofmeasure.org"
            }
          }
        ],
        "interpretation": [
          {
            "coding": [
              {
                "code": "H",
                "system": "http://terminology.hl7.org/CodeSystem/v3-ObservationInterpretation",
                "display": "High"
              }
            ]
          }
        ],
        "text": {
          "status": "generated",
          "div": "<div xmlns=\"http://www.w3.org/1999/xhtml\"><table class=\"hl7__eu__lab__report\"><tr><th>Test</th><th>11-Aug-2015</th><th>Reference&#xA0;Range</th><th>Unit</th></tr><tr><td>Creatinine [Mass/volume] in Blood</td><td>3.4</td><td>0.6 - 1.1</td><td>H</td><td>mg/dL</td></tr></table></div>"
        },
        "status": "final",
        "subject": {
          "reference": "urn:uuid:71632625-4326-4313-8b82-222d259faf4b",
          "display": "Iva Kratochvílová"
        },
        "effectiveDateTime": "2015-08-11T11:56:29Z",
        "specimen": {
          "reference": "urn:uuid:7a315f75-5472-41dd-9633-855c599aeacc"
        }
      }
    },
    {
      "fullUrl": "urn:uuid:9da99c35-d8b7-47e5-9256-22d40a663741",
      "resource": {
        "resourceType": "Observation",
        "id": "9da99c35-d8b7-47e5-9256-22d40a663741",
        "meta": {
          "profile": [
            "http://hl7.eu/fhir/laboratory/StructureDefinition/Observation-resultslab-eu-lab"
          ]
        },
        "performer": [
          {
            "display": "The Central European Lab"
          }
        ],
        "category": [
          {
            "coding": [
              {
                "system": "http://terminology.hl7.org/CodeSystem/observation-category",
                "code": "laboratory"
              }
            ]
          }
        ],
        "code": {
          "coding": [
            {
              "code": "49765-1",
              "system": "http://loinc.org",
              "display": "Calcium [Mass/volume] in Blood"
            }
          ],
          "text": "Calcium [Mass/volume] in Blood"
        },
        "valueQuantity": {
          "system": "http://unitsofmeasure.org",
          "value": 8.8,
          "unit": "mg/dL",
          "code": "mg/dL"
        },
        "referenceRange": [
          {
            "low": {
              "value": 8.6,
              "code": "mg/dL",
              "system": "http://unitsofmeasure.org"
            }
          },
          {
            "high": {
              "value": 10.4,
              "code": "mg/dL",
              "system": "http://unitsofmeasure.org"
            }
          }
        ],
        "text": {
          "status": "generated",
          "div": "<div xmlns=\"http://www.w3.org/1999/xhtml\"><table class=\"hl7__eu__lab__report\"><tr><th>Test</th><th>11-Aug-2015</th><th>Reference&#xA0;Range</th><th>Unit</th></tr><tr><td>Calcium [Mass/volume] in Blood</td><td>8.8</td><td>8.6 - 10.4</td><td></td><td>mg/dL</td></tr></table></div>"
        },
        "status": "final",
        "subject": {
          "reference": "urn:uuid:71632625-4326-4313-8b82-222d259faf4b",
          "display": "Iva Kratochvílová"
        },
        "effectiveDateTime": "2015-08-11T11:56:29Z",
        "specimen": {
          "reference": "urn:uuid:7a315f75-5472-41dd-9633-855c599aeacc"
        }
      }
    },
    {
      "fullUrl": "urn:uuid:08cbb1e4-c86c-44af-877d-32fc6d33af35",
      "resource": {
        "resourceType": "Observation",
        "id": "08cbb1e4-c86c-44af-877d-32fc6d33af35",
        "meta": {
          "profile": [
            "http://hl7.eu/fhir/laboratory/StructureDefinition/Observation-resultslab-eu-lab"
          ]
        },
        "performer": [
          {
            "display": "The Central European Lab"
          }
        ],
        "category": [
          {
            "coding": [
              {
                "system": "http://terminology.hl7.org/CodeSystem/observation-category",
                "code": "laboratory"
              }
            ]
          }
        ],
        "code": {
          "coding": [
            {
              "code": "2947-0",
              "system": "http://loinc.org",
              "display": "Sodium [Moles/volume] in Blood"
            }
          ],
          "text": "Sodium [Moles/volume] in Blood"
        },
        "valueQuantity": {
          "system": "http://unitsofmeasure.org",
          "value": 137,
          "unit": "mmol/L",
          "code": "mmol/L"
        },
        "referenceRange": [
          {
            "low": {
              "value": 135,
              "code": "mmol/L",
              "system": "http://unitsofmeasure.org"
            }
          },
          {
            "high": {
              "value": 145,
              "code": "mmol/L",
              "system": "http://unitsofmeasure.org"
            }
          }
        ],
        "text": {
          "status": "generated",
          "div": "<div xmlns=\"http://www.w3.org/1999/xhtml\"><table class=\"hl7__eu__lab__report\"><tr><th>Test</th><th>11-Aug-2015</th><th>Reference&#xA0;Range</th><th>Unit</th></tr><tr><td>Sodium [Moles/volume] in Blood</td><td>137.0</td><td>135 - 145</td><td></td><td>mmol/L</td></tr></table></div>"
        },
        "status": "final",
        "subject": {
          "reference": "urn:uuid:71632625-4326-4313-8b82-222d259faf4b",
          "display": "Iva Kratochvílová"
        },
        "effectiveDateTime": "2015-08-11T11:56:29Z",
        "specimen": {
          "reference": "urn:uuid:7a315f75-5472-41dd-9633-855c599aeacc"
        }
      }
    },
    {
      "fullUrl": "urn:uuid:a0546755-1c74-4d4f-843b-d619498c66b4",
      "resource": {
        "resourceType": "Observation",
        "id": "a0546755-1c74-4d4f-843b-d619498c66b4",
        "meta": {
          "profile": [
            "http://hl7.eu/fhir/laboratory/StructureDefinition/Observation-resultslab-eu-lab"
          ]
        },
        "performer": [
          {
            "display": "The Central European Lab"
          }
        ],
        "category": [
          {
            "coding": [
              {
                "system": "http://terminology.hl7.org/CodeSystem/observation-category",
                "code": "laboratory"
              }
            ]
          }
        ],
        "code": {
          "coding": [
            {
              "code": "6298-4",
              "system": "http://loinc.org",
              "display": "Potassium [Moles/volume] in Blood"
            }
          ],
          "text": "Potassium [Moles/volume] in Blood"
        },
        "valueQuantity": {
          "system": "http://unitsofmeasure.org",
          "value": 3.9,
          "unit": "mmol/L",
          "code": "mmol/L"
        },
        "referenceRange": [
          {
            "low": {
              "value": 3.5,
              "code": "mmol/L",
              "system": "http://unitsofmeasure.org"
            }
          },
          {
            "high": {
              "value": 5.1,
              "code": "mmol/L",
              "system": "http://unitsofmeasure.org"
            }
          }
        ],
        "text": {
          "status": "generated",
          "div": "<div xmlns=\"http://www.w3.org/1999/xhtml\"><table class=\"hl7__eu__lab__report\"><tr><th>Test</th><th>11-Aug-2015</th><th>Reference&#xA0;Range</th><th>Unit</th></tr><tr><td>Potassium [Moles/volume] in Blood</td><td>3.9</td><td>3.5 - 5.1</td><td></td><td>mmol/L</td></tr></table></div>"
        },
        "status": "final",
        "subject": {
          "reference": "urn:uuid:71632625-4326-4313-8b82-222d259faf4b",
          "display": "Iva Kratochvílová"
        },
        "effectiveDateTime": "2015-08-11T11:56:29Z",
        "specimen": {
          "reference": "urn:uuid:7a315f75-5472-41dd-9633-855c599aeacc"
        }
      }
    },
    {
      "fullUrl": "urn:uuid:4e4521c8-41b3-4c6b-885c-ac709185afa9",
      "resource": {
        "resourceType": "Observation",
        "id": "4e4521c8-41b3-4c6b-885c-ac709185afa9",
        "meta": {
          "profile": [
            "http://hl7.eu/fhir/laboratory/StructureDefinition/Observation-resultslab-eu-lab"
          ]
        },
        "performer": [
          {
            "display": "The Central European Lab"
          }
        ],
        "category": [
          {
            "coding": [
              {
                "system": "http://terminology.hl7.org/CodeSystem/observation-category",
                "code": "laboratory"
              }
            ]
          }
        ],
        "code": {
          "coding": [
            {
              "code": "2069-3",
              "system": "http://loinc.org",
              "display": "Chloride [Moles/volume] in Blood"
            }
          ],
          "text": "Chloride [Moles/volume] in Blood"
        },
        "valueQuantity": {
          "system": "http://unitsofmeasure.org",
          "value": 104.7,
          "unit": "mmol/L",
          "code": "mmol/L"
        },
        "referenceRange": [
          {
            "low": {
              "value": 98,
              "code": "mmol/L",
              "system": "http://unitsofmeasure.org"
            }
          },
          {
            "high": {
              "value": 110,
              "code": "mmol/L",
              "system": "http://unitsofmeasure.org"
            }
          }
        ],
        "text": {
          "status": "generated",
          "div": "<div xmlns=\"http://www.w3.org/1999/xhtml\"><table class=\"hl7__eu__lab__report\"><tr><th>Test</th><th>11-Aug-2015</th><th>Reference&#xA0;Range</th><th>Unit</th></tr><tr><td>Chloride [Moles/volume] in Blood</td><td>104.7</td><td>98 - 110</td><td></td><td>mmol/L</td></tr></table></div>"
        },
        "status": "final",
        "subject": {
          "reference": "urn:uuid:71632625-4326-4313-8b82-222d259faf4b",
          "display": "Iva Kratochvílová"
        },
        "effectiveDateTime": "2015-08-11T11:56:29Z",
        "specimen": {
          "reference": "urn:uuid:7a315f75-5472-41dd-9633-855c599aeacc"
        }
      }
    },
    {
      "fullUrl": "urn:uuid:3249112c-153e-4641-b736-d460908844b6",
      "resource": {
        "resourceType": "Observation",
        "id": "3249112c-153e-4641-b736-d460908844b6",
        "meta": {
          "profile": [
            "http://hl7.eu/fhir/laboratory/StructureDefinition/Observation-resultslab-eu-lab"
          ]
        },
        "performer": [
          {
            "display": "The Central European Lab"
          }
        ],
        "category": [
          {
            "coding": [
              {
                "system": "http://terminology.hl7.org/CodeSystem/observation-category",
                "code": "laboratory"
              }
            ]
          }
        ],
        "code": {
          "coding": [
            {
              "code": "20565-8",
              "system": "http://loinc.org",
              "display": "Carbon dioxide, total [Moles/volume] in Blood"
            }
          ],
          "text": "Carbon dioxide, total [Moles/volume] in Blood"
        },
        "valueQuantity": {
          "system": "http://unitsofmeasure.org",
          "value": 28.2,
          "unit": "mmol/L",
          "code": "mmol/L"
        },
        "referenceRange": [
          {
            "low": {
              "value": 22,
              "code": "mmol/L",
              "system": "http://unitsofmeasure.org"
            }
          },
          {
            "high": {
              "value": 29,
              "code": "mmol/L",
              "system": "http://unitsofmeasure.org"
            }
          }
        ],
        "text": {
          "status": "generated",
          "div": "<div xmlns=\"http://www.w3.org/1999/xhtml\"><table class=\"hl7__eu__lab__report\"><tr><th>Test</th><th>11-Aug-2015</th><th>Reference&#xA0;Range</th><th>Unit</th></tr><tr><td>Carbon dioxide, total [Moles/volume] in Blood</td><td>28.2</td><td>22 - 29</td><td></td><td>mmol/L</td></tr></table></div>"
        },
        "status": "final",
        "subject": {
          "reference": "urn:uuid:71632625-4326-4313-8b82-222d259faf4b",
          "display": "Iva Kratochvílová"
        },
        "effectiveDateTime": "2015-08-11T11:56:29Z",
        "specimen": {
          "reference": "urn:uuid:7a315f75-5472-41dd-9633-855c599aeacc"
        }
      }
    },
    {
      "fullUrl": "urn:uuid:656a6739-61b3-4824-a641-1f242610557f",
      "resource": {
        "resourceType": "Observation",
        "id": "656a6739-61b3-4824-a641-1f242610557f",
        "meta": {
          "profile": [
            "http://hl7.eu/fhir/laboratory/StructureDefinition/Observation-resultslab-eu-lab"
          ]
        },
        "performer": [
          {
            "display": "The Central European Lab"
          }
        ],
        "category": [
          {
            "coding": [
              {
                "system": "http://terminology.hl7.org/CodeSystem/observation-category",
                "code": "laboratory"
              }
            ]
          }
        ],
        "code": {
          "coding": [
            {
              "code": "2885-2",
              "system": "http://loinc.org",
              "display": "Protein [Mass/volume] in Serum or Plasma"
            }
          ],
          "text": "Protein [Mass/volume] in Serum or Plasma"
        },
        "valueQuantity": {
          "system": "http://unitsofmeasure.org",
          "value": 6.1,
          "unit": "g/dL",
          "code": "g/dL"
        },
        "referenceRange": [
          {
            "low": {
              "value": 6.6,
              "code": "g/dL",
              "system": "http://unitsofmeasure.org"
            }
          },
          {
            "high": {
              "value": 8.3,
              "code": "g/dL",
              "system": "http://unitsofmeasure.org"
            }
          }
        ],
        "interpretation": [
          {
            "coding": [
              {
                "code": "L",
                "system": "http://terminology.hl7.org/CodeSystem/v3-ObservationInterpretation",
                "display": "Low"
              }
            ]
          }
        ],
        "text": {
          "status": "generated",
          "div": "<div xmlns=\"http://www.w3.org/1999/xhtml\"><table class=\"hl7__eu__lab__report\"><tr><th>Test</th><th>11-Aug-2015</th><th>Reference&#xA0;Range</th><th>Unit</th></tr><tr><td>Protein [Mass/volume] in Serum or Plasma</td><td>6.1</td><td>6.6 - 8.3</td><td>L</td><td>g/dL</td></tr></table></div>"
        },
        "status": "final",
        "subject": {
          "reference": "urn:uuid:71632625-4326-4313-8b82-222d259faf4b",
          "display": "Iva Kratochvílová"
        },
        "effectiveDateTime": "2015-08-11T11:56:29Z",
        "specimen": {
          "reference": "urn:uuid:55a8a3bb-2449-4eff-9759-69891e9a367c"
        }
      }
    },
    {
      "fullUrl": "urn:uuid:3814d724-f597-4f7c-9af1-4813a46dd23f",
      "resource": {
        "resourceType": "Observation",
        "id": "3814d724-f597-4f7c-9af1-4813a46dd23f",
        "meta": {
          "profile": [
            "http://hl7.eu/fhir/laboratory/StructureDefinition/Observation-resultslab-eu-lab"
          ]
        },
        "performer": [
          {
            "display": "The Central European Lab"
          }
        ],
        "category": [
          {
            "coding": [
              {
                "system": "http://terminology.hl7.org/CodeSystem/observation-category",
                "code": "laboratory"
              }
            ]
          }
        ],
        "code": {
          "coding": [
            {
              "code": "1751-7",
              "system": "http://loinc.org",
              "display": "Albumin [Mass/volume] in Serum or Plasma"
            }
          ],
          "text": "Albumin [Mass/volume] in Serum or Plasma"
        },
        "valueQuantity": {
          "system": "http://unitsofmeasure.org",
          "value": 3.8,
          "unit": "g/dL",
          "code": "g/dL"
        },
        "referenceRange": [
          {
            "low": {
              "value": 3.5,
              "code": "g/dL",
              "system": "http://unitsofmeasure.org"
            }
          },
          {
            "high": {
              "value": 5,
              "code": "g/dL",
              "system": "http://unitsofmeasure.org"
            }
          }
        ],
        "text": {
          "status": "generated",
          "div": "<div xmlns=\"http://www.w3.org/1999/xhtml\"><table class=\"hl7__eu__lab__report\"><tr><th>Test</th><th>11-Aug-2015</th><th>Reference&#xA0;Range</th><th>Unit</th></tr><tr><td>Albumin [Mass/volume] in Serum or Plasma</td><td>3.8</td><td>3.5 - 5</td><td></td><td>g/dL</td></tr></table></div>"
        },
        "status": "final",
        "subject": {
          "reference": "urn:uuid:71632625-4326-4313-8b82-222d259faf4b",
          "display": "Iva Kratochvílová"
        },
        "effectiveDateTime": "2015-08-11T11:56:29Z",
        "specimen": {
          "reference": "urn:uuid:55a8a3bb-2449-4eff-9759-69891e9a367c"
        }
      }
    },
    {
      "fullUrl": "urn:uuid:49220b5a-3ea2-4c3d-8367-811970e4110e",
      "resource": {
        "resourceType": "Observation",
        "id": "49220b5a-3ea2-4c3d-8367-811970e4110e",
        "meta": {
          "profile": [
            "http://hl7.eu/fhir/laboratory/StructureDefinition/Observation-resultslab-eu-lab"
          ]
        },
        "performer": [
          {
            "display": "The Central European Lab"
          }
        ],
        "category": [
          {
            "coding": [
              {
                "system": "http://terminology.hl7.org/CodeSystem/observation-category",
                "code": "laboratory"
              }
            ]
          }
        ],
        "code": {
          "coding": [
            {
              "code": "10834-0",
              "system": "http://loinc.org",
              "display": "Globulin [Mass/volume] in Serum by calculation"
            }
          ],
          "text": "Globulin [Mass/volume] in Serum by calculation"
        },
        "valueQuantity": {
          "system": "http://unitsofmeasure.org",
          "value": 2.1,
          "unit": "g/L",
          "code": "g/L"
        },
        "referenceRange": [
          {
            "low": {
              "value": 2,
              "code": "g/L",
              "system": "http://unitsofmeasure.org"
            }
          },
          {
            "high": {
              "value": 3.5,
              "code": "g/L",
              "system": "http://unitsofmeasure.org"
            }
          }
        ],
        "text": {
          "status": "generated",
          "div": "<div xmlns=\"http://www.w3.org/1999/xhtml\"><table class=\"hl7__eu__lab__report\"><tr><th>Test</th><th>11-Aug-2015</th><th>Reference&#xA0;Range</th><th>Unit</th></tr><tr><td>Globulin [Mass/volume] in Serum by calculation</td><td>2.1</td><td>2 - 3.5</td><td></td><td>g/L</td></tr></table></div>"
        },
        "status": "final",
        "subject": {
          "reference": "urn:uuid:71632625-4326-4313-8b82-222d259faf4b",
          "display": "Iva Kratochvílová"
        },
        "effectiveDateTime": "2015-08-11T11:56:29Z",
        "specimen": {
          "reference": "urn:uuid:bdf5530d-a520-45f6-89c3-ce9bc931ce72"
        }
      }
    },
    {
      "fullUrl": "urn:uuid:ab3cbecb-23c6-47e2-94ee-26b62224e4f2",
      "resource": {
        "resourceType": "Observation",
        "id": "ab3cbecb-23c6-47e2-94ee-26b62224e4f2",
        "meta": {
          "profile": [
            "http://hl7.eu/fhir/laboratory/StructureDefinition/Observation-resultslab-eu-lab"
          ]
        },
        "performer": [
          {
            "display": "The Central European Lab"
          }
        ],
        "category": [
          {
            "coding": [
              {
                "system": "http://terminology.hl7.org/CodeSystem/observation-category",
                "code": "laboratory"
              }
            ]
          }
        ],
        "code": {
          "coding": [
            {
              "code": "1975-2",
              "system": "http://loinc.org",
              "display": "Bilirubin.total [Mass/volume] in Serum or Plasma"
            }
          ],
          "text": "Bilirubin.total [Mass/volume] in Serum or Plasma"
        },
        "valueQuantity": {
          "system": "http://unitsofmeasure.org",
          "value": 1,
          "unit": "mg/dL",
          "code": "mg/dL"
        },
        "referenceRange": [
          {
            "low": {
              "value": 0.3,
              "code": "mg/dL",
              "system": "http://unitsofmeasure.org"
            }
          },
          {
            "high": {
              "value": 1.2,
              "code": "mg/dL",
              "system": "http://unitsofmeasure.org"
            }
          }
        ],
        "text": {
          "status": "generated",
          "div": "<div xmlns=\"http://www.w3.org/1999/xhtml\"><table class=\"hl7__eu__lab__report\"><tr><th>Test</th><th>11-Aug-2015</th><th>Reference&#xA0;Range</th><th>Unit</th></tr><tr><td>Bilirubin.total [Mass/volume] in Serum or Plasma</td><td>1.0</td><td>0.3 - 1.2</td><td></td><td>mg/dL</td></tr></table></div>"
        },
        "status": "final",
        "subject": {
          "reference": "urn:uuid:71632625-4326-4313-8b82-222d259faf4b",
          "display": "Iva Kratochvílová"
        },
        "effectiveDateTime": "2015-08-11T11:56:29Z",
        "specimen": {
          "reference": "urn:uuid:55a8a3bb-2449-4eff-9759-69891e9a367c"
        }
      }
    },
    {
      "fullUrl": "urn:uuid:090a5018-4510-48cd-b908-35a453b5fc19",
      "resource": {
        "resourceType": "Observation",
        "id": "090a5018-4510-48cd-b908-35a453b5fc19",
        "meta": {
          "profile": [
            "http://hl7.eu/fhir/laboratory/StructureDefinition/Observation-resultslab-eu-lab"
          ]
        },
        "performer": [
          {
            "display": "The Central European Lab"
          }
        ],
        "category": [
          {
            "coding": [
              {
                "system": "http://terminology.hl7.org/CodeSystem/observation-category",
                "code": "laboratory"
              }
            ]
          }
        ],
        "code": {
          "coding": [
            {
              "code": "6768-6",
              "system": "http://loinc.org",
              "display": "Alkaline phosphatase [Enzymatic activity/volume] in Serum or Plasma"
            }
          ],
          "text": "Alkaline phosphatase [Enzymatic activity/volume] in Serum or Plasma"
        },
        "valueQuantity": {
          "system": "http://unitsofmeasure.org",
          "value": 84.8,
          "unit": "U/L",
          "code": "U/L"
        },
        "referenceRange": [
          {
            "low": {
              "value": 39,
              "code": "U/L",
              "system": "http://unitsofmeasure.org"
            }
          },
          {
            "high": {
              "value": 141,
              "code": "U/L",
              "system": "http://unitsofmeasure.org"
            }
          }
        ],
        "text": {
          "status": "generated",
          "div": "<div xmlns=\"http://www.w3.org/1999/xhtml\"><table class=\"hl7__eu__lab__report\"><tr><th>Test</th><th>11-Aug-2015</th><th>Reference&#xA0;Range</th><th>Unit</th></tr><tr><td>Alkaline phosphatase [Enzymatic activity/volume] in Serum or Plasma</td><td>84.8</td><td>39 - 141</td><td></td><td>U/L</td></tr></table></div>"
        },
        "status": "final",
        "subject": {
          "reference": "urn:uuid:71632625-4326-4313-8b82-222d259faf4b",
          "display": "Iva Kratochvílová"
        },
        "effectiveDateTime": "2015-08-11T11:56:29Z",
        "specimen": {
          "reference": "urn:uuid:55a8a3bb-2449-4eff-9759-69891e9a367c"
        }
      }
    },
    {
      "fullUrl": "urn:uuid:d0b5b7d1-d980-4daa-9e74-7882a4e92093",
      "resource": {
        "resourceType": "Observation",
        "id": "d0b5b7d1-d980-4daa-9e74-7882a4e92093",
        "meta": {
          "profile": [
            "http://hl7.eu/fhir/laboratory/StructureDefinition/Observation-resultslab-eu-lab"
          ]
        },
        "performer": [
          {
            "display": "The Central European Lab"
          }
        ],
        "category": [
          {
            "coding": [
              {
                "system": "http://terminology.hl7.org/CodeSystem/observation-category",
                "code": "laboratory"
              }
            ]
          }
        ],
        "code": {
          "coding": [
            {
              "code": "1742-6",
              "system": "http://loinc.org",
              "display": "Alanine aminotransferase [Enzymatic activity/volume] in Serum or Plasma"
            }
          ],
          "text": "Alanine aminotransferase [Enzymatic activity/volume] in Serum or Plasma"
        },
        "valueQuantity": {
          "system": "http://unitsofmeasure.org",
          "value": 41.9,
          "unit": "U/L",
          "code": "U/L"
        },
        "referenceRange": [
          {
            "low": {
              "value": 7,
              "code": "U/L",
              "system": "http://unitsofmeasure.org"
            }
          },
          {
            "high": {
              "value": 40,
              "code": "U/L",
              "system": "http://unitsofmeasure.org"
            }
          }
        ],
        "interpretation": [
          {
            "coding": [
              {
                "code": "H",
                "system": "http://terminology.hl7.org/CodeSystem/v3-ObservationInterpretation",
                "display": "High"
              }
            ]
          }
        ],
        "text": {
          "status": "generated",
          "div": "<div xmlns=\"http://www.w3.org/1999/xhtml\"><table class=\"hl7__eu__lab__report\"><tr><th>Test</th><th>11-Aug-2015</th><th>Reference&#xA0;Range</th><th>Unit</th></tr><tr><td>Alanine aminotransferase [Enzymatic activity/volume] in Serum or Plasma</td><td>41.9</td><td>7 - 40</td><td>H</td><td>U/L</td></tr></table></div>"
        },
        "status": "final",
        "subject": {
          "reference": "urn:uuid:71632625-4326-4313-8b82-222d259faf4b",
          "display": "Iva Kratochvílová"
        },
        "effectiveDateTime": "2015-08-11T11:56:29Z",
        "specimen": {
          "reference": "urn:uuid:55a8a3bb-2449-4eff-9759-69891e9a367c"
        }
      }
    },
    {
      "fullUrl": "urn:uuid:4677bb2c-bc01-43d3-82e1-997d9fefb324",
      "resource": {
        "resourceType": "Observation",
        "id": "4677bb2c-bc01-43d3-82e1-997d9fefb324",
        "meta": {
          "profile": [
            "http://hl7.eu/fhir/laboratory/StructureDefinition/Observation-resultslab-eu-lab"
          ]
        },
        "performer": [
          {
            "display": "The Central European Lab"
          }
        ],
        "category": [
          {
            "coding": [
              {
                "system": "http://terminology.hl7.org/CodeSystem/observation-category",
                "code": "laboratory"
              }
            ]
          }
        ],
        "code": {
          "coding": [
            {
              "code": "1920-8",
              "system": "http://loinc.org",
              "display": "Aspartate aminotransferase [Enzymatic activity/volume] in Serum or Plasma"
            }
          ],
          "text": "Aspartate aminotransferase [Enzymatic activity/volume] in Serum or Plasma"
        },
        "valueQuantity": {
          "system": "http://unitsofmeasure.org",
          "value": 17.5,
          "unit": "U/L",
          "code": "U/L"
        },
        "referenceRange": [
          {
            "low": {
              "value": 10,
              "code": "U/L",
              "system": "http://unitsofmeasure.org"
            }
          },
          {
            "high": {
              "value": 32,
              "code": "U/L",
              "system": "http://unitsofmeasure.org"
            }
          }
        ],
        "text": {
          "status": "generated",
          "div": "<div xmlns=\"http://www.w3.org/1999/xhtml\"><table class=\"hl7__eu__lab__report\"><tr><th>Test</th><th>11-Aug-2015</th><th>Reference&#xA0;Range</th><th>Unit</th></tr><tr><td>Aspartate aminotransferase [Enzymatic activity/volume] in Serum or Plasma</td><td>17.5</td><td>10 - 32</td><td></td><td>U/L</td></tr></table></div>"
        },
        "status": "final",
        "subject": {
          "reference": "urn:uuid:71632625-4326-4313-8b82-222d259faf4b",
          "display": "Iva Kratochvílová"
        },
        "effectiveDateTime": "2015-08-11T11:56:29Z",
        "specimen": {
          "reference": "urn:uuid:55a8a3bb-2449-4eff-9759-69891e9a367c"
        }
      }
    },
    {
      "fullUrl": "urn:uuid:002468cf-883d-4287-a7a1-0f5d1441717f",
      "resource": {
        "resourceType": "Observation",
        "id": "002468cf-883d-4287-a7a1-0f5d1441717f",
        "meta": {
          "profile": [
            "http://hl7.eu/fhir/laboratory/StructureDefinition/Observation-resultslab-eu-lab"
          ]
        },
        "performer": [
          {
            "display": "The Central European Lab"
          }
        ],
        "category": [
          {
            "coding": [
              {
                "system": "http://terminology.hl7.org/CodeSystem/observation-category",
                "code": "laboratory"
              }
            ]
          }
        ],
        "code": {
          "coding": [
            {
              "code": "5767-9",
              "system": "http://loinc.org",
              "display": "Appearance of Urine"
            }
          ],
          "text": "Appearance of Urine"
        },
        "text": {
          "status": "generated",
          "div": "<div xmlns=\"http://www.w3.org/1999/xhtml\"><table class=\"hl7__eu__lab__report\"><tr><th>Test</th><th>11-Aug-2015</th><th>Reference&#xA0;Range</th><th>Unit</th></tr><tr><td>Appearance of Urine</td></tr></table></div>"
        },
        "status": "final",
        "subject": {
          "reference": "urn:uuid:71632625-4326-4313-8b82-222d259faf4b",
          "display": "Iva Kratochvílová"
        },
        "effectiveDateTime": "2015-08-11T11:56:29Z",
        "specimen": {
          "reference": "urn:uuid:d31562ec-60be-4c51-b08b-119366380f94"
        }
      }
    },
    {
      "fullUrl": "urn:uuid:c59fa4b8-58ec-4a0f-8877-f5350d1b2396",
      "resource": {
        "resourceType": "Observation",
        "id": "c59fa4b8-58ec-4a0f-8877-f5350d1b2396",
        "meta": {
          "profile": [
            "http://hl7.eu/fhir/laboratory/StructureDefinition/Observation-resultslab-eu-lab"
          ]
        },
        "performer": [
          {
            "display": "The Central European Lab"
          }
        ],
        "category": [
          {
            "coding": [
              {
                "system": "http://terminology.hl7.org/CodeSystem/observation-category",
                "code": "laboratory"
              }
            ]
          }
        ],
        "code": {
          "coding": [
            {
              "code": "34533-0",
              "system": "http://loinc.org",
              "display": "Odor of Urine"
            }
          ],
          "text": "Odor of Urine"
        },
        "text": {
          "status": "generated",
          "div": "<div xmlns=\"http://www.w3.org/1999/xhtml\"><table class=\"hl7__eu__lab__report\"><tr><th>Test</th><th>11-Aug-2015</th><th>Reference&#xA0;Range</th><th>Unit</th></tr><tr><td>Odor of Urine</td></tr></table></div>"
        },
        "status": "final",
        "subject": {
          "reference": "urn:uuid:71632625-4326-4313-8b82-222d259faf4b",
          "display": "Iva Kratochvílová"
        },
        "effectiveDateTime": "2015-08-11T11:56:29Z",
        "specimen": {
          "reference": "urn:uuid:d31562ec-60be-4c51-b08b-119366380f94"
        }
      }
    },
    {
      "fullUrl": "urn:uuid:838cdee6-4e50-4759-b60e-def021047e1a",
      "resource": {
        "resourceType": "Observation",
        "id": "838cdee6-4e50-4759-b60e-def021047e1a",
        "meta": {
          "profile": [
            "http://hl7.eu/fhir/laboratory/StructureDefinition/Observation-resultslab-eu-lab"
          ]
        },
        "performer": [
          {
            "display": "The Central European Lab"
          }
        ],
        "category": [
          {
            "coding": [
              {
                "system": "http://terminology.hl7.org/CodeSystem/observation-category",
                "code": "laboratory"
              }
            ]
          }
        ],
        "code": {
          "coding": [
            {
              "code": "32167-9",
              "system": "http://loinc.org",
              "display": "Clarity of Urine"
            }
          ],
          "text": "Clarity of Urine"
        },
        "text": {
          "status": "generated",
          "div": "<div xmlns=\"http://www.w3.org/1999/xhtml\"><table class=\"hl7__eu__lab__report\"><tr><th>Test</th><th>11-Aug-2015</th><th>Reference&#xA0;Range</th><th>Unit</th></tr><tr><td>Clarity of Urine</td></tr></table></div>"
        },
        "status": "final",
        "subject": {
          "reference": "urn:uuid:71632625-4326-4313-8b82-222d259faf4b",
          "display": "Iva Kratochvílová"
        },
        "effectiveDateTime": "2015-08-11T11:56:29Z",
        "specimen": {
          "reference": "urn:uuid:d31562ec-60be-4c51-b08b-119366380f94"
        }
      }
    },
    {
      "fullUrl": "urn:uuid:6f6b68bf-1d23-4e72-a659-3e79995a9b6f",
      "resource": {
        "resourceType": "Observation",
        "id": "6f6b68bf-1d23-4e72-a659-3e79995a9b6f",
        "meta": {
          "profile": [
            "http://hl7.eu/fhir/laboratory/StructureDefinition/Observation-resultslab-eu-lab"
          ]
        },
        "performer": [
          {
            "display": "The Central European Lab"
          }
        ],
        "category": [
          {
            "coding": [
              {
                "system": "http://terminology.hl7.org/CodeSystem/observation-category",
                "code": "laboratory"
              }
            ]
          }
        ],
        "code": {
          "coding": [
            {
              "code": "5778-6",
              "system": "http://loinc.org",
              "display": "Color of Urine"
            }
          ],
          "text": "Color of Urine"
        },
        "text": {
          "status": "generated",
          "div": "<div xmlns=\"http://www.w3.org/1999/xhtml\"><table class=\"hl7__eu__lab__report\"><tr><th>Test</th><th>11-Aug-2015</th><th>Reference&#xA0;Range</th><th>Unit</th></tr><tr><td>Color of Urine</td></tr></table></div>"
        },
        "status": "final",
        "subject": {
          "reference": "urn:uuid:71632625-4326-4313-8b82-222d259faf4b",
          "display": "Iva Kratochvílová"
        },
        "effectiveDateTime": "2015-08-11T11:56:29Z",
        "specimen": {
          "reference": "urn:uuid:d31562ec-60be-4c51-b08b-119366380f94"
        }
      }
    },
    {
      "fullUrl": "urn:uuid:4cb67bec-4f46-42dd-aa7d-b3c6dc49aaef",
      "resource": {
        "resourceType": "Observation",
        "id": "4cb67bec-4f46-42dd-aa7d-b3c6dc49aaef",
        "meta": {
          "profile": [
            "http://hl7.eu/fhir/laboratory/StructureDefinition/Observation-resultslab-eu-lab"
          ]
        },
        "performer": [
          {
            "display": "The Central European Lab"
          }
        ],
        "category": [
          {
            "coding": [
              {
                "system": "http://terminology.hl7.org/CodeSystem/observation-category",
                "code": "laboratory"
              }
            ]
          }
        ],
        "code": {
          "coding": [
            {
              "code": "5792-7",
              "system": "http://loinc.org",
              "display": "Glucose [Mass/volume] in Urine by Test strip"
            }
          ],
          "text": "Glucose [Mass/volume] in Urine by Test strip"
        },
        "valueQuantity": {
          "system": "http://unitsofmeasure.org",
          "value": 0.8,
          "unit": "mg/dL",
          "code": "mg/dL"
        },
        "referenceRange": [
          {
            "low": {
              "value": 0,
              "code": "mg/dL",
              "system": "http://unitsofmeasure.org"
            }
          },
          {
            "high": {
              "value": 0.8,
              "code": "mg/dL",
              "system": "http://unitsofmeasure.org"
            }
          }
        ],
        "text": {
          "status": "generated",
          "div": "<div xmlns=\"http://www.w3.org/1999/xhtml\"><table class=\"hl7__eu__lab__report\"><tr><th>Test</th><th>11-Aug-2015</th><th>Reference&#xA0;Range</th><th>Unit</th></tr><tr><td>Glucose [Mass/volume] in Urine by Test strip</td><td>0.8</td><td>0 - 0.8</td><td></td><td>mg/dL</td></tr></table></div>"
        },
        "status": "final",
        "subject": {
          "reference": "urn:uuid:71632625-4326-4313-8b82-222d259faf4b",
          "display": "Iva Kratochvílová"
        },
        "effectiveDateTime": "2015-08-11T11:56:29Z",
        "specimen": {
          "reference": "urn:uuid:d31562ec-60be-4c51-b08b-119366380f94"
        }
      }
    },
    {
      "fullUrl": "urn:uuid:6a6f41cc-c8e5-4f3b-b3da-cebab18af4dd",
      "resource": {
        "resourceType": "Observation",
        "id": "6a6f41cc-c8e5-4f3b-b3da-cebab18af4dd",
        "meta": {
          "profile": [
            "http://hl7.eu/fhir/laboratory/StructureDefinition/Observation-resultslab-eu-lab"
          ]
        },
        "performer": [
          {
            "display": "The Central European Lab"
          }
        ],
        "category": [
          {
            "coding": [
              {
                "system": "http://terminology.hl7.org/CodeSystem/observation-category",
                "code": "laboratory"
              }
            ]
          }
        ],
        "code": {
          "coding": [
            {
              "code": "25428-4",
              "system": "http://loinc.org",
              "display": "Glucose [Presence] in Urine by Test strip"
            }
          ],
          "text": "Glucose [Presence] in Urine by Test strip"
        },
        "text": {
          "status": "generated",
          "div": "<div xmlns=\"http://www.w3.org/1999/xhtml\"><table class=\"hl7__eu__lab__report\"><tr><th>Test</th><th>11-Aug-2015</th><th>Reference&#xA0;Range</th><th>Unit</th></tr><tr><td>Glucose [Presence] in Urine by Test strip</td></tr></table></div>"
        },
        "status": "final",
        "subject": {
          "reference": "urn:uuid:71632625-4326-4313-8b82-222d259faf4b",
          "display": "Iva Kratochvílová"
        },
        "effectiveDateTime": "2015-08-11T11:56:29Z",
        "specimen": {
          "reference": "urn:uuid:d31562ec-60be-4c51-b08b-119366380f94"
        }
      }
    },
    {
      "fullUrl": "urn:uuid:4cc25828-2f79-4bcd-bfa6-42db40aa8988",
      "resource": {
        "resourceType": "Observation",
        "id": "4cc25828-2f79-4bcd-bfa6-42db40aa8988",
        "meta": {
          "profile": [
            "http://hl7.eu/fhir/laboratory/StructureDefinition/Observation-resultslab-eu-lab"
          ]
        },
        "performer": [
          {
            "display": "The Central European Lab"
          }
        ],
        "category": [
          {
            "coding": [
              {
                "system": "http://terminology.hl7.org/CodeSystem/observation-category",
                "code": "laboratory"
              }
            ]
          }
        ],
        "code": {
          "coding": [
            {
              "code": "20505-4",
              "system": "http://loinc.org",
              "display": "Bilirubin.total [Mass/volume] in Urine by Test strip"
            }
          ],
          "text": "Bilirubin.total [Mass/volume] in Urine by Test strip"
        },
        "valueQuantity": {
          "system": "http://unitsofmeasure.org",
          "value": 0.6,
          "unit": "mg/dL",
          "code": "mg/dL"
        },
        "referenceRange": [
          {
            "low": {
              "value": 0,
              "code": "mg/dL",
              "system": "http://unitsofmeasure.org"
            }
          },
          {
            "high": {
              "value": 1,
              "code": "mg/dL",
              "system": "http://unitsofmeasure.org"
            }
          }
        ],
        "text": {
          "status": "generated",
          "div": "<div xmlns=\"http://www.w3.org/1999/xhtml\"><table class=\"hl7__eu__lab__report\"><tr><th>Test</th><th>11-Aug-2015</th><th>Reference&#xA0;Range</th><th>Unit</th></tr><tr><td>Bilirubin.total [Mass/volume] in Urine by Test strip</td><td>0.6</td><td>0 - 1</td><td></td><td>mg/dL</td></tr></table></div>"
        },
        "status": "final",
        "subject": {
          "reference": "urn:uuid:71632625-4326-4313-8b82-222d259faf4b",
          "display": "Iva Kratochvílová"
        },
        "effectiveDateTime": "2015-08-11T11:56:29Z",
        "specimen": {
          "reference": "urn:uuid:d31562ec-60be-4c51-b08b-119366380f94"
        }
      }
    },
    {
      "fullUrl": "urn:uuid:9053bdcb-8c85-4c10-ad78-0639356ac267",
      "resource": {
        "resourceType": "Observation",
        "id": "9053bdcb-8c85-4c10-ad78-0639356ac267",
        "meta": {
          "profile": [
            "http://hl7.eu/fhir/laboratory/StructureDefinition/Observation-resultslab-eu-lab"
          ]
        },
        "performer": [
          {
            "display": "The Central European Lab"
          }
        ],
        "category": [
          {
            "coding": [
              {
                "system": "http://terminology.hl7.org/CodeSystem/observation-category",
                "code": "laboratory"
              }
            ]
          }
        ],
        "code": {
          "coding": [
            {
              "code": "5770-3",
              "system": "http://loinc.org",
              "display": "Bilirubin.total [Presence] in Urine by Test strip"
            }
          ],
          "text": "Bilirubin.total [Presence] in Urine by Test strip"
        },
        "text": {
          "status": "generated",
          "div": "<div xmlns=\"http://www.w3.org/1999/xhtml\"><table class=\"hl7__eu__lab__report\"><tr><th>Test</th><th>11-Aug-2015</th><th>Reference&#xA0;Range</th><th>Unit</th></tr><tr><td>Bilirubin.total [Presence] in Urine by Test strip</td></tr></table></div>"
        },
        "status": "final",
        "subject": {
          "reference": "urn:uuid:71632625-4326-4313-8b82-222d259faf4b",
          "display": "Iva Kratochvílová"
        },
        "effectiveDateTime": "2015-08-11T11:56:29Z",
        "specimen": {
          "reference": "urn:uuid:d31562ec-60be-4c51-b08b-119366380f94"
        }
      }
    },
    {
      "fullUrl": "urn:uuid:be1a8735-b1a8-43ee-966d-8d949583fc7e",
      "resource": {
        "resourceType": "Observation",
        "id": "be1a8735-b1a8-43ee-966d-8d949583fc7e",
        "meta": {
          "profile": [
            "http://hl7.eu/fhir/laboratory/StructureDefinition/Observation-resultslab-eu-lab"
          ]
        },
        "performer": [
          {
            "display": "The Central European Lab"
          }
        ],
        "category": [
          {
            "coding": [
              {
                "system": "http://terminology.hl7.org/CodeSystem/observation-category",
                "code": "laboratory"
              }
            ]
          }
        ],
        "code": {
          "coding": [
            {
              "code": "5797-6",
              "system": "http://loinc.org",
              "display": "Ketones [Mass/volume] in Urine by Test strip"
            }
          ],
          "text": "Ketones [Mass/volume] in Urine by Test strip"
        },
        "valueQuantity": {
          "system": "http://unitsofmeasure.org",
          "value": 3.5,
          "unit": "mg/dL",
          "code": "mg/dL"
        },
        "referenceRange": [
          {
            "low": {
              "value": 0,
              "code": "mg/dL",
              "system": "http://unitsofmeasure.org"
            }
          },
          {
            "high": {
              "value": 4,
              "code": "mg/dL",
              "system": "http://unitsofmeasure.org"
            }
          }
        ],
        "text": {
          "status": "generated",
          "div": "<div xmlns=\"http://www.w3.org/1999/xhtml\"><table class=\"hl7__eu__lab__report\"><tr><th>Test</th><th>11-Aug-2015</th><th>Reference&#xA0;Range</th><th>Unit</th></tr><tr><td>Ketones [Mass/volume] in Urine by Test strip</td><td>3.5</td><td>0 - 4</td><td></td><td>mg/dL</td></tr></table></div>"
        },
        "status": "final",
        "subject": {
          "reference": "urn:uuid:71632625-4326-4313-8b82-222d259faf4b",
          "display": "Iva Kratochvílová"
        },
        "effectiveDateTime": "2015-08-11T11:56:29Z",
        "specimen": {
          "reference": "urn:uuid:d31562ec-60be-4c51-b08b-119366380f94"
        }
      }
    },
    {
      "fullUrl": "urn:uuid:43a49a79-51df-4c4b-a3a0-c27017977337",
      "resource": {
        "resourceType": "Observation",
        "id": "43a49a79-51df-4c4b-a3a0-c27017977337",
        "meta": {
          "profile": [
            "http://hl7.eu/fhir/laboratory/StructureDefinition/Observation-resultslab-eu-lab"
          ]
        },
        "performer": [
          {
            "display": "The Central European Lab"
          }
        ],
        "category": [
          {
            "coding": [
              {
                "system": "http://terminology.hl7.org/CodeSystem/observation-category",
                "code": "laboratory"
              }
            ]
          }
        ],
        "code": {
          "coding": [
            {
              "code": "2514-8",
              "system": "http://loinc.org",
              "display": "Ketones [Presence] in Urine by Test strip"
            }
          ],
          "text": "Ketones [Presence] in Urine by Test strip"
        },
        "text": {
          "status": "generated",
          "div": "<div xmlns=\"http://www.w3.org/1999/xhtml\"><table class=\"hl7__eu__lab__report\"><tr><th>Test</th><th>11-Aug-2015</th><th>Reference&#xA0;Range</th><th>Unit</th></tr><tr><td>Ketones [Presence] in Urine by Test strip</td></tr></table></div>"
        },
        "status": "final",
        "subject": {
          "reference": "urn:uuid:71632625-4326-4313-8b82-222d259faf4b",
          "display": "Iva Kratochvílová"
        },
        "effectiveDateTime": "2015-08-11T11:56:29Z",
        "specimen": {
          "reference": "urn:uuid:d31562ec-60be-4c51-b08b-119366380f94"
        }
      }
    },
    {
      "fullUrl": "urn:uuid:ccf21fdc-d00a-4d7c-8cab-4ea738002f8e",
      "resource": {
        "resourceType": "Observation",
        "id": "ccf21fdc-d00a-4d7c-8cab-4ea738002f8e",
        "meta": {
          "profile": [
            "http://hl7.eu/fhir/laboratory/StructureDefinition/Observation-resultslab-eu-lab"
          ]
        },
        "performer": [
          {
            "display": "The Central European Lab"
          }
        ],
        "category": [
          {
            "coding": [
              {
                "system": "http://terminology.hl7.org/CodeSystem/observation-category",
                "code": "laboratory"
              }
            ]
          }
        ],
        "code": {
          "coding": [
            {
              "code": "5811-5",
              "system": "http://loinc.org",
              "display": "Specific gravity of Urine by Test strip"
            }
          ],
          "text": "Specific gravity of Urine by Test strip"
        },
        "valueQuantity": {
          "system": "http://unitsofmeasure.org",
          "value": 1,
          "unit": "{nominal}",
          "code": "{nominal}"
        },
        "referenceRange": [
          {
            "low": {
              "value": 1.005,
              "code": "g/mL",
              "system": "http://unitsofmeasure.org"
            }
          },
          {
            "high": {
              "value": 1.03,
              "code": "g/mL",
              "system": "http://unitsofmeasure.org"
            }
          }
        ],
        "interpretation": [
          {
            "coding": [
              {
                "code": "L",
                "system": "http://terminology.hl7.org/CodeSystem/v3-ObservationInterpretation",
                "display": "Low"
              }
            ]
          }
        ],
        "text": {
          "status": "generated",
          "div": "<div xmlns=\"http://www.w3.org/1999/xhtml\"><table class=\"hl7__eu__lab__report\"><tr><th>Test</th><th>11-Aug-2015</th><th>Reference&#xA0;Range</th><th>Unit</th></tr><tr><td>Specific gravity of Urine by Test strip</td><td>1.0</td><td>1.005 - 1.03</td><td>L</td><td>{nominal}</td></tr></table></div>"
        },
        "status": "final",
        "subject": {
          "reference": "urn:uuid:71632625-4326-4313-8b82-222d259faf4b",
          "display": "Iva Kratochvílová"
        },
        "effectiveDateTime": "2015-08-11T11:56:29Z",
        "specimen": {
          "reference": "urn:uuid:d31562ec-60be-4c51-b08b-119366380f94"
        }
      }
    },
    {
      "fullUrl": "urn:uuid:e6bf6828-38f2-4fb9-910b-50c7a79c2892",
      "resource": {
        "resourceType": "Observation",
        "id": "e6bf6828-38f2-4fb9-910b-50c7a79c2892",
        "meta": {
          "profile": [
            "http://hl7.eu/fhir/laboratory/StructureDefinition/Observation-resultslab-eu-lab"
          ]
        },
        "performer": [
          {
            "display": "The Central European Lab"
          }
        ],
        "category": [
          {
            "coding": [
              {
                "system": "http://terminology.hl7.org/CodeSystem/observation-category",
                "code": "laboratory"
              }
            ]
          }
        ],
        "code": {
          "coding": [
            {
              "code": "5803-2",
              "system": "http://loinc.org",
              "display": "pH of Urine by Test strip"
            }
          ],
          "text": "pH of Urine by Test strip"
        },
        "valueQuantity": {
          "system": "http://unitsofmeasure.org",
          "value": 6,
          "unit": "pH",
          "code": "pH"
        },
        "referenceRange": [
          {
            "low": {
              "value": 4.5,
              "code": "pH",
              "system": "http://unitsofmeasure.org"
            }
          },
          {
            "high": {
              "value": 7,
              "code": "pH",
              "system": "http://unitsofmeasure.org"
            }
          }
        ],
        "text": {
          "status": "generated",
          "div": "<div xmlns=\"http://www.w3.org/1999/xhtml\"><table class=\"hl7__eu__lab__report\"><tr><th>Test</th><th>11-Aug-2015</th><th>Reference&#xA0;Range</th><th>Unit</th></tr><tr><td>pH of Urine by Test strip</td><td>6.0</td><td>4.5 - 7</td><td></td><td>pH</td></tr></table></div>"
        },
        "status": "final",
        "subject": {
          "reference": "urn:uuid:71632625-4326-4313-8b82-222d259faf4b",
          "display": "Iva Kratochvílová"
        },
        "effectiveDateTime": "2015-08-11T11:56:29Z",
        "specimen": {
          "reference": "urn:uuid:d31562ec-60be-4c51-b08b-119366380f94"
        }
      }
    },
    {
      "fullUrl": "urn:uuid:dfeb0498-d096-4593-be14-9976e72ef42c",
      "resource": {
        "resourceType": "Observation",
        "id": "dfeb0498-d096-4593-be14-9976e72ef42c",
        "meta": {
          "profile": [
            "http://hl7.eu/fhir/laboratory/StructureDefinition/Observation-resultslab-eu-lab"
          ]
        },
        "performer": [
          {
            "display": "The Central European Lab"
          }
        ],
        "category": [
          {
            "coding": [
              {
                "system": "http://terminology.hl7.org/CodeSystem/observation-category",
                "code": "laboratory"
              }
            ]
          }
        ],
        "code": {
          "coding": [
            {
              "code": "5804-0",
              "system": "http://loinc.org",
              "display": "Protein [Mass/volume] in Urine by Test strip"
            }
          ],
          "text": "Protein [Mass/volume] in Urine by Test strip"
        },
        "valueQuantity": {
          "system": "http://unitsofmeasure.org",
          "value": 300.6,
          "unit": "mg/dL",
          "code": "mg/dL"
        },
        "referenceRange": [
          {
            "low": {
              "value": 0,
              "code": "mg/dL",
              "system": "http://unitsofmeasure.org"
            }
          },
          {
            "high": {
              "value": 145,
              "code": "mg/dL",
              "system": "http://unitsofmeasure.org"
            }
          }
        ],
        "interpretation": [
          {
            "coding": [
              {
                "code": "H",
                "system": "http://terminology.hl7.org/CodeSystem/v3-ObservationInterpretation",
                "display": "High"
              }
            ]
          }
        ],
        "text": {
          "status": "generated",
          "div": "<div xmlns=\"http://www.w3.org/1999/xhtml\"><table class=\"hl7__eu__lab__report\"><tr><th>Test</th><th>11-Aug-2015</th><th>Reference&#xA0;Range</th><th>Unit</th></tr><tr><td>Protein [Mass/volume] in Urine by Test strip</td><td>300.6</td><td>0 - 145</td><td>H</td><td>mg/dL</td></tr></table></div>"
        },
        "status": "final",
        "subject": {
          "reference": "urn:uuid:71632625-4326-4313-8b82-222d259faf4b",
          "display": "Iva Kratochvílová"
        },
        "effectiveDateTime": "2015-08-11T11:56:29Z",
        "specimen": {
          "reference": "urn:uuid:d31562ec-60be-4c51-b08b-119366380f94"
        }
      }
    },
    {
      "fullUrl": "urn:uuid:78b08322-d35c-4c9d-9aeb-59ce83134498",
      "resource": {
        "resourceType": "Observation",
        "id": "78b08322-d35c-4c9d-9aeb-59ce83134498",
        "meta": {
          "profile": [
            "http://hl7.eu/fhir/laboratory/StructureDefinition/Observation-resultslab-eu-lab"
          ]
        },
        "performer": [
          {
            "display": "The Central European Lab"
          }
        ],
        "category": [
          {
            "coding": [
              {
                "system": "http://terminology.hl7.org/CodeSystem/observation-category",
                "code": "laboratory"
              }
            ]
          }
        ],
        "code": {
          "coding": [
            {
              "code": "20454-5",
              "system": "http://loinc.org",
              "display": "Protein [Presence] in Urine by Test strip"
            }
          ],
          "text": "Protein [Presence] in Urine by Test strip"
        },
        "text": {
          "status": "generated",
          "div": "<div xmlns=\"http://www.w3.org/1999/xhtml\"><table class=\"hl7__eu__lab__report\"><tr><th>Test</th><th>11-Aug-2015</th><th>Reference&#xA0;Range</th><th>Unit</th></tr><tr><td>Protein [Presence] in Urine by Test strip</td></tr></table></div>"
        },
        "status": "final",
        "subject": {
          "reference": "urn:uuid:71632625-4326-4313-8b82-222d259faf4b",
          "display": "Iva Kratochvílová"
        },
        "effectiveDateTime": "2015-08-11T11:56:29Z",
        "specimen": {
          "reference": "urn:uuid:d31562ec-60be-4c51-b08b-119366380f94"
        }
      }
    },
    {
      "fullUrl": "urn:uuid:60852d5b-dfec-4019-bf88-66ef0b7db0b7",
      "resource": {
        "resourceType": "Observation",
        "id": "60852d5b-dfec-4019-bf88-66ef0b7db0b7",
        "meta": {
          "profile": [
            "http://hl7.eu/fhir/laboratory/StructureDefinition/Observation-resultslab-eu-lab"
          ]
        },
        "performer": [
          {
            "display": "The Central European Lab"
          }
        ],
        "category": [
          {
            "coding": [
              {
                "system": "http://terminology.hl7.org/CodeSystem/observation-category",
                "code": "laboratory"
              }
            ]
          }
        ],
        "code": {
          "coding": [
            {
              "code": "5802-4",
              "system": "http://loinc.org",
              "display": "Nitrite [Presence] in Urine by Test strip"
            }
          ],
          "text": "Nitrite [Presence] in Urine by Test strip"
        },
        "text": {
          "status": "generated",
          "div": "<div xmlns=\"http://www.w3.org/1999/xhtml\"><table class=\"hl7__eu__lab__report\"><tr><th>Test</th><th>11-Aug-2015</th><th>Reference&#xA0;Range</th><th>Unit</th></tr><tr><td>Nitrite [Presence] in Urine by Test strip</td></tr></table></div>"
        },
        "status": "final",
        "subject": {
          "reference": "urn:uuid:71632625-4326-4313-8b82-222d259faf4b",
          "display": "Iva Kratochvílová"
        },
        "effectiveDateTime": "2015-08-11T11:56:29Z",
        "specimen": {
          "reference": "urn:uuid:d31562ec-60be-4c51-b08b-119366380f94"
        }
      }
    },
    {
      "fullUrl": "urn:uuid:77603324-a23b-4c7e-ba46-27eb50073ff8",
      "resource": {
        "resourceType": "Observation",
        "id": "77603324-a23b-4c7e-ba46-27eb50073ff8",
        "meta": {
          "profile": [
            "http://hl7.eu/fhir/laboratory/StructureDefinition/Observation-resultslab-eu-lab"
          ]
        },
        "performer": [
          {
            "display": "The Central European Lab"
          }
        ],
        "category": [
          {
            "coding": [
              {
                "system": "http://terminology.hl7.org/CodeSystem/observation-category",
                "code": "laboratory"
              }
            ]
          }
        ],
        "code": {
          "coding": [
            {
              "code": "5794-3",
              "system": "http://loinc.org",
              "display": "Hemoglobin [Presence] in Urine by Test strip"
            }
          ],
          "text": "Hemoglobin [Presence] in Urine by Test strip"
        },
        "text": {
          "status": "generated",
          "div": "<div xmlns=\"http://www.w3.org/1999/xhtml\"><table class=\"hl7__eu__lab__report\"><tr><th>Test</th><th>11-Aug-2015</th><th>Reference&#xA0;Range</th><th>Unit</th></tr><tr><td>Hemoglobin [Presence] in Urine by Test strip</td></tr></table></div>"
        },
        "status": "final",
        "subject": {
          "reference": "urn:uuid:71632625-4326-4313-8b82-222d259faf4b",
          "display": "Iva Kratochvílová"
        },
        "effectiveDateTime": "2015-08-11T11:56:29Z",
        "specimen": {
          "reference": "urn:uuid:d31562ec-60be-4c51-b08b-119366380f94"
        }
      }
    },
    {
      "fullUrl": "urn:uuid:8ca76d2e-9f0d-4c74-8d73-3d9b4dd4418a",
      "resource": {
        "resourceType": "Observation",
        "id": "8ca76d2e-9f0d-4c74-8d73-3d9b4dd4418a",
        "meta": {
          "profile": [
            "http://hl7.eu/fhir/laboratory/StructureDefinition/Observation-resultslab-eu-lab"
          ]
        },
        "performer": [
          {
            "display": "The Central European Lab"
          }
        ],
        "category": [
          {
            "coding": [
              {
                "system": "http://terminology.hl7.org/CodeSystem/observation-category",
                "code": "laboratory"
              }
            ]
          }
        ],
        "code": {
          "coding": [
            {
              "code": "5799-2",
              "system": "http://loinc.org",
              "display": "Leukocyte esterase [Presence] in Urine by Test strip"
            }
          ],
          "text": "Leukocyte esterase [Presence] in Urine by Test strip"
        },
        "text": {
          "status": "generated",
          "div": "<div xmlns=\"http://www.w3.org/1999/xhtml\"><table class=\"hl7__eu__lab__report\"><tr><th>Test</th><th>11-Aug-2015</th><th>Reference&#xA0;Range</th><th>Unit</th></tr><tr><td>Leukocyte esterase [Presence] in Urine by Test strip</td></tr></table></div>"
        },
        "status": "final",
        "subject": {
          "reference": "urn:uuid:71632625-4326-4313-8b82-222d259faf4b",
          "display": "Iva Kratochvílová"
        },
        "effectiveDateTime": "2015-08-11T11:56:29Z",
        "specimen": {
          "reference": "urn:uuid:d31562ec-60be-4c51-b08b-119366380f94"
        }
      }
    },
    {
      "fullUrl": "urn:uuid:a4596571-ce5e-40d9-ad16-b7d97090014e",
      "resource": {
        "resourceType": "Device",
        "id": "a4596571-ce5e-40d9-ad16-b7d97090014e",
        "deviceName": [
          {
            "name": "SYNDERAI Synthetic Generator",
            "type": "manufacturer-name"
          }
        ],
        "version": [
          {
            "value": "5.0"
          }
        ],
        "text": {
          "status": "generated",
          "div": "<div xmlns=\"http://www.w3.org/1999/xhtml\">SYNDERAI Synthetic Generator v5.0</div>"
        },
        "status": "active\"",
        "distinctIdentifier": "synderai-generator-50",
        "manufacturer": "SYNDERAI Project"
      }
    },
    {
      "fullUrl": "urn:uuid:8d2d1c00-7026-4d4c-8420-5ee9d95c2058",
      "resource": {
        "resourceType": "Provenance",
        "id": "8d2d1c00-7026-4d4c-8420-5ee9d95c2058",
        "target": [
          {
            "reference": "Patient/71632625-4326-4313-8b82-222d259faf4b"
          },
          {
            "reference": "Bundle/a610253d-1c96-4b28-b42e-8e82cc7c80d2"
          },
          {
            "reference": "Composition/a9393e32-15b8-4f10-baeb-26c516739c8e"
          },
          {
            "reference": "PractitionerRole/1ea09c54-c2a0-4177-93ca-2a193823f4f3"
          },
          {
            "reference": "Practitioner/177cfa53-5d18-4e47-9af3-f4e5202f0bc7"
          },
          {
            "reference": "PractitionerRole/a474b883-f2bf-4a7f-b345-7cedfb1e5d73"
          },
          {
            "reference": "Organization/87e95b61-cfd6-4b7e-beb8-7ba10bcd29d8"
          }
        ],
        "activity": {
          "text": "Synthetic Example Data Generation"
        },
        "policy": [
          "https://synderai.net/synderai-synthetic-data-policy"
        ],
        "agent": [
          {
            "type": {
              "text": "author"
            },
            "who": {
              "reference": "Device/a4596571-ce5e-40d9-ad16-b7d97090014e"
            }
          }
        ],
        "reason": [
          {
            "text": "Interoperability Testing and Training (non-clinical use)"
          }
        ],
        "text": {
          "status": "generated",
          "div": "<div xmlns=\"http://www.w3.org/1999/xhtml\">Provenance for SYNDERAI Synthetic Example Data Resource</div>"
        },
        "recorded": "2015-08-11T13:56:29Z"
      }
    },
    {
      "fullUrl": "urn:uuid:1ea09c54-c2a0-4177-93ca-2a193823f4f3",
      "resource": {
        "resourceType": "PractitionerRole",
        "id": "1ea09c54-c2a0-4177-93ca-2a193823f4f3",
        "meta": {
          "profile": [
            "http://hl7.eu/fhir/base/StructureDefinition/practitionerRole-eu"
          ]
        },
        "text": {
          "status": "generated",
          "div": "<div xmlns=\"http://www.w3.org/1999/xhtml\">Laboratory Role Id: 1ea09c54-c2a0-4177-93ca-2a193823f4f3</div>"
        },
        "practitioner": {
          "reference": "urn:uuid:177cfa53-5d18-4e47-9af3-f4e5202f0bc7"
        }
      }
    },
    {
      "fullUrl": "urn:uuid:177cfa53-5d18-4e47-9af3-f4e5202f0bc7",
      "resource": {
        "resourceType": "Practitioner",
        "id": "177cfa53-5d18-4e47-9af3-f4e5202f0bc7",
        "meta": {
          "profile": [
            "http://hl7.eu/fhir/base/StructureDefinition/practitioner-eu"
          ]
        },
        "identifier": [
          {
            "assigner": {
              "display": "HL7 Europe"
            },
            "system": "urn:oid:2.16.840.1.113883.2.51.999",
            "value": "a1ea416e-06d6-4446-93b8-b00c1ed4cc59"
          }
        ],
        "name": [
          {
            "prefix": [
              "dr"
            ],
            "given": [
              "Ex"
            ],
            "family": "Ample"
          }
        ],
        "address": [
          {
            "line": [
              "Laboratoire Central Européenne",
              "Boulevard du Jardin Botanique 32"
            ],
            "postalCode": "1000",
            "city": "Brussels",
            "country": "Belgium"
          }
        ],
        "text": {
          "status": "generated",
          "div": "<div xmlns=\"http://www.w3.org/1999/xhtml\">Laboratory: Laboratoire Central Européenne, 1000 Brussels, Belgium</div>"
        }
      }
    }
  ],
  "type": "document",
  "timestamp": "2015-08-11T13:56:29Z"
}
