{
  "resourceType": "Bundle",
  "id": "7cf2446a-abb6-44fc-aa87-9ff968440b2e",
  "meta": {
    "profile": [
      "http://hl7.eu/fhir/laboratory/StructureDefinition/Bundle-eu-lab"
    ]
  },
  "identifier": {
    "assigner": {
      "display": "HL7 Europe"
    },
    "system": "urn:oid:2.16.840.1.113883.2.51.999",
    "value": "ab5ac094-8b97-4466-a959-c0d02ea73a7c"
  },
  "entry": [
    {
      "fullUrl": "urn:uuid:cea06193-f799-42c1-b37f-ccb349ac7433",
      "resource": {
        "resourceType": "Composition",
        "id": "cea06193-f799-42c1-b37f-ccb349ac7433",
        "meta": {
          "profile": [
            "http://hl7.eu/fhir/laboratory/StructureDefinition/Composition-eu-lab"
          ]
        },
        "identifier": {
          "assigner": {
            "display": "HL7 Europe"
          },
          "system": "urn:oid:2.16.840.1.113883.2.51.999",
          "value": "a8a11edf-7676-4736-9973-19b9a5e93716"
        },
        "author": [
          {
            "reference": "urn:uuid:29940a4d-69dc-45eb-acb6-5935ff551177"
          }
        ],
        "category": [
          {
            "coding": [
              {
                "code": "26436-6",
                "system": "http://loinc.org",
                "display": "Laboratory studies (set)"
              }
            ]
          }
        ],
        "type": {
          "coding": [
            {
              "code": "11502-2",
              "system": "http://loinc.org",
              "display": "Laboratory report"
            }
          ],
          "text": "Laboratory Report"
        },
        "section": [
          {
            "code": {
              "coding": [
                {
                  "code": "26436-6",
                  "system": "http://loinc.org",
                  "display": "Laboratory studies (set)"
                }
              ],
              "text": "Laboratory studies"
            },
            "section": [
              {
                "code": {
                  "coding": [
                    {
                      "code": "$18719-5",
                      "system": "http://loinc.org",
                      "display": "Chemistry studies (set)"
                    }
                  ],
                  "text": "Chemistry"
                },
                "entry": [
                  {
                    "reference": "urn:uuid:2c0a9e71-ff6b-46fc-969f-a2dbfd5690f3"
                  },
                  {
                    "reference": "urn:uuid:c4fdbe77-0817-442b-a04e-d48a4190ad12"
                  },
                  {
                    "reference": "urn:uuid:5d8bb317-cd53-4783-abc0-75cf84daa4dd"
                  },
                  {
                    "reference": "urn:uuid:e77481a4-208d-4f85-853e-f061e5bc7f8c"
                  },
                  {
                    "reference": "urn:uuid:711b3410-3779-4210-bd31-f32cd481045b"
                  },
                  {
                    "reference": "urn:uuid:42201b6b-ff0e-4a70-a2f7-8f0f21a9306a"
                  },
                  {
                    "reference": "urn:uuid:233d8afb-e564-4d8c-8d02-b00467e46e9a"
                  },
                  {
                    "reference": "urn:uuid:ad8b11fa-34f6-45d3-ab18-98231b565f8f"
                  },
                  {
                    "reference": "urn:uuid:d89fbd3f-0bf3-4655-b5b3-c6a3bd3cdf41"
                  },
                  {
                    "reference": "urn:uuid:8a647268-5107-4e2e-a5f5-c6f3dd08284d"
                  },
                  {
                    "reference": "urn:uuid:552af22d-c392-46ef-ab80-5491f3606c3f"
                  },
                  {
                    "reference": "urn:uuid:e4563fb9-a087-43ba-b63b-4595a7b24dd6"
                  },
                  {
                    "reference": "urn:uuid:e3e06fd2-e207-4f61-9df1-b419a02580b0"
                  },
                  {
                    "reference": "urn:uuid:976d749f-45d0-472d-a70a-834fadd8919c"
                  },
                  {
                    "reference": "urn:uuid:be35f82c-354e-42fc-95dd-8836134ba34e"
                  },
                  {
                    "reference": "urn:uuid:774db272-1ca2-484d-b61b-362355a95b3a"
                  },
                  {
                    "reference": "urn:uuid:b3d0639a-53e6-4158-b8c4-7ec5f12c207c"
                  },
                  {
                    "reference": "urn:uuid:93deaefe-b960-4e98-b17a-6424fb961dd2"
                  }
                ],
                "text": {
                  "status": "generated",
                  "div": "<div xmlns=\"http://www.w3.org/1999/xhtml\"><h3>Chemistry</h3><table class=\"hl7__eu__lab__report\"><thead><tr><th>Test</th><th>10-DEC-2020</th><th>Reference&#xA0;Range</th><th>Unit</th></tr></thead><tbody><tr><td>Glucose [Mass/volume] in Serum or Plasma</td><td>90.4</td><td>70 - 140</td><td>mg/dL</td></tr><tr><td>Urea nitrogen [Mass/volume] in Serum or Plasma</td><td>12.9</td><td>7 - 25</td><td>mg/dL</td></tr><tr><td>Creatinine [Mass/volume] in Serum or Plasma</td><td><strong>2.0 H</strong></td><td>0.9 - 1.3</td><td>mg/dL</td></tr><tr><td>Calcium [Mass/volume] in Serum or Plasma</td><td>9.8</td><td>8.5 - 10.5</td><td>mg/dL</td></tr><tr><td>Sodium [Moles/volume] in Serum or Plasma</td><td>139.3</td><td>135 - 145</td><td>mmol/L</td></tr><tr><td>Potassium [Moles/volume] in Serum or Plasma</td><td>4.5</td><td>3.5 - 5.3</td><td>mmol/L</td></tr><tr><td>Chloride [Moles/volume] in Serum or Plasma</td><td><strong>110.6 H</strong></td><td>98 - 107</td><td>mmol/L</td></tr><tr><td>Carbon dioxide, total [Moles/volume] in Serum or Plasma</td><td>27.2</td><td>22 - 29</td><td>mmol/L</td></tr><tr><td>Ketones [Presence] in Urine by Test strip</td><td>Urine ketone test = +</td><td></td><td></td></tr><tr><td>Hemoglobin A1c/Hemoglobin.total in Blood</td><td><strong>3.2 L</strong></td><td>4.5 - 6.4</td><td>%</td></tr><tr><td>Glucose [Mass/volume] in Blood</td><td>90.4</td><td>70 - 140</td><td>mg/dL</td></tr><tr><td>Urea nitrogen [Mass/volume] in Blood</td><td>12.9</td><td>7 - 25</td><td>mg/dL</td></tr><tr><td>Creatinine [Mass/volume] in Blood</td><td><strong>2.2 H</strong></td><td>0.9 - 1.3</td><td>mg/dL</td></tr><tr><td>Calcium [Mass/volume] in Blood</td><td>9.8</td><td>8.6 - 10.2</td><td>mg/dL</td></tr><tr><td>Sodium [Moles/volume] in Blood</td><td>139.3</td><td>135 - 145</td><td>mmol/L</td></tr><tr><td>Potassium [Moles/volume] in Blood</td><td>4.5</td><td>3.5 - 5.1</td><td>mmol/L</td></tr><tr><td>Chloride [Moles/volume] in Blood</td><td><strong>110.6 H</strong></td><td>98 - 108</td><td>mmol/L</td></tr><tr><td>Carbon dioxide, total [Moles/volume] in Blood</td><td>27.2</td><td>22 - 32</td><td>mmol/L</td></tr></tbody></table></div>"
                },
                "title": "Chemistry"
              },
              {
                "code": {
                  "coding": [
                    {
                      "code": "$18729-4",
                      "system": "http://loinc.org",
                      "display": "Urinalysis studies (set)"
                    }
                  ],
                  "text": "Urinalysis"
                },
                "entry": [
                  {
                    "reference": "urn:uuid:dad07173-0e49-4b7f-9a83-566eeedd42d2"
                  },
                  {
                    "reference": "urn:uuid:99c3709c-7e54-4137-a44d-90eced8a41fd"
                  },
                  {
                    "reference": "urn:uuid:86b2d930-8a8f-4e18-a3ce-6f40fdb19303"
                  },
                  {
                    "reference": "urn:uuid:c97f5866-731d-42a3-9b07-eeccac569e3e"
                  },
                  {
                    "reference": "urn:uuid:6f84e1d4-7cb6-47e4-9dd3-2e3b11f2e52a"
                  },
                  {
                    "reference": "urn:uuid:9922944c-4171-44c0-8d03-9c763ae3d572"
                  },
                  {
                    "reference": "urn:uuid:155d7d41-55be-4c91-a17b-6b3836a2a13f"
                  },
                  {
                    "reference": "urn:uuid:61515024-8adb-40ba-92ac-198974837691"
                  },
                  {
                    "reference": "urn:uuid:486e2418-eeab-4420-ae79-442374158bda"
                  },
                  {
                    "reference": "urn:uuid:536707f2-d0a4-4512-a708-60d0be339038"
                  },
                  {
                    "reference": "urn:uuid:260eb743-7df9-4781-97d6-bf907af4b6d6"
                  },
                  {
                    "reference": "urn:uuid:2df31d79-47b4-4aef-9534-e4d4b9ffc3da"
                  }
                ],
                "text": {
                  "status": "generated",
                  "div": "<div xmlns=\"http://www.w3.org/1999/xhtml\"><h3>Urinalysis</h3><table class=\"hl7__eu__lab__report\"><thead><tr><th>Test</th><th>10-DEC-2020</th><th>Reference&#xA0;Range</th><th>Unit</th></tr></thead><tbody><tr><td>Glucose [Mass/volume] in Urine by Test strip</td><td><strong>0.7 L</strong></td><td>0.8 - 0</td><td>mg/dL</td></tr><tr><td>Glucose [Presence] in Urine by Test strip</td><td>++</td><td></td><td></td></tr><tr><td>Bilirubin.total [Mass/volume] in Urine by Test strip</td><td>0.4</td><td>0.2 - 1.5</td><td>mg/dL</td></tr><tr><td>Bilirubin.total [Presence] in Urine by Test strip</td><td>Finding of bilirubin in urine</td><td></td><td></td></tr><tr><td>Ketones [Mass/volume] in Urine by Test strip</td><td><strong>11.5 H</strong></td><td>0 - 4</td><td>mg/dL</td></tr><tr><td>Specific gravity of Urine by Test strip</td><td><strong>1.0 L</strong></td><td>1.01 - 1.03</td><td>{nominal}</td></tr><tr><td>pH of Urine by Test strip</td><td>6.8</td><td>4.5 - 7.5</td><td>pH</td></tr><tr><td>Protein [Mass/volume] in Urine by Test strip</td><td><strong>259.1 H</strong></td><td>0 - 150</td><td>mg/dL</td></tr><tr><td>Protein [Presence] in Urine by Test strip</td><td>Urine protein test = ++</td><td></td><td></td></tr><tr><td>Nitrite [Presence] in Urine by Test strip</td><td>Urine nitrite negative</td><td></td><td></td></tr><tr><td>Hemoglobin [Presence] in Urine by Test strip</td><td>Urine blood test = negative</td><td></td><td></td></tr><tr><td>Leukocyte esterase [Presence] in Urine by Test strip</td><td>Urine leukocyte test negative</td><td></td><td></td></tr></tbody></table></div>"
                },
                "title": "Urinalysis"
              },
              {
                "code": {
                  "coding": [
                    {
                      "code": "$LP7846-1",
                      "system": "http://loinc.org",
                      "display": "Specimen information"
                    }
                  ],
                  "text": "Specimen information"
                },
                "entry": [
                  {
                    "reference": "urn:uuid:4190c752-b7a4-445b-8659-1abee813f3bd"
                  },
                  {
                    "reference": "urn:uuid:68ed7be5-a55c-4728-a2e0-d381031084da"
                  },
                  {
                    "reference": "urn:uuid:d9211d13-98b6-4dd5-8035-601f629effa6"
                  },
                  {
                    "reference": "urn:uuid:ec18e437-c960-42c5-8640-b9e9a88fc4fb"
                  }
                ],
                "text": {
                  "status": "generated",
                  "div": "<div xmlns=\"http://www.w3.org/1999/xhtml\"><h3>Specimen information</h3><table class=\"hl7__eu__lab__report\"><thead><tr><th>Test</th><th>10-DEC-2020</th><th>Specimen</th><th></th></tr></thead><tbody><tr><td>Appearance of Urine</td><td>Cloudy urine</td><td>Urine</td><td></td></tr><tr><td>Odor of Urine</td><td>Urine smell ammoniacal</td><td>Urine</td><td></td></tr><tr><td>Clarity of Urine</td><td>Translucent</td><td>Urine</td><td></td></tr><tr><td>Color of Urine</td><td>Brown color</td><td>Urine</td><td></td></tr></tbody></table></div>"
                },
                "title": "Specimen information"
              }
            ],
            "title": "Laboratory Report"
          },
          {
            "text": {
              "status": "generated",
              "div": "<div xmlns=\"http://www.w3.org/1999/xhtml\"><h3>Annotation</h3><table class=\"hl7__eu__lab__report\"><tr><th>Conclusion and Recommendations based on this report and previous findings known to us</th></tr><tr><td>The patient shows elevated creatinine, proteinuria, and low urine specific gravity, suggesting impaired renal function. Urine findings (cloudy, brown, ammoniacal odor, ketonuria, bilirubinuria, glucosuria) indicate possible renal or urinary tract pathology, possibly with dehydration or metabolic disturbance. Low HbA1c is unusual and may reflect anemia or altered red cell turnover. Recommend further renal assessment and clinical correlation for possible acute or chronic kidney disease and metabolic derangements.</td></tr></table></div>"
            },
            "code": {
              "coding": [
                {
                  "system": "http://loinc.org",
                  "code": "48767-8",
                  "display": "Annotation comment"
                }
              ]
            },
            "title": "Annotation comment"
          }
        ],
        "status": "final",
        "subject": {
          "reference": "urn:uuid:9560bea0-2b2a-4900-b030-135f9948b086",
          "display": "Pelayo Casal"
        },
        "date": "2020-12-10T06:38:59Z",
        "title": "Laboratory Report",
        "confidentiality": "N"
      }
    },
    {
      "fullUrl": "urn:uuid:9177f7c0-0a66-4c78-91c4-e3cccfb3e3db",
      "resource": {
        "resourceType": "DiagnosticReport",
        "id": "9177f7c0-0a66-4c78-91c4-e3cccfb3e3db",
        "meta": {
          "profile": [
            "http://hl7.eu/fhir/laboratory/StructureDefinition/DiagnosticReport-eu-lab"
          ]
        },
        "identifier": [
          {
            "assigner": {
              "display": "HL7 Europe"
            },
            "system": "urn:oid:2.16.840.1.113883.2.51.999",
            "value": "3450733c-b79e-4697-bb0d-dbc057ddcaae"
          }
        ],
        "extension": [
          {
            "url": "http://hl7.org/fhir/5.0/StructureDefinition/extension-DiagnosticReport.composition",
            "valueReference": {
              "reference": "urn:uuid:a8a11edf-7676-4736-9973-19b9a5e93716"
            }
          }
        ],
        "category": [
          {
            "coding": [
              {
                "code": "26436-6",
                "system": "http://loinc.org",
                "display": "Laboratory studies (set)"
              }
            ]
          }
        ],
        "specimen": [
          {
            "reference": "urn:uuid:fdc3988f-1e59-45ae-8e5a-0c77e09e66ac"
          },
          {
            "reference": "urn:uuid:dde3c697-6bd9-42b6-9528-f8661579cea3"
          },
          {
            "reference": "urn:uuid:745961de-5e6b-4fff-8e95-807d248335f3"
          }
        ],
        "result": [
          {
            "reference": "urn:uuid:2c0a9e71-ff6b-46fc-969f-a2dbfd5690f3"
          },
          {
            "reference": "urn:uuid:c4fdbe77-0817-442b-a04e-d48a4190ad12"
          },
          {
            "reference": "urn:uuid:5d8bb317-cd53-4783-abc0-75cf84daa4dd"
          },
          {
            "reference": "urn:uuid:e77481a4-208d-4f85-853e-f061e5bc7f8c"
          },
          {
            "reference": "urn:uuid:711b3410-3779-4210-bd31-f32cd481045b"
          },
          {
            "reference": "urn:uuid:42201b6b-ff0e-4a70-a2f7-8f0f21a9306a"
          },
          {
            "reference": "urn:uuid:233d8afb-e564-4d8c-8d02-b00467e46e9a"
          },
          {
            "reference": "urn:uuid:ad8b11fa-34f6-45d3-ab18-98231b565f8f"
          },
          {
            "reference": "urn:uuid:4190c752-b7a4-445b-8659-1abee813f3bd"
          },
          {
            "reference": "urn:uuid:68ed7be5-a55c-4728-a2e0-d381031084da"
          },
          {
            "reference": "urn:uuid:d9211d13-98b6-4dd5-8035-601f629effa6"
          },
          {
            "reference": "urn:uuid:ec18e437-c960-42c5-8640-b9e9a88fc4fb"
          },
          {
            "reference": "urn:uuid:dad07173-0e49-4b7f-9a83-566eeedd42d2"
          },
          {
            "reference": "urn:uuid:99c3709c-7e54-4137-a44d-90eced8a41fd"
          },
          {
            "reference": "urn:uuid:86b2d930-8a8f-4e18-a3ce-6f40fdb19303"
          },
          {
            "reference": "urn:uuid:c97f5866-731d-42a3-9b07-eeccac569e3e"
          },
          {
            "reference": "urn:uuid:6f84e1d4-7cb6-47e4-9dd3-2e3b11f2e52a"
          },
          {
            "reference": "urn:uuid:d89fbd3f-0bf3-4655-b5b3-c6a3bd3cdf41"
          },
          {
            "reference": "urn:uuid:9922944c-4171-44c0-8d03-9c763ae3d572"
          },
          {
            "reference": "urn:uuid:155d7d41-55be-4c91-a17b-6b3836a2a13f"
          },
          {
            "reference": "urn:uuid:61515024-8adb-40ba-92ac-198974837691"
          },
          {
            "reference": "urn:uuid:486e2418-eeab-4420-ae79-442374158bda"
          },
          {
            "reference": "urn:uuid:536707f2-d0a4-4512-a708-60d0be339038"
          },
          {
            "reference": "urn:uuid:260eb743-7df9-4781-97d6-bf907af4b6d6"
          },
          {
            "reference": "urn:uuid:2df31d79-47b4-4aef-9534-e4d4b9ffc3da"
          },
          {
            "reference": "urn:uuid:8a647268-5107-4e2e-a5f5-c6f3dd08284d"
          },
          {
            "reference": "urn:uuid:552af22d-c392-46ef-ab80-5491f3606c3f"
          },
          {
            "reference": "urn:uuid:e4563fb9-a087-43ba-b63b-4595a7b24dd6"
          },
          {
            "reference": "urn:uuid:e3e06fd2-e207-4f61-9df1-b419a02580b0"
          },
          {
            "reference": "urn:uuid:976d749f-45d0-472d-a70a-834fadd8919c"
          },
          {
            "reference": "urn:uuid:be35f82c-354e-42fc-95dd-8836134ba34e"
          },
          {
            "reference": "urn:uuid:774db272-1ca2-484d-b61b-362355a95b3a"
          },
          {
            "reference": "urn:uuid:b3d0639a-53e6-4158-b8c4-7ec5f12c207c"
          },
          {
            "reference": "urn:uuid:93deaefe-b960-4e98-b17a-6424fb961dd2"
          }
        ],
        "status": "registered",
        "code": {
          "coding": [
            {
              "code": "11502-2",
              "system": "http://loinc.org",
              "display": "Laboratory report"
            }
          ]
        },
        "subject": {
          "reference": "urn:uuid:9560bea0-2b2a-4900-b030-135f9948b086",
          "display": "Pelayo Casal"
        }
      }
    },
    {
      "fullUrl": "urn:uuid:9560bea0-2b2a-4900-b030-135f9948b086",
      "resource": {
        "resourceType": "Patient",
        "id": "9560bea0-2b2a-4900-b030-135f9948b086",
        "meta": {
          "security": [
            {
              "system": "http://terminology.hl7.org/CodeSystem/v3-ActReason",
              "code": "HTEST"
            },
            {
              "system": "http://terminology.hl7.org/CodeSystem/v3-ActReason",
              "code": "TRAIN"
            }
          ],
          "tag": [
            {
              "system": "https://synderai.net/fhir/CodeSystem/tags",
              "code": "synthetic",
              "display": "SYNDERAI Synthetic data"
            }
          ],
          "profile": [
            "http://hl7.eu/fhir/base/StructureDefinition/patient-eu-core"
          ]
        },
        "identifier": [
          {
            "type": {
              "coding": [
                {
                  "code": "PT",
                  "system": "http://terminology.hl7.org/CodeSystem/v2-0203"
                }
              ]
            },
            "system": "http://ec.europa.eu/identifier/eci",
            "value": "7707-510028-7"
          },
          {
            "type": {
              "coding": [
                {
                  "code": "MR",
                  "system": "http://terminology.hl7.org/CodeSystem/v2-0203"
                }
              ]
            },
            "system": "http://local.setting.eu/identifier",
            "value": "d88e82c6-df33-82d2-8538-f8b57da06491"
          }
        ],
        "name": [
          {
            "family": "Casal"
          },
          {
            "given": [
              "Pelayo"
            ]
          },
          {
            "text": "Pelayo Casal"
          }
        ],
        "address": [
          {
            "line": [
              "Callejón de Ignacio Pedrosa 67 Apt. 68 "
            ],
            "use": "home",
            "type": "physical",
            "postalCode": "35001",
            "city": "Las Palmas",
            "country": "Spain"
          }
        ],
        "telecom": [
          {
            "system": "phone",
            "value": "+34 875724898"
          }
        ],
        "extension": [
          {
            "url": "http://hl7.org/fhir/StructureDefinition/patient-nationality",
            "valueCodeableConcept": {
              "coding": [
                {
                  "code": "ES",
                  "system": "http://hl7.org/fhir/ValueSet/country"
                }
              ]
            }
          }
        ],
        "text": {
          "status": "generated",
          "div": "<div xmlns=\"http://www.w3.org/1999/xhtml\"><table class=\"hl7__ips\"><tr><td>Pelayo Casal</td><td>male</td><td>19-Apr-1940</td></tr></table></div>"
        },
        "gender": "male",
        "birthDate": "1940-04-19"
      }
    },
    {
      "fullUrl": "urn:uuid:ae7bee1b-12be-46c6-aa33-3266ee4b186b",
      "resource": {
        "resourceType": "ServiceRequest",
        "id": "ae7bee1b-12be-46c6-aa33-3266ee4b186b",
        "meta": {
          "profile": [
            "http://hl7.eu/fhir/laboratory/StructureDefinition/ServiceRequest-eu-lab"
          ]
        },
        "identifier": [
          {
            "system": "http://example.org",
            "value": "88c768dc-129b-4ed2-a0d1-18c070c64d3f"
          }
        ],
        "specimen": [
          {
            "reference": "urn:uuid:fdc3988f-1e59-45ae-8e5a-0c77e09e66ac"
          },
          {
            "reference": "urn:uuid:dde3c697-6bd9-42b6-9528-f8661579cea3"
          },
          {
            "reference": "urn:uuid:745961de-5e6b-4fff-8e95-807d248335f3"
          }
        ],
        "reasonCode": [
          {
            "coding": [
              {
                "code": "431856006",
                "system": "http://snomed.info/sct",
                "display": "Chronic kidney disease stage 2"
              }
            ]
          },
          {
            "coding": [
              {
                "code": "90781000119102",
                "system": "http://snomed.info/sct",
                "display": "Microalbuminuria due to type 2 diabetes mellitus"
              }
            ]
          },
          {
            "coding": [
              {
                "code": "127013003",
                "system": "http://snomed.info/sct",
                "display": "Disorder of kidney due to diabetes mellitus"
              }
            ]
          },
          {
            "coding": [
              {
                "code": "431855005",
                "system": "http://snomed.info/sct",
                "display": "Chronic kidney disease stage 1"
              }
            ]
          },
          {
            "coding": [
              {
                "code": "64859006",
                "system": "http://snomed.info/sct",
                "display": "Osteoporosis"
              }
            ]
          },
          {
            "coding": [
              {
                "code": "414545008",
                "system": "http://snomed.info/sct",
                "display": "Ischemic heart disease"
              }
            ]
          },
          {
            "coding": [
              {
                "code": "237602007",
                "system": "http://snomed.info/sct",
                "display": "Metabolic syndrome X"
              }
            ]
          },
          {
            "coding": [
              {
                "code": "59621000",
                "system": "http://snomed.info/sct",
                "display": "Essential hypertension"
              }
            ]
          },
          {
            "coding": [
              {
                "code": "271737000",
                "system": "http://snomed.info/sct",
                "display": "Anemia"
              }
            ]
          },
          {
            "coding": [
              {
                "code": "15777000",
                "system": "http://snomed.info/sct",
                "display": "Prediabetes"
              }
            ]
          }
        ],
        "status": "active",
        "intent": "order",
        "code": {
          "coding": [
            {
              "code": "108252007",
              "system": "http://snomed.info/sct",
              "display": "Laboratory procedure"
            }
          ]
        },
        "subject": {
          "reference": "urn:uuid:9560bea0-2b2a-4900-b030-135f9948b086",
          "display": "Pelayo Casal"
        },
        "requester": {
          "reference": "urn:uuid:11db93c3-0501-437a-85a5-e589e43c390c"
        }
      }
    },
    {
      "fullUrl": "urn:uuid:11db93c3-0501-437a-85a5-e589e43c390c",
      "resource": {
        "resourceType": "PractitionerRole",
        "id": "11db93c3-0501-437a-85a5-e589e43c390c",
        "meta": {
          "profile": [
            "http://hl7.eu/fhir/base/StructureDefinition/practitionerRole-eu"
          ]
        },
        "text": {
          "status": "generated",
          "div": "<div xmlns=\"http://www.w3.org/1999/xhtml\">Provider Role Id: 11db93c3-0501-437a-85a5-e589e43c390c</div>"
        },
        "organization": {
          "reference": "urn:uuid:7f71858e-913f-4113-b193-aa03e83f23c4"
        }
      }
    },
    {
      "fullUrl": "urn:uuid:7f71858e-913f-4113-b193-aa03e83f23c4",
      "resource": {
        "resourceType": "Organization",
        "id": "7f71858e-913f-4113-b193-aa03e83f23c4",
        "meta": {
          "profile": [
            "http://hl7.eu/fhir/base/StructureDefinition/organization-eu"
          ]
        },
        "identifier": [
          {
            "assigner": {
              "display": "HL7 Europe"
            },
            "system": "urn:oid:2.16.840.1.113883.2.51.999",
            "value": "3f81d3a5-589c-4a5e-8ea2-3cdb70ee8242"
          }
        ],
        "address": [
          {
            "country": "Spain"
          }
        ],
        "text": {
          "status": "generated",
          "div": "<div xmlns=\"http://www.w3.org/1999/xhtml\">Provider Organization: Centro de Salud de Guanarteme</div>"
        },
        "name": "Centro de Salud de Guanarteme"
      }
    },
    {
      "fullUrl": "urn:uuid:fdc3988f-1e59-45ae-8e5a-0c77e09e66ac",
      "resource": {
        "resourceType": "Specimen",
        "id": "fdc3988f-1e59-45ae-8e5a-0c77e09e66ac",
        "meta": {
          "profile": [
            "http://hl7.eu/fhir/laboratory/StructureDefinition/Specimen-eu-lab"
          ]
        },
        "collection": {
          "collectedDateTime": "2020-12-10"
        },
        "text": {
          "status": "generated",
          "div": "<div xmlns=\"http://www.w3.org/1999/xhtml\"><table class=\"hl7__eu__lab__report\"><tr><th>Specimen</th><th>Collection Date</th></tr><tr><td>Acellular blood (serum or plasma) specimen</td><td><span class=\"nb\">10-Dec-2020</span></td></tr></table></div>"
        },
        "type": {
          "coding": [
            {
              "code": "122592007",
              "system": "http://snomed.info/sct",
              "display": "Acellular blood (serum or plasma) specimen"
            }
          ]
        }
      }
    },
    {
      "fullUrl": "urn:uuid:dde3c697-6bd9-42b6-9528-f8661579cea3",
      "resource": {
        "resourceType": "Specimen",
        "id": "dde3c697-6bd9-42b6-9528-f8661579cea3",
        "meta": {
          "profile": [
            "http://hl7.eu/fhir/laboratory/StructureDefinition/Specimen-eu-lab"
          ]
        },
        "collection": {
          "collectedDateTime": "2020-12-10"
        },
        "text": {
          "status": "generated",
          "div": "<div xmlns=\"http://www.w3.org/1999/xhtml\"><table class=\"hl7__eu__lab__report\"><tr><th>Specimen</th><th>Collection Date</th></tr><tr><td>Urine specimen</td><td><span class=\"nb\">10-Dec-2020</span></td></tr></table></div>"
        },
        "type": {
          "coding": [
            {
              "code": "122575003",
              "system": "http://snomed.info/sct",
              "display": "Urine specimen"
            }
          ]
        }
      }
    },
    {
      "fullUrl": "urn:uuid:745961de-5e6b-4fff-8e95-807d248335f3",
      "resource": {
        "resourceType": "Specimen",
        "id": "745961de-5e6b-4fff-8e95-807d248335f3",
        "meta": {
          "profile": [
            "http://hl7.eu/fhir/laboratory/StructureDefinition/Specimen-eu-lab"
          ]
        },
        "collection": {
          "collectedDateTime": "2020-12-10"
        },
        "text": {
          "status": "generated",
          "div": "<div xmlns=\"http://www.w3.org/1999/xhtml\"><table class=\"hl7__eu__lab__report\"><tr><th>Specimen</th><th>Collection Date</th></tr><tr><td>Whole blood specimen (specimen)</td><td><span class=\"nb\">10-Dec-2020</span></td></tr></table></div>"
        },
        "type": {
          "coding": [
            {
              "code": "258580003",
              "system": "http://snomed.info/sct",
              "display": "Whole blood specimen (specimen)"
            }
          ]
        }
      }
    },
    {
      "fullUrl": "urn:uuid:2c0a9e71-ff6b-46fc-969f-a2dbfd5690f3",
      "resource": {
        "resourceType": "Observation",
        "id": "2c0a9e71-ff6b-46fc-969f-a2dbfd5690f3",
        "meta": {
          "profile": [
            "http://hl7.eu/fhir/laboratory/StructureDefinition/Observation-resultslab-eu-lab"
          ]
        },
        "performer": [
          {
            "display": "The Central European Lab"
          }
        ],
        "category": [
          {
            "coding": [
              {
                "system": "http://terminology.hl7.org/CodeSystem/observation-category",
                "code": "laboratory"
              }
            ]
          }
        ],
        "code": {
          "coding": [
            {
              "code": "2345-7",
              "system": "http://loinc.org",
              "display": "Glucose [Mass/volume] in Serum or Plasma"
            }
          ],
          "text": "Glucose [Mass/volume] in Serum or Plasma"
        },
        "valueQuantity": {
          "system": "http://unitsofmeasure.org",
          "value": 90.4,
          "unit": "mg/dL",
          "code": "mg/dL"
        },
        "referenceRange": [
          {
            "low": {
              "value": 70,
              "code": "mg/dL",
              "system": "http://unitsofmeasure.org"
            }
          },
          {
            "high": {
              "value": 140,
              "code": "mg/dL",
              "system": "http://unitsofmeasure.org"
            }
          }
        ],
        "text": {
          "status": "generated",
          "div": "<div xmlns=\"http://www.w3.org/1999/xhtml\"><table class=\"hl7__eu__lab__report\"><tr><th>Test</th><th>10-Dec-2020</th><th>Reference&#xA0;Range</th><th>Unit</th></tr><tr><td>Glucose [Mass/volume] in Serum or Plasma</td><td>90.4</td><td>70 - 140</td><td></td><td>mg/dL</td></tr></table></div>"
        },
        "status": "final",
        "subject": {
          "reference": "urn:uuid:9560bea0-2b2a-4900-b030-135f9948b086",
          "display": "Pelayo Casal"
        },
        "effectiveDateTime": "2020-12-10T05:38:59Z",
        "specimen": {
          "reference": "urn:uuid:fdc3988f-1e59-45ae-8e5a-0c77e09e66ac"
        }
      }
    },
    {
      "fullUrl": "urn:uuid:c4fdbe77-0817-442b-a04e-d48a4190ad12",
      "resource": {
        "resourceType": "Observation",
        "id": "c4fdbe77-0817-442b-a04e-d48a4190ad12",
        "meta": {
          "profile": [
            "http://hl7.eu/fhir/laboratory/StructureDefinition/Observation-resultslab-eu-lab"
          ]
        },
        "performer": [
          {
            "display": "The Central European Lab"
          }
        ],
        "category": [
          {
            "coding": [
              {
                "system": "http://terminology.hl7.org/CodeSystem/observation-category",
                "code": "laboratory"
              }
            ]
          }
        ],
        "code": {
          "coding": [
            {
              "code": "3094-0",
              "system": "http://loinc.org",
              "display": "Urea nitrogen [Mass/volume] in Serum or Plasma"
            }
          ],
          "text": "Urea nitrogen [Mass/volume] in Serum or Plasma"
        },
        "valueQuantity": {
          "system": "http://unitsofmeasure.org",
          "value": 12.9,
          "unit": "mg/dL",
          "code": "mg/dL"
        },
        "referenceRange": [
          {
            "low": {
              "value": 7,
              "code": "mg/dL",
              "system": "http://unitsofmeasure.org"
            }
          },
          {
            "high": {
              "value": 25,
              "code": "mg/dL",
              "system": "http://unitsofmeasure.org"
            }
          }
        ],
        "text": {
          "status": "generated",
          "div": "<div xmlns=\"http://www.w3.org/1999/xhtml\"><table class=\"hl7__eu__lab__report\"><tr><th>Test</th><th>10-Dec-2020</th><th>Reference&#xA0;Range</th><th>Unit</th></tr><tr><td>Urea nitrogen [Mass/volume] in Serum or Plasma</td><td>12.9</td><td>7 - 25</td><td></td><td>mg/dL</td></tr></table></div>"
        },
        "status": "final",
        "subject": {
          "reference": "urn:uuid:9560bea0-2b2a-4900-b030-135f9948b086",
          "display": "Pelayo Casal"
        },
        "effectiveDateTime": "2020-12-10T05:38:59Z",
        "specimen": {
          "reference": "urn:uuid:fdc3988f-1e59-45ae-8e5a-0c77e09e66ac"
        }
      }
    },
    {
      "fullUrl": "urn:uuid:5d8bb317-cd53-4783-abc0-75cf84daa4dd",
      "resource": {
        "resourceType": "Observation",
        "id": "5d8bb317-cd53-4783-abc0-75cf84daa4dd",
        "meta": {
          "profile": [
            "http://hl7.eu/fhir/laboratory/StructureDefinition/Observation-resultslab-eu-lab"
          ]
        },
        "performer": [
          {
            "display": "The Central European Lab"
          }
        ],
        "category": [
          {
            "coding": [
              {
                "system": "http://terminology.hl7.org/CodeSystem/observation-category",
                "code": "laboratory"
              }
            ]
          }
        ],
        "code": {
          "coding": [
            {
              "code": "2160-0",
              "system": "http://loinc.org",
              "display": "Creatinine [Mass/volume] in Serum or Plasma"
            }
          ],
          "text": "Creatinine [Mass/volume] in Serum or Plasma"
        },
        "valueQuantity": {
          "system": "http://unitsofmeasure.org",
          "value": 2,
          "unit": "mg/dL",
          "code": "mg/dL"
        },
        "referenceRange": [
          {
            "low": {
              "value": 0.9,
              "code": "mg/dL",
              "system": "http://unitsofmeasure.org"
            }
          },
          {
            "high": {
              "value": 1.3,
              "code": "mg/dL",
              "system": "http://unitsofmeasure.org"
            }
          }
        ],
        "interpretation": [
          {
            "coding": [
              {
                "code": "H",
                "system": "http://terminology.hl7.org/CodeSystem/v3-ObservationInterpretation",
                "display": "High"
              }
            ]
          }
        ],
        "text": {
          "status": "generated",
          "div": "<div xmlns=\"http://www.w3.org/1999/xhtml\"><table class=\"hl7__eu__lab__report\"><tr><th>Test</th><th>10-Dec-2020</th><th>Reference&#xA0;Range</th><th>Unit</th></tr><tr><td>Creatinine [Mass/volume] in Serum or Plasma</td><td>2.0</td><td>0.9 - 1.3</td><td>H</td><td>mg/dL</td></tr></table></div>"
        },
        "status": "final",
        "subject": {
          "reference": "urn:uuid:9560bea0-2b2a-4900-b030-135f9948b086",
          "display": "Pelayo Casal"
        },
        "effectiveDateTime": "2020-12-10T05:38:59Z",
        "specimen": {
          "reference": "urn:uuid:fdc3988f-1e59-45ae-8e5a-0c77e09e66ac"
        }
      }
    },
    {
      "fullUrl": "urn:uuid:e77481a4-208d-4f85-853e-f061e5bc7f8c",
      "resource": {
        "resourceType": "Observation",
        "id": "e77481a4-208d-4f85-853e-f061e5bc7f8c",
        "meta": {
          "profile": [
            "http://hl7.eu/fhir/laboratory/StructureDefinition/Observation-resultslab-eu-lab"
          ]
        },
        "performer": [
          {
            "display": "The Central European Lab"
          }
        ],
        "category": [
          {
            "coding": [
              {
                "system": "http://terminology.hl7.org/CodeSystem/observation-category",
                "code": "laboratory"
              }
            ]
          }
        ],
        "code": {
          "coding": [
            {
              "code": "17861-6",
              "system": "http://loinc.org",
              "display": "Calcium [Mass/volume] in Serum or Plasma"
            }
          ],
          "text": "Calcium [Mass/volume] in Serum or Plasma"
        },
        "valueQuantity": {
          "system": "http://unitsofmeasure.org",
          "value": 9.8,
          "unit": "mg/dL",
          "code": "mg/dL"
        },
        "referenceRange": [
          {
            "low": {
              "value": 8.5,
              "code": "mg/dL",
              "system": "http://unitsofmeasure.org"
            }
          },
          {
            "high": {
              "value": 10.5,
              "code": "mg/dL",
              "system": "http://unitsofmeasure.org"
            }
          }
        ],
        "text": {
          "status": "generated",
          "div": "<div xmlns=\"http://www.w3.org/1999/xhtml\"><table class=\"hl7__eu__lab__report\"><tr><th>Test</th><th>10-Dec-2020</th><th>Reference&#xA0;Range</th><th>Unit</th></tr><tr><td>Calcium [Mass/volume] in Serum or Plasma</td><td>9.8</td><td>8.5 - 10.5</td><td></td><td>mg/dL</td></tr></table></div>"
        },
        "status": "final",
        "subject": {
          "reference": "urn:uuid:9560bea0-2b2a-4900-b030-135f9948b086",
          "display": "Pelayo Casal"
        },
        "effectiveDateTime": "2020-12-10T05:38:59Z",
        "specimen": {
          "reference": "urn:uuid:fdc3988f-1e59-45ae-8e5a-0c77e09e66ac"
        }
      }
    },
    {
      "fullUrl": "urn:uuid:711b3410-3779-4210-bd31-f32cd481045b",
      "resource": {
        "resourceType": "Observation",
        "id": "711b3410-3779-4210-bd31-f32cd481045b",
        "meta": {
          "profile": [
            "http://hl7.eu/fhir/laboratory/StructureDefinition/Observation-resultslab-eu-lab"
          ]
        },
        "performer": [
          {
            "display": "The Central European Lab"
          }
        ],
        "category": [
          {
            "coding": [
              {
                "system": "http://terminology.hl7.org/CodeSystem/observation-category",
                "code": "laboratory"
              }
            ]
          }
        ],
        "code": {
          "coding": [
            {
              "code": "2951-2",
              "system": "http://loinc.org",
              "display": "Sodium [Moles/volume] in Serum or Plasma"
            }
          ],
          "text": "Sodium [Moles/volume] in Serum or Plasma"
        },
        "valueQuantity": {
          "system": "http://unitsofmeasure.org",
          "value": 139.3,
          "unit": "mmol/L",
          "code": "mmol/L"
        },
        "referenceRange": [
          {
            "low": {
              "value": 135,
              "code": "mmol/L",
              "system": "http://unitsofmeasure.org"
            }
          },
          {
            "high": {
              "value": 145,
              "code": "mmol/L",
              "system": "http://unitsofmeasure.org"
            }
          }
        ],
        "text": {
          "status": "generated",
          "div": "<div xmlns=\"http://www.w3.org/1999/xhtml\"><table class=\"hl7__eu__lab__report\"><tr><th>Test</th><th>10-Dec-2020</th><th>Reference&#xA0;Range</th><th>Unit</th></tr><tr><td>Sodium [Moles/volume] in Serum or Plasma</td><td>139.3</td><td>135 - 145</td><td></td><td>mmol/L</td></tr></table></div>"
        },
        "status": "final",
        "subject": {
          "reference": "urn:uuid:9560bea0-2b2a-4900-b030-135f9948b086",
          "display": "Pelayo Casal"
        },
        "effectiveDateTime": "2020-12-10T05:38:59Z",
        "specimen": {
          "reference": "urn:uuid:fdc3988f-1e59-45ae-8e5a-0c77e09e66ac"
        }
      }
    },
    {
      "fullUrl": "urn:uuid:42201b6b-ff0e-4a70-a2f7-8f0f21a9306a",
      "resource": {
        "resourceType": "Observation",
        "id": "42201b6b-ff0e-4a70-a2f7-8f0f21a9306a",
        "meta": {
          "profile": [
            "http://hl7.eu/fhir/laboratory/StructureDefinition/Observation-resultslab-eu-lab"
          ]
        },
        "performer": [
          {
            "display": "The Central European Lab"
          }
        ],
        "category": [
          {
            "coding": [
              {
                "system": "http://terminology.hl7.org/CodeSystem/observation-category",
                "code": "laboratory"
              }
            ]
          }
        ],
        "code": {
          "coding": [
            {
              "code": "2823-3",
              "system": "http://loinc.org",
              "display": "Potassium [Moles/volume] in Serum or Plasma"
            }
          ],
          "text": "Potassium [Moles/volume] in Serum or Plasma"
        },
        "valueQuantity": {
          "system": "http://unitsofmeasure.org",
          "value": 4.5,
          "unit": "mmol/L",
          "code": "mmol/L"
        },
        "referenceRange": [
          {
            "low": {
              "value": 3.5,
              "code": "mmol/L",
              "system": "http://unitsofmeasure.org"
            }
          },
          {
            "high": {
              "value": 5.3,
              "code": "mmol/L",
              "system": "http://unitsofmeasure.org"
            }
          }
        ],
        "text": {
          "status": "generated",
          "div": "<div xmlns=\"http://www.w3.org/1999/xhtml\"><table class=\"hl7__eu__lab__report\"><tr><th>Test</th><th>10-Dec-2020</th><th>Reference&#xA0;Range</th><th>Unit</th></tr><tr><td>Potassium [Moles/volume] in Serum or Plasma</td><td>4.5</td><td>3.5 - 5.3</td><td></td><td>mmol/L</td></tr></table></div>"
        },
        "status": "final",
        "subject": {
          "reference": "urn:uuid:9560bea0-2b2a-4900-b030-135f9948b086",
          "display": "Pelayo Casal"
        },
        "effectiveDateTime": "2020-12-10T05:38:59Z",
        "specimen": {
          "reference": "urn:uuid:fdc3988f-1e59-45ae-8e5a-0c77e09e66ac"
        }
      }
    },
    {
      "fullUrl": "urn:uuid:233d8afb-e564-4d8c-8d02-b00467e46e9a",
      "resource": {
        "resourceType": "Observation",
        "id": "233d8afb-e564-4d8c-8d02-b00467e46e9a",
        "meta": {
          "profile": [
            "http://hl7.eu/fhir/laboratory/StructureDefinition/Observation-resultslab-eu-lab"
          ]
        },
        "performer": [
          {
            "display": "The Central European Lab"
          }
        ],
        "category": [
          {
            "coding": [
              {
                "system": "http://terminology.hl7.org/CodeSystem/observation-category",
                "code": "laboratory"
              }
            ]
          }
        ],
        "code": {
          "coding": [
            {
              "code": "2075-0",
              "system": "http://loinc.org",
              "display": "Chloride [Moles/volume] in Serum or Plasma"
            }
          ],
          "text": "Chloride [Moles/volume] in Serum or Plasma"
        },
        "valueQuantity": {
          "system": "http://unitsofmeasure.org",
          "value": 110.6,
          "unit": "mmol/L",
          "code": "mmol/L"
        },
        "referenceRange": [
          {
            "low": {
              "value": 98,
              "code": "mmol/L",
              "system": "http://unitsofmeasure.org"
            }
          },
          {
            "high": {
              "value": 107,
              "code": "mmol/L",
              "system": "http://unitsofmeasure.org"
            }
          }
        ],
        "interpretation": [
          {
            "coding": [
              {
                "code": "H",
                "system": "http://terminology.hl7.org/CodeSystem/v3-ObservationInterpretation",
                "display": "High"
              }
            ]
          }
        ],
        "text": {
          "status": "generated",
          "div": "<div xmlns=\"http://www.w3.org/1999/xhtml\"><table class=\"hl7__eu__lab__report\"><tr><th>Test</th><th>10-Dec-2020</th><th>Reference&#xA0;Range</th><th>Unit</th></tr><tr><td>Chloride [Moles/volume] in Serum or Plasma</td><td>110.6</td><td>98 - 107</td><td>H</td><td>mmol/L</td></tr></table></div>"
        },
        "status": "final",
        "subject": {
          "reference": "urn:uuid:9560bea0-2b2a-4900-b030-135f9948b086",
          "display": "Pelayo Casal"
        },
        "effectiveDateTime": "2020-12-10T05:38:59Z",
        "specimen": {
          "reference": "urn:uuid:fdc3988f-1e59-45ae-8e5a-0c77e09e66ac"
        }
      }
    },
    {
      "fullUrl": "urn:uuid:ad8b11fa-34f6-45d3-ab18-98231b565f8f",
      "resource": {
        "resourceType": "Observation",
        "id": "ad8b11fa-34f6-45d3-ab18-98231b565f8f",
        "meta": {
          "profile": [
            "http://hl7.eu/fhir/laboratory/StructureDefinition/Observation-resultslab-eu-lab"
          ]
        },
        "performer": [
          {
            "display": "The Central European Lab"
          }
        ],
        "category": [
          {
            "coding": [
              {
                "system": "http://terminology.hl7.org/CodeSystem/observation-category",
                "code": "laboratory"
              }
            ]
          }
        ],
        "code": {
          "coding": [
            {
              "code": "2028-9",
              "system": "http://loinc.org",
              "display": "Carbon dioxide, total [Moles/volume] in Serum or Plasma"
            }
          ],
          "text": "Carbon dioxide, total [Moles/volume] in Serum or Plasma"
        },
        "valueQuantity": {
          "system": "http://unitsofmeasure.org",
          "value": 27.2,
          "unit": "mmol/L",
          "code": "mmol/L"
        },
        "referenceRange": [
          {
            "low": {
              "value": 22,
              "code": "mmol/L",
              "system": "http://unitsofmeasure.org"
            }
          },
          {
            "high": {
              "value": 29,
              "code": "mmol/L",
              "system": "http://unitsofmeasure.org"
            }
          }
        ],
        "text": {
          "status": "generated",
          "div": "<div xmlns=\"http://www.w3.org/1999/xhtml\"><table class=\"hl7__eu__lab__report\"><tr><th>Test</th><th>10-Dec-2020</th><th>Reference&#xA0;Range</th><th>Unit</th></tr><tr><td>Carbon dioxide, total [Moles/volume] in Serum or Plasma</td><td>27.2</td><td>22 - 29</td><td></td><td>mmol/L</td></tr></table></div>"
        },
        "status": "final",
        "subject": {
          "reference": "urn:uuid:9560bea0-2b2a-4900-b030-135f9948b086",
          "display": "Pelayo Casal"
        },
        "effectiveDateTime": "2020-12-10T05:38:59Z",
        "specimen": {
          "reference": "urn:uuid:fdc3988f-1e59-45ae-8e5a-0c77e09e66ac"
        }
      }
    },
    {
      "fullUrl": "urn:uuid:4190c752-b7a4-445b-8659-1abee813f3bd",
      "resource": {
        "resourceType": "Observation",
        "id": "4190c752-b7a4-445b-8659-1abee813f3bd",
        "meta": {
          "profile": [
            "http://hl7.eu/fhir/laboratory/StructureDefinition/Observation-resultslab-eu-lab"
          ]
        },
        "performer": [
          {
            "display": "The Central European Lab"
          }
        ],
        "category": [
          {
            "coding": [
              {
                "system": "http://terminology.hl7.org/CodeSystem/observation-category",
                "code": "laboratory"
              }
            ]
          }
        ],
        "code": {
          "coding": [
            {
              "code": "5767-9",
              "system": "http://loinc.org",
              "display": "Appearance of Urine"
            }
          ],
          "text": "Appearance of Urine"
        },
        "text": {
          "status": "generated",
          "div": "<div xmlns=\"http://www.w3.org/1999/xhtml\"><table class=\"hl7__eu__lab__report\"><tr><th>Test</th><th>10-Dec-2020</th><th>Reference&#xA0;Range</th><th>Unit</th></tr><tr><td>Appearance of Urine</td></tr></table></div>"
        },
        "status": "final",
        "subject": {
          "reference": "urn:uuid:9560bea0-2b2a-4900-b030-135f9948b086",
          "display": "Pelayo Casal"
        },
        "effectiveDateTime": "2020-12-10T05:38:59Z",
        "specimen": {
          "reference": "urn:uuid:dde3c697-6bd9-42b6-9528-f8661579cea3"
        }
      }
    },
    {
      "fullUrl": "urn:uuid:68ed7be5-a55c-4728-a2e0-d381031084da",
      "resource": {
        "resourceType": "Observation",
        "id": "68ed7be5-a55c-4728-a2e0-d381031084da",
        "meta": {
          "profile": [
            "http://hl7.eu/fhir/laboratory/StructureDefinition/Observation-resultslab-eu-lab"
          ]
        },
        "performer": [
          {
            "display": "The Central European Lab"
          }
        ],
        "category": [
          {
            "coding": [
              {
                "system": "http://terminology.hl7.org/CodeSystem/observation-category",
                "code": "laboratory"
              }
            ]
          }
        ],
        "code": {
          "coding": [
            {
              "code": "34533-0",
              "system": "http://loinc.org",
              "display": "Odor of Urine"
            }
          ],
          "text": "Odor of Urine"
        },
        "text": {
          "status": "generated",
          "div": "<div xmlns=\"http://www.w3.org/1999/xhtml\"><table class=\"hl7__eu__lab__report\"><tr><th>Test</th><th>10-Dec-2020</th><th>Reference&#xA0;Range</th><th>Unit</th></tr><tr><td>Odor of Urine</td></tr></table></div>"
        },
        "status": "final",
        "subject": {
          "reference": "urn:uuid:9560bea0-2b2a-4900-b030-135f9948b086",
          "display": "Pelayo Casal"
        },
        "effectiveDateTime": "2020-12-10T05:38:59Z",
        "specimen": {
          "reference": "urn:uuid:dde3c697-6bd9-42b6-9528-f8661579cea3"
        }
      }
    },
    {
      "fullUrl": "urn:uuid:d9211d13-98b6-4dd5-8035-601f629effa6",
      "resource": {
        "resourceType": "Observation",
        "id": "d9211d13-98b6-4dd5-8035-601f629effa6",
        "meta": {
          "profile": [
            "http://hl7.eu/fhir/laboratory/StructureDefinition/Observation-resultslab-eu-lab"
          ]
        },
        "performer": [
          {
            "display": "The Central European Lab"
          }
        ],
        "category": [
          {
            "coding": [
              {
                "system": "http://terminology.hl7.org/CodeSystem/observation-category",
                "code": "laboratory"
              }
            ]
          }
        ],
        "code": {
          "coding": [
            {
              "code": "32167-9",
              "system": "http://loinc.org",
              "display": "Clarity of Urine"
            }
          ],
          "text": "Clarity of Urine"
        },
        "text": {
          "status": "generated",
          "div": "<div xmlns=\"http://www.w3.org/1999/xhtml\"><table class=\"hl7__eu__lab__report\"><tr><th>Test</th><th>10-Dec-2020</th><th>Reference&#xA0;Range</th><th>Unit</th></tr><tr><td>Clarity of Urine</td></tr></table></div>"
        },
        "status": "final",
        "subject": {
          "reference": "urn:uuid:9560bea0-2b2a-4900-b030-135f9948b086",
          "display": "Pelayo Casal"
        },
        "effectiveDateTime": "2020-12-10T05:38:59Z",
        "specimen": {
          "reference": "urn:uuid:dde3c697-6bd9-42b6-9528-f8661579cea3"
        }
      }
    },
    {
      "fullUrl": "urn:uuid:ec18e437-c960-42c5-8640-b9e9a88fc4fb",
      "resource": {
        "resourceType": "Observation",
        "id": "ec18e437-c960-42c5-8640-b9e9a88fc4fb",
        "meta": {
          "profile": [
            "http://hl7.eu/fhir/laboratory/StructureDefinition/Observation-resultslab-eu-lab"
          ]
        },
        "performer": [
          {
            "display": "The Central European Lab"
          }
        ],
        "category": [
          {
            "coding": [
              {
                "system": "http://terminology.hl7.org/CodeSystem/observation-category",
                "code": "laboratory"
              }
            ]
          }
        ],
        "code": {
          "coding": [
            {
              "code": "5778-6",
              "system": "http://loinc.org",
              "display": "Color of Urine"
            }
          ],
          "text": "Color of Urine"
        },
        "text": {
          "status": "generated",
          "div": "<div xmlns=\"http://www.w3.org/1999/xhtml\"><table class=\"hl7__eu__lab__report\"><tr><th>Test</th><th>10-Dec-2020</th><th>Reference&#xA0;Range</th><th>Unit</th></tr><tr><td>Color of Urine</td></tr></table></div>"
        },
        "status": "final",
        "subject": {
          "reference": "urn:uuid:9560bea0-2b2a-4900-b030-135f9948b086",
          "display": "Pelayo Casal"
        },
        "effectiveDateTime": "2020-12-10T05:38:59Z",
        "specimen": {
          "reference": "urn:uuid:dde3c697-6bd9-42b6-9528-f8661579cea3"
        }
      }
    },
    {
      "fullUrl": "urn:uuid:dad07173-0e49-4b7f-9a83-566eeedd42d2",
      "resource": {
        "resourceType": "Observation",
        "id": "dad07173-0e49-4b7f-9a83-566eeedd42d2",
        "meta": {
          "profile": [
            "http://hl7.eu/fhir/laboratory/StructureDefinition/Observation-resultslab-eu-lab"
          ]
        },
        "performer": [
          {
            "display": "The Central European Lab"
          }
        ],
        "category": [
          {
            "coding": [
              {
                "system": "http://terminology.hl7.org/CodeSystem/observation-category",
                "code": "laboratory"
              }
            ]
          }
        ],
        "code": {
          "coding": [
            {
              "code": "5792-7",
              "system": "http://loinc.org",
              "display": "Glucose [Mass/volume] in Urine by Test strip"
            }
          ],
          "text": "Glucose [Mass/volume] in Urine by Test strip"
        },
        "valueQuantity": {
          "system": "http://unitsofmeasure.org",
          "value": 0.7,
          "unit": "mg/dL",
          "code": "mg/dL"
        },
        "referenceRange": [
          {
            "low": {
              "value": 0.8,
              "code": "mg/dL",
              "system": "http://unitsofmeasure.org"
            }
          },
          {
            "high": {
              "value": 0,
              "code": "mg/dL",
              "system": "http://unitsofmeasure.org"
            }
          }
        ],
        "interpretation": [
          {
            "coding": [
              {
                "code": "L",
                "system": "http://terminology.hl7.org/CodeSystem/v3-ObservationInterpretation",
                "display": "Low"
              }
            ]
          }
        ],
        "text": {
          "status": "generated",
          "div": "<div xmlns=\"http://www.w3.org/1999/xhtml\"><table class=\"hl7__eu__lab__report\"><tr><th>Test</th><th>10-Dec-2020</th><th>Reference&#xA0;Range</th><th>Unit</th></tr><tr><td>Glucose [Mass/volume] in Urine by Test strip</td><td>0.7</td><td>0.8 - 0</td><td>L</td><td>mg/dL</td></tr></table></div>"
        },
        "status": "final",
        "subject": {
          "reference": "urn:uuid:9560bea0-2b2a-4900-b030-135f9948b086",
          "display": "Pelayo Casal"
        },
        "effectiveDateTime": "2020-12-10T05:38:59Z",
        "specimen": {
          "reference": "urn:uuid:dde3c697-6bd9-42b6-9528-f8661579cea3"
        }
      }
    },
    {
      "fullUrl": "urn:uuid:99c3709c-7e54-4137-a44d-90eced8a41fd",
      "resource": {
        "resourceType": "Observation",
        "id": "99c3709c-7e54-4137-a44d-90eced8a41fd",
        "meta": {
          "profile": [
            "http://hl7.eu/fhir/laboratory/StructureDefinition/Observation-resultslab-eu-lab"
          ]
        },
        "performer": [
          {
            "display": "The Central European Lab"
          }
        ],
        "category": [
          {
            "coding": [
              {
                "system": "http://terminology.hl7.org/CodeSystem/observation-category",
                "code": "laboratory"
              }
            ]
          }
        ],
        "code": {
          "coding": [
            {
              "code": "25428-4",
              "system": "http://loinc.org",
              "display": "Glucose [Presence] in Urine by Test strip"
            }
          ],
          "text": "Glucose [Presence] in Urine by Test strip"
        },
        "text": {
          "status": "generated",
          "div": "<div xmlns=\"http://www.w3.org/1999/xhtml\"><table class=\"hl7__eu__lab__report\"><tr><th>Test</th><th>10-Dec-2020</th><th>Reference&#xA0;Range</th><th>Unit</th></tr><tr><td>Glucose [Presence] in Urine by Test strip</td></tr></table></div>"
        },
        "status": "final",
        "subject": {
          "reference": "urn:uuid:9560bea0-2b2a-4900-b030-135f9948b086",
          "display": "Pelayo Casal"
        },
        "effectiveDateTime": "2020-12-10T05:38:59Z",
        "specimen": {
          "reference": "urn:uuid:dde3c697-6bd9-42b6-9528-f8661579cea3"
        }
      }
    },
    {
      "fullUrl": "urn:uuid:86b2d930-8a8f-4e18-a3ce-6f40fdb19303",
      "resource": {
        "resourceType": "Observation",
        "id": "86b2d930-8a8f-4e18-a3ce-6f40fdb19303",
        "meta": {
          "profile": [
            "http://hl7.eu/fhir/laboratory/StructureDefinition/Observation-resultslab-eu-lab"
          ]
        },
        "performer": [
          {
            "display": "The Central European Lab"
          }
        ],
        "category": [
          {
            "coding": [
              {
                "system": "http://terminology.hl7.org/CodeSystem/observation-category",
                "code": "laboratory"
              }
            ]
          }
        ],
        "code": {
          "coding": [
            {
              "code": "20505-4",
              "system": "http://loinc.org",
              "display": "Bilirubin.total [Mass/volume] in Urine by Test strip"
            }
          ],
          "text": "Bilirubin.total [Mass/volume] in Urine by Test strip"
        },
        "valueQuantity": {
          "system": "http://unitsofmeasure.org",
          "value": 0.4,
          "unit": "mg/dL",
          "code": "mg/dL"
        },
        "referenceRange": [
          {
            "low": {
              "value": 0.2,
              "code": "mg/dL",
              "system": "http://unitsofmeasure.org"
            }
          },
          {
            "high": {
              "value": 1.5,
              "code": "mg/dL",
              "system": "http://unitsofmeasure.org"
            }
          }
        ],
        "text": {
          "status": "generated",
          "div": "<div xmlns=\"http://www.w3.org/1999/xhtml\"><table class=\"hl7__eu__lab__report\"><tr><th>Test</th><th>10-Dec-2020</th><th>Reference&#xA0;Range</th><th>Unit</th></tr><tr><td>Bilirubin.total [Mass/volume] in Urine by Test strip</td><td>0.4</td><td>0.2 - 1.5</td><td></td><td>mg/dL</td></tr></table></div>"
        },
        "status": "final",
        "subject": {
          "reference": "urn:uuid:9560bea0-2b2a-4900-b030-135f9948b086",
          "display": "Pelayo Casal"
        },
        "effectiveDateTime": "2020-12-10T05:38:59Z",
        "specimen": {
          "reference": "urn:uuid:dde3c697-6bd9-42b6-9528-f8661579cea3"
        }
      }
    },
    {
      "fullUrl": "urn:uuid:c97f5866-731d-42a3-9b07-eeccac569e3e",
      "resource": {
        "resourceType": "Observation",
        "id": "c97f5866-731d-42a3-9b07-eeccac569e3e",
        "meta": {
          "profile": [
            "http://hl7.eu/fhir/laboratory/StructureDefinition/Observation-resultslab-eu-lab"
          ]
        },
        "performer": [
          {
            "display": "The Central European Lab"
          }
        ],
        "category": [
          {
            "coding": [
              {
                "system": "http://terminology.hl7.org/CodeSystem/observation-category",
                "code": "laboratory"
              }
            ]
          }
        ],
        "code": {
          "coding": [
            {
              "code": "5770-3",
              "system": "http://loinc.org",
              "display": "Bilirubin.total [Presence] in Urine by Test strip"
            }
          ],
          "text": "Bilirubin.total [Presence] in Urine by Test strip"
        },
        "text": {
          "status": "generated",
          "div": "<div xmlns=\"http://www.w3.org/1999/xhtml\"><table class=\"hl7__eu__lab__report\"><tr><th>Test</th><th>10-Dec-2020</th><th>Reference&#xA0;Range</th><th>Unit</th></tr><tr><td>Bilirubin.total [Presence] in Urine by Test strip</td></tr></table></div>"
        },
        "status": "final",
        "subject": {
          "reference": "urn:uuid:9560bea0-2b2a-4900-b030-135f9948b086",
          "display": "Pelayo Casal"
        },
        "effectiveDateTime": "2020-12-10T05:38:59Z",
        "specimen": {
          "reference": "urn:uuid:dde3c697-6bd9-42b6-9528-f8661579cea3"
        }
      }
    },
    {
      "fullUrl": "urn:uuid:6f84e1d4-7cb6-47e4-9dd3-2e3b11f2e52a",
      "resource": {
        "resourceType": "Observation",
        "id": "6f84e1d4-7cb6-47e4-9dd3-2e3b11f2e52a",
        "meta": {
          "profile": [
            "http://hl7.eu/fhir/laboratory/StructureDefinition/Observation-resultslab-eu-lab"
          ]
        },
        "performer": [
          {
            "display": "The Central European Lab"
          }
        ],
        "category": [
          {
            "coding": [
              {
                "system": "http://terminology.hl7.org/CodeSystem/observation-category",
                "code": "laboratory"
              }
            ]
          }
        ],
        "code": {
          "coding": [
            {
              "code": "5797-6",
              "system": "http://loinc.org",
              "display": "Ketones [Mass/volume] in Urine by Test strip"
            }
          ],
          "text": "Ketones [Mass/volume] in Urine by Test strip"
        },
        "valueQuantity": {
          "system": "http://unitsofmeasure.org",
          "value": 11.5,
          "unit": "mg/dL",
          "code": "mg/dL"
        },
        "referenceRange": [
          {
            "low": {
              "value": 0,
              "code": "mg/dL",
              "system": "http://unitsofmeasure.org"
            }
          },
          {
            "high": {
              "value": 4,
              "code": "mg/dL",
              "system": "http://unitsofmeasure.org"
            }
          }
        ],
        "interpretation": [
          {
            "coding": [
              {
                "code": "H",
                "system": "http://terminology.hl7.org/CodeSystem/v3-ObservationInterpretation",
                "display": "High"
              }
            ]
          }
        ],
        "text": {
          "status": "generated",
          "div": "<div xmlns=\"http://www.w3.org/1999/xhtml\"><table class=\"hl7__eu__lab__report\"><tr><th>Test</th><th>10-Dec-2020</th><th>Reference&#xA0;Range</th><th>Unit</th></tr><tr><td>Ketones [Mass/volume] in Urine by Test strip</td><td>11.5</td><td>0 - 4</td><td>H</td><td>mg/dL</td></tr></table></div>"
        },
        "status": "final",
        "subject": {
          "reference": "urn:uuid:9560bea0-2b2a-4900-b030-135f9948b086",
          "display": "Pelayo Casal"
        },
        "effectiveDateTime": "2020-12-10T05:38:59Z",
        "specimen": {
          "reference": "urn:uuid:dde3c697-6bd9-42b6-9528-f8661579cea3"
        }
      }
    },
    {
      "fullUrl": "urn:uuid:d89fbd3f-0bf3-4655-b5b3-c6a3bd3cdf41",
      "resource": {
        "resourceType": "Observation",
        "id": "d89fbd3f-0bf3-4655-b5b3-c6a3bd3cdf41",
        "meta": {
          "profile": [
            "http://hl7.eu/fhir/laboratory/StructureDefinition/Observation-resultslab-eu-lab"
          ]
        },
        "performer": [
          {
            "display": "The Central European Lab"
          }
        ],
        "category": [
          {
            "coding": [
              {
                "system": "http://terminology.hl7.org/CodeSystem/observation-category",
                "code": "laboratory"
              }
            ]
          }
        ],
        "code": {
          "coding": [
            {
              "code": "2514-8",
              "system": "http://loinc.org",
              "display": "Ketones [Presence] in Urine by Test strip"
            }
          ],
          "text": "Ketones [Presence] in Urine by Test strip"
        },
        "text": {
          "status": "generated",
          "div": "<div xmlns=\"http://www.w3.org/1999/xhtml\"><table class=\"hl7__eu__lab__report\"><tr><th>Test</th><th>10-Dec-2020</th><th>Reference&#xA0;Range</th><th>Unit</th></tr><tr><td>Ketones [Presence] in Urine by Test strip</td></tr></table></div>"
        },
        "status": "final",
        "subject": {
          "reference": "urn:uuid:9560bea0-2b2a-4900-b030-135f9948b086",
          "display": "Pelayo Casal"
        },
        "effectiveDateTime": "2020-12-10T05:38:59Z",
        "specimen": {
          "reference": "urn:uuid:dde3c697-6bd9-42b6-9528-f8661579cea3"
        }
      }
    },
    {
      "fullUrl": "urn:uuid:9922944c-4171-44c0-8d03-9c763ae3d572",
      "resource": {
        "resourceType": "Observation",
        "id": "9922944c-4171-44c0-8d03-9c763ae3d572",
        "meta": {
          "profile": [
            "http://hl7.eu/fhir/laboratory/StructureDefinition/Observation-resultslab-eu-lab"
          ]
        },
        "performer": [
          {
            "display": "The Central European Lab"
          }
        ],
        "category": [
          {
            "coding": [
              {
                "system": "http://terminology.hl7.org/CodeSystem/observation-category",
                "code": "laboratory"
              }
            ]
          }
        ],
        "code": {
          "coding": [
            {
              "code": "5811-5",
              "system": "http://loinc.org",
              "display": "Specific gravity of Urine by Test strip"
            }
          ],
          "text": "Specific gravity of Urine by Test strip"
        },
        "valueQuantity": {
          "system": "http://unitsofmeasure.org",
          "value": 1,
          "unit": "{nominal}",
          "code": "{nominal}"
        },
        "referenceRange": [
          {
            "low": {
              "value": 1.01,
              "code": "g/mL",
              "system": "http://unitsofmeasure.org"
            }
          },
          {
            "high": {
              "value": 1.03,
              "code": "g/mL",
              "system": "http://unitsofmeasure.org"
            }
          }
        ],
        "interpretation": [
          {
            "coding": [
              {
                "code": "L",
                "system": "http://terminology.hl7.org/CodeSystem/v3-ObservationInterpretation",
                "display": "Low"
              }
            ]
          }
        ],
        "text": {
          "status": "generated",
          "div": "<div xmlns=\"http://www.w3.org/1999/xhtml\"><table class=\"hl7__eu__lab__report\"><tr><th>Test</th><th>10-Dec-2020</th><th>Reference&#xA0;Range</th><th>Unit</th></tr><tr><td>Specific gravity of Urine by Test strip</td><td>1.0</td><td>1.01 - 1.03</td><td>L</td><td>{nominal}</td></tr></table></div>"
        },
        "status": "final",
        "subject": {
          "reference": "urn:uuid:9560bea0-2b2a-4900-b030-135f9948b086",
          "display": "Pelayo Casal"
        },
        "effectiveDateTime": "2020-12-10T05:38:59Z",
        "specimen": {
          "reference": "urn:uuid:dde3c697-6bd9-42b6-9528-f8661579cea3"
        }
      }
    },
    {
      "fullUrl": "urn:uuid:155d7d41-55be-4c91-a17b-6b3836a2a13f",
      "resource": {
        "resourceType": "Observation",
        "id": "155d7d41-55be-4c91-a17b-6b3836a2a13f",
        "meta": {
          "profile": [
            "http://hl7.eu/fhir/laboratory/StructureDefinition/Observation-resultslab-eu-lab"
          ]
        },
        "performer": [
          {
            "display": "The Central European Lab"
          }
        ],
        "category": [
          {
            "coding": [
              {
                "system": "http://terminology.hl7.org/CodeSystem/observation-category",
                "code": "laboratory"
              }
            ]
          }
        ],
        "code": {
          "coding": [
            {
              "code": "5803-2",
              "system": "http://loinc.org",
              "display": "pH of Urine by Test strip"
            }
          ],
          "text": "pH of Urine by Test strip"
        },
        "valueQuantity": {
          "system": "http://unitsofmeasure.org",
          "value": 6.8,
          "unit": "pH",
          "code": "pH"
        },
        "referenceRange": [
          {
            "low": {
              "value": 4.5,
              "code": "pH",
              "system": "http://unitsofmeasure.org"
            }
          },
          {
            "high": {
              "value": 7.5,
              "code": "pH",
              "system": "http://unitsofmeasure.org"
            }
          }
        ],
        "text": {
          "status": "generated",
          "div": "<div xmlns=\"http://www.w3.org/1999/xhtml\"><table class=\"hl7__eu__lab__report\"><tr><th>Test</th><th>10-Dec-2020</th><th>Reference&#xA0;Range</th><th>Unit</th></tr><tr><td>pH of Urine by Test strip</td><td>6.8</td><td>4.5 - 7.5</td><td></td><td>pH</td></tr></table></div>"
        },
        "status": "final",
        "subject": {
          "reference": "urn:uuid:9560bea0-2b2a-4900-b030-135f9948b086",
          "display": "Pelayo Casal"
        },
        "effectiveDateTime": "2020-12-10T05:38:59Z",
        "specimen": {
          "reference": "urn:uuid:dde3c697-6bd9-42b6-9528-f8661579cea3"
        }
      }
    },
    {
      "fullUrl": "urn:uuid:61515024-8adb-40ba-92ac-198974837691",
      "resource": {
        "resourceType": "Observation",
        "id": "61515024-8adb-40ba-92ac-198974837691",
        "meta": {
          "profile": [
            "http://hl7.eu/fhir/laboratory/StructureDefinition/Observation-resultslab-eu-lab"
          ]
        },
        "performer": [
          {
            "display": "The Central European Lab"
          }
        ],
        "category": [
          {
            "coding": [
              {
                "system": "http://terminology.hl7.org/CodeSystem/observation-category",
                "code": "laboratory"
              }
            ]
          }
        ],
        "code": {
          "coding": [
            {
              "code": "5804-0",
              "system": "http://loinc.org",
              "display": "Protein [Mass/volume] in Urine by Test strip"
            }
          ],
          "text": "Protein [Mass/volume] in Urine by Test strip"
        },
        "valueQuantity": {
          "system": "http://unitsofmeasure.org",
          "value": 259.1,
          "unit": "mg/dL",
          "code": "mg/dL"
        },
        "referenceRange": [
          {
            "low": {
              "value": 0,
              "code": "mg/dL",
              "system": "http://unitsofmeasure.org"
            }
          },
          {
            "high": {
              "value": 150,
              "code": "mg/dL",
              "system": "http://unitsofmeasure.org"
            }
          }
        ],
        "interpretation": [
          {
            "coding": [
              {
                "code": "H",
                "system": "http://terminology.hl7.org/CodeSystem/v3-ObservationInterpretation",
                "display": "High"
              }
            ]
          }
        ],
        "text": {
          "status": "generated",
          "div": "<div xmlns=\"http://www.w3.org/1999/xhtml\"><table class=\"hl7__eu__lab__report\"><tr><th>Test</th><th>10-Dec-2020</th><th>Reference&#xA0;Range</th><th>Unit</th></tr><tr><td>Protein [Mass/volume] in Urine by Test strip</td><td>259.1</td><td>0 - 150</td><td>H</td><td>mg/dL</td></tr></table></div>"
        },
        "status": "final",
        "subject": {
          "reference": "urn:uuid:9560bea0-2b2a-4900-b030-135f9948b086",
          "display": "Pelayo Casal"
        },
        "effectiveDateTime": "2020-12-10T05:38:59Z",
        "specimen": {
          "reference": "urn:uuid:dde3c697-6bd9-42b6-9528-f8661579cea3"
        }
      }
    },
    {
      "fullUrl": "urn:uuid:486e2418-eeab-4420-ae79-442374158bda",
      "resource": {
        "resourceType": "Observation",
        "id": "486e2418-eeab-4420-ae79-442374158bda",
        "meta": {
          "profile": [
            "http://hl7.eu/fhir/laboratory/StructureDefinition/Observation-resultslab-eu-lab"
          ]
        },
        "performer": [
          {
            "display": "The Central European Lab"
          }
        ],
        "category": [
          {
            "coding": [
              {
                "system": "http://terminology.hl7.org/CodeSystem/observation-category",
                "code": "laboratory"
              }
            ]
          }
        ],
        "code": {
          "coding": [
            {
              "code": "20454-5",
              "system": "http://loinc.org",
              "display": "Protein [Presence] in Urine by Test strip"
            }
          ],
          "text": "Protein [Presence] in Urine by Test strip"
        },
        "text": {
          "status": "generated",
          "div": "<div xmlns=\"http://www.w3.org/1999/xhtml\"><table class=\"hl7__eu__lab__report\"><tr><th>Test</th><th>10-Dec-2020</th><th>Reference&#xA0;Range</th><th>Unit</th></tr><tr><td>Protein [Presence] in Urine by Test strip</td></tr></table></div>"
        },
        "status": "final",
        "subject": {
          "reference": "urn:uuid:9560bea0-2b2a-4900-b030-135f9948b086",
          "display": "Pelayo Casal"
        },
        "effectiveDateTime": "2020-12-10T05:38:59Z",
        "specimen": {
          "reference": "urn:uuid:dde3c697-6bd9-42b6-9528-f8661579cea3"
        }
      }
    },
    {
      "fullUrl": "urn:uuid:536707f2-d0a4-4512-a708-60d0be339038",
      "resource": {
        "resourceType": "Observation",
        "id": "536707f2-d0a4-4512-a708-60d0be339038",
        "meta": {
          "profile": [
            "http://hl7.eu/fhir/laboratory/StructureDefinition/Observation-resultslab-eu-lab"
          ]
        },
        "performer": [
          {
            "display": "The Central European Lab"
          }
        ],
        "category": [
          {
            "coding": [
              {
                "system": "http://terminology.hl7.org/CodeSystem/observation-category",
                "code": "laboratory"
              }
            ]
          }
        ],
        "code": {
          "coding": [
            {
              "code": "5802-4",
              "system": "http://loinc.org",
              "display": "Nitrite [Presence] in Urine by Test strip"
            }
          ],
          "text": "Nitrite [Presence] in Urine by Test strip"
        },
        "text": {
          "status": "generated",
          "div": "<div xmlns=\"http://www.w3.org/1999/xhtml\"><table class=\"hl7__eu__lab__report\"><tr><th>Test</th><th>10-Dec-2020</th><th>Reference&#xA0;Range</th><th>Unit</th></tr><tr><td>Nitrite [Presence] in Urine by Test strip</td></tr></table></div>"
        },
        "status": "final",
        "subject": {
          "reference": "urn:uuid:9560bea0-2b2a-4900-b030-135f9948b086",
          "display": "Pelayo Casal"
        },
        "effectiveDateTime": "2020-12-10T05:38:59Z",
        "specimen": {
          "reference": "urn:uuid:dde3c697-6bd9-42b6-9528-f8661579cea3"
        }
      }
    },
    {
      "fullUrl": "urn:uuid:260eb743-7df9-4781-97d6-bf907af4b6d6",
      "resource": {
        "resourceType": "Observation",
        "id": "260eb743-7df9-4781-97d6-bf907af4b6d6",
        "meta": {
          "profile": [
            "http://hl7.eu/fhir/laboratory/StructureDefinition/Observation-resultslab-eu-lab"
          ]
        },
        "performer": [
          {
            "display": "The Central European Lab"
          }
        ],
        "category": [
          {
            "coding": [
              {
                "system": "http://terminology.hl7.org/CodeSystem/observation-category",
                "code": "laboratory"
              }
            ]
          }
        ],
        "code": {
          "coding": [
            {
              "code": "5794-3",
              "system": "http://loinc.org",
              "display": "Hemoglobin [Presence] in Urine by Test strip"
            }
          ],
          "text": "Hemoglobin [Presence] in Urine by Test strip"
        },
        "text": {
          "status": "generated",
          "div": "<div xmlns=\"http://www.w3.org/1999/xhtml\"><table class=\"hl7__eu__lab__report\"><tr><th>Test</th><th>10-Dec-2020</th><th>Reference&#xA0;Range</th><th>Unit</th></tr><tr><td>Hemoglobin [Presence] in Urine by Test strip</td></tr></table></div>"
        },
        "status": "final",
        "subject": {
          "reference": "urn:uuid:9560bea0-2b2a-4900-b030-135f9948b086",
          "display": "Pelayo Casal"
        },
        "effectiveDateTime": "2020-12-10T05:38:59Z",
        "specimen": {
          "reference": "urn:uuid:dde3c697-6bd9-42b6-9528-f8661579cea3"
        }
      }
    },
    {
      "fullUrl": "urn:uuid:2df31d79-47b4-4aef-9534-e4d4b9ffc3da",
      "resource": {
        "resourceType": "Observation",
        "id": "2df31d79-47b4-4aef-9534-e4d4b9ffc3da",
        "meta": {
          "profile": [
            "http://hl7.eu/fhir/laboratory/StructureDefinition/Observation-resultslab-eu-lab"
          ]
        },
        "performer": [
          {
            "display": "The Central European Lab"
          }
        ],
        "category": [
          {
            "coding": [
              {
                "system": "http://terminology.hl7.org/CodeSystem/observation-category",
                "code": "laboratory"
              }
            ]
          }
        ],
        "code": {
          "coding": [
            {
              "code": "5799-2",
              "system": "http://loinc.org",
              "display": "Leukocyte esterase [Presence] in Urine by Test strip"
            }
          ],
          "text": "Leukocyte esterase [Presence] in Urine by Test strip"
        },
        "text": {
          "status": "generated",
          "div": "<div xmlns=\"http://www.w3.org/1999/xhtml\"><table class=\"hl7__eu__lab__report\"><tr><th>Test</th><th>10-Dec-2020</th><th>Reference&#xA0;Range</th><th>Unit</th></tr><tr><td>Leukocyte esterase [Presence] in Urine by Test strip</td></tr></table></div>"
        },
        "status": "final",
        "subject": {
          "reference": "urn:uuid:9560bea0-2b2a-4900-b030-135f9948b086",
          "display": "Pelayo Casal"
        },
        "effectiveDateTime": "2020-12-10T05:38:59Z",
        "specimen": {
          "reference": "urn:uuid:dde3c697-6bd9-42b6-9528-f8661579cea3"
        }
      }
    },
    {
      "fullUrl": "urn:uuid:8a647268-5107-4e2e-a5f5-c6f3dd08284d",
      "resource": {
        "resourceType": "Observation",
        "id": "8a647268-5107-4e2e-a5f5-c6f3dd08284d",
        "meta": {
          "profile": [
            "http://hl7.eu/fhir/laboratory/StructureDefinition/Observation-resultslab-eu-lab"
          ]
        },
        "performer": [
          {
            "display": "The Central European Lab"
          }
        ],
        "category": [
          {
            "coding": [
              {
                "system": "http://terminology.hl7.org/CodeSystem/observation-category",
                "code": "laboratory"
              }
            ]
          }
        ],
        "code": {
          "coding": [
            {
              "code": "4548-4",
              "system": "http://loinc.org",
              "display": "Hemoglobin A1c/Hemoglobin.total in Blood"
            }
          ],
          "text": "Hemoglobin A1c/Hemoglobin.total in Blood"
        },
        "valueQuantity": {
          "system": "http://unitsofmeasure.org",
          "value": 3.2,
          "unit": "%",
          "code": "%"
        },
        "referenceRange": [
          {
            "low": {
              "value": 4.5,
              "code": "%",
              "system": "http://unitsofmeasure.org"
            }
          },
          {
            "high": {
              "value": 6.4,
              "code": "%",
              "system": "http://unitsofmeasure.org"
            }
          }
        ],
        "interpretation": [
          {
            "coding": [
              {
                "code": "L",
                "system": "http://terminology.hl7.org/CodeSystem/v3-ObservationInterpretation",
                "display": "Low"
              }
            ]
          }
        ],
        "text": {
          "status": "generated",
          "div": "<div xmlns=\"http://www.w3.org/1999/xhtml\"><table class=\"hl7__eu__lab__report\"><tr><th>Test</th><th>10-Dec-2020</th><th>Reference&#xA0;Range</th><th>Unit</th></tr><tr><td>Hemoglobin A1c/Hemoglobin.total in Blood</td><td>3.2</td><td>4.5 - 6.4</td><td>L</td><td>%</td></tr></table></div>"
        },
        "status": "final",
        "subject": {
          "reference": "urn:uuid:9560bea0-2b2a-4900-b030-135f9948b086",
          "display": "Pelayo Casal"
        },
        "effectiveDateTime": "2020-12-10T05:38:59Z",
        "specimen": {
          "reference": "urn:uuid:745961de-5e6b-4fff-8e95-807d248335f3"
        }
      }
    },
    {
      "fullUrl": "urn:uuid:552af22d-c392-46ef-ab80-5491f3606c3f",
      "resource": {
        "resourceType": "Observation",
        "id": "552af22d-c392-46ef-ab80-5491f3606c3f",
        "meta": {
          "profile": [
            "http://hl7.eu/fhir/laboratory/StructureDefinition/Observation-resultslab-eu-lab"
          ]
        },
        "performer": [
          {
            "display": "The Central European Lab"
          }
        ],
        "category": [
          {
            "coding": [
              {
                "system": "http://terminology.hl7.org/CodeSystem/observation-category",
                "code": "laboratory"
              }
            ]
          }
        ],
        "code": {
          "coding": [
            {
              "code": "2339-0",
              "system": "http://loinc.org",
              "display": "Glucose [Mass/volume] in Blood"
            }
          ],
          "text": "Glucose [Mass/volume] in Blood"
        },
        "valueQuantity": {
          "system": "http://unitsofmeasure.org",
          "value": 90.4,
          "unit": "mg/dL",
          "code": "mg/dL"
        },
        "referenceRange": [
          {
            "low": {
              "value": 70,
              "code": "mg/dL",
              "system": "http://unitsofmeasure.org"
            }
          },
          {
            "high": {
              "value": 140,
              "code": "mg/dL",
              "system": "http://unitsofmeasure.org"
            }
          }
        ],
        "text": {
          "status": "generated",
          "div": "<div xmlns=\"http://www.w3.org/1999/xhtml\"><table class=\"hl7__eu__lab__report\"><tr><th>Test</th><th>10-Dec-2020</th><th>Reference&#xA0;Range</th><th>Unit</th></tr><tr><td>Glucose [Mass/volume] in Blood</td><td>90.4</td><td>70 - 140</td><td></td><td>mg/dL</td></tr></table></div>"
        },
        "status": "final",
        "subject": {
          "reference": "urn:uuid:9560bea0-2b2a-4900-b030-135f9948b086",
          "display": "Pelayo Casal"
        },
        "effectiveDateTime": "2020-12-10T05:38:59Z",
        "specimen": {
          "reference": "urn:uuid:745961de-5e6b-4fff-8e95-807d248335f3"
        }
      }
    },
    {
      "fullUrl": "urn:uuid:e4563fb9-a087-43ba-b63b-4595a7b24dd6",
      "resource": {
        "resourceType": "Observation",
        "id": "e4563fb9-a087-43ba-b63b-4595a7b24dd6",
        "meta": {
          "profile": [
            "http://hl7.eu/fhir/laboratory/StructureDefinition/Observation-resultslab-eu-lab"
          ]
        },
        "performer": [
          {
            "display": "The Central European Lab"
          }
        ],
        "category": [
          {
            "coding": [
              {
                "system": "http://terminology.hl7.org/CodeSystem/observation-category",
                "code": "laboratory"
              }
            ]
          }
        ],
        "code": {
          "coding": [
            {
              "code": "6299-2",
              "system": "http://loinc.org",
              "display": "Urea nitrogen [Mass/volume] in Blood"
            }
          ],
          "text": "Urea nitrogen [Mass/volume] in Blood"
        },
        "valueQuantity": {
          "system": "http://unitsofmeasure.org",
          "value": 12.9,
          "unit": "mg/dL",
          "code": "mg/dL"
        },
        "referenceRange": [
          {
            "low": {
              "value": 7,
              "code": "mg/dL",
              "system": "http://unitsofmeasure.org"
            }
          },
          {
            "high": {
              "value": 25,
              "code": "mg/dL",
              "system": "http://unitsofmeasure.org"
            }
          }
        ],
        "text": {
          "status": "generated",
          "div": "<div xmlns=\"http://www.w3.org/1999/xhtml\"><table class=\"hl7__eu__lab__report\"><tr><th>Test</th><th>10-Dec-2020</th><th>Reference&#xA0;Range</th><th>Unit</th></tr><tr><td>Urea nitrogen [Mass/volume] in Blood</td><td>12.9</td><td>7 - 25</td><td></td><td>mg/dL</td></tr></table></div>"
        },
        "status": "final",
        "subject": {
          "reference": "urn:uuid:9560bea0-2b2a-4900-b030-135f9948b086",
          "display": "Pelayo Casal"
        },
        "effectiveDateTime": "2020-12-10T05:38:59Z",
        "specimen": {
          "reference": "urn:uuid:745961de-5e6b-4fff-8e95-807d248335f3"
        }
      }
    },
    {
      "fullUrl": "urn:uuid:e3e06fd2-e207-4f61-9df1-b419a02580b0",
      "resource": {
        "resourceType": "Observation",
        "id": "e3e06fd2-e207-4f61-9df1-b419a02580b0",
        "meta": {
          "profile": [
            "http://hl7.eu/fhir/laboratory/StructureDefinition/Observation-resultslab-eu-lab"
          ]
        },
        "performer": [
          {
            "display": "The Central European Lab"
          }
        ],
        "category": [
          {
            "coding": [
              {
                "system": "http://terminology.hl7.org/CodeSystem/observation-category",
                "code": "laboratory"
              }
            ]
          }
        ],
        "code": {
          "coding": [
            {
              "code": "38483-4",
              "system": "http://loinc.org",
              "display": "Creatinine [Mass/volume] in Blood"
            }
          ],
          "text": "Creatinine [Mass/volume] in Blood"
        },
        "valueQuantity": {
          "system": "http://unitsofmeasure.org",
          "value": 2.2,
          "unit": "mg/dL",
          "code": "mg/dL"
        },
        "referenceRange": [
          {
            "low": {
              "value": 0.9,
              "code": "mg/dL",
              "system": "http://unitsofmeasure.org"
            }
          },
          {
            "high": {
              "value": 1.3,
              "code": "mg/dL",
              "system": "http://unitsofmeasure.org"
            }
          }
        ],
        "interpretation": [
          {
            "coding": [
              {
                "code": "H",
                "system": "http://terminology.hl7.org/CodeSystem/v3-ObservationInterpretation",
                "display": "High"
              }
            ]
          }
        ],
        "text": {
          "status": "generated",
          "div": "<div xmlns=\"http://www.w3.org/1999/xhtml\"><table class=\"hl7__eu__lab__report\"><tr><th>Test</th><th>10-Dec-2020</th><th>Reference&#xA0;Range</th><th>Unit</th></tr><tr><td>Creatinine [Mass/volume] in Blood</td><td>2.2</td><td>0.9 - 1.3</td><td>H</td><td>mg/dL</td></tr></table></div>"
        },
        "status": "final",
        "subject": {
          "reference": "urn:uuid:9560bea0-2b2a-4900-b030-135f9948b086",
          "display": "Pelayo Casal"
        },
        "effectiveDateTime": "2020-12-10T05:38:59Z",
        "specimen": {
          "reference": "urn:uuid:745961de-5e6b-4fff-8e95-807d248335f3"
        }
      }
    },
    {
      "fullUrl": "urn:uuid:976d749f-45d0-472d-a70a-834fadd8919c",
      "resource": {
        "resourceType": "Observation",
        "id": "976d749f-45d0-472d-a70a-834fadd8919c",
        "meta": {
          "profile": [
            "http://hl7.eu/fhir/laboratory/StructureDefinition/Observation-resultslab-eu-lab"
          ]
        },
        "performer": [
          {
            "display": "The Central European Lab"
          }
        ],
        "category": [
          {
            "coding": [
              {
                "system": "http://terminology.hl7.org/CodeSystem/observation-category",
                "code": "laboratory"
              }
            ]
          }
        ],
        "code": {
          "coding": [
            {
              "code": "49765-1",
              "system": "http://loinc.org",
              "display": "Calcium [Mass/volume] in Blood"
            }
          ],
          "text": "Calcium [Mass/volume] in Blood"
        },
        "valueQuantity": {
          "system": "http://unitsofmeasure.org",
          "value": 9.8,
          "unit": "mg/dL",
          "code": "mg/dL"
        },
        "referenceRange": [
          {
            "low": {
              "value": 8.6,
              "code": "mg/dL",
              "system": "http://unitsofmeasure.org"
            }
          },
          {
            "high": {
              "value": 10.2,
              "code": "mg/dL",
              "system": "http://unitsofmeasure.org"
            }
          }
        ],
        "text": {
          "status": "generated",
          "div": "<div xmlns=\"http://www.w3.org/1999/xhtml\"><table class=\"hl7__eu__lab__report\"><tr><th>Test</th><th>10-Dec-2020</th><th>Reference&#xA0;Range</th><th>Unit</th></tr><tr><td>Calcium [Mass/volume] in Blood</td><td>9.8</td><td>8.6 - 10.2</td><td></td><td>mg/dL</td></tr></table></div>"
        },
        "status": "final",
        "subject": {
          "reference": "urn:uuid:9560bea0-2b2a-4900-b030-135f9948b086",
          "display": "Pelayo Casal"
        },
        "effectiveDateTime": "2020-12-10T05:38:59Z",
        "specimen": {
          "reference": "urn:uuid:745961de-5e6b-4fff-8e95-807d248335f3"
        }
      }
    },
    {
      "fullUrl": "urn:uuid:be35f82c-354e-42fc-95dd-8836134ba34e",
      "resource": {
        "resourceType": "Observation",
        "id": "be35f82c-354e-42fc-95dd-8836134ba34e",
        "meta": {
          "profile": [
            "http://hl7.eu/fhir/laboratory/StructureDefinition/Observation-resultslab-eu-lab"
          ]
        },
        "performer": [
          {
            "display": "The Central European Lab"
          }
        ],
        "category": [
          {
            "coding": [
              {
                "system": "http://terminology.hl7.org/CodeSystem/observation-category",
                "code": "laboratory"
              }
            ]
          }
        ],
        "code": {
          "coding": [
            {
              "code": "2947-0",
              "system": "http://loinc.org",
              "display": "Sodium [Moles/volume] in Blood"
            }
          ],
          "text": "Sodium [Moles/volume] in Blood"
        },
        "valueQuantity": {
          "system": "http://unitsofmeasure.org",
          "value": 139.3,
          "unit": "mmol/L",
          "code": "mmol/L"
        },
        "referenceRange": [
          {
            "low": {
              "value": 135,
              "code": "mmol/L",
              "system": "http://unitsofmeasure.org"
            }
          },
          {
            "high": {
              "value": 145,
              "code": "mmol/L",
              "system": "http://unitsofmeasure.org"
            }
          }
        ],
        "text": {
          "status": "generated",
          "div": "<div xmlns=\"http://www.w3.org/1999/xhtml\"><table class=\"hl7__eu__lab__report\"><tr><th>Test</th><th>10-Dec-2020</th><th>Reference&#xA0;Range</th><th>Unit</th></tr><tr><td>Sodium [Moles/volume] in Blood</td><td>139.3</td><td>135 - 145</td><td></td><td>mmol/L</td></tr></table></div>"
        },
        "status": "final",
        "subject": {
          "reference": "urn:uuid:9560bea0-2b2a-4900-b030-135f9948b086",
          "display": "Pelayo Casal"
        },
        "effectiveDateTime": "2020-12-10T05:38:59Z",
        "specimen": {
          "reference": "urn:uuid:745961de-5e6b-4fff-8e95-807d248335f3"
        }
      }
    },
    {
      "fullUrl": "urn:uuid:774db272-1ca2-484d-b61b-362355a95b3a",
      "resource": {
        "resourceType": "Observation",
        "id": "774db272-1ca2-484d-b61b-362355a95b3a",
        "meta": {
          "profile": [
            "http://hl7.eu/fhir/laboratory/StructureDefinition/Observation-resultslab-eu-lab"
          ]
        },
        "performer": [
          {
            "display": "The Central European Lab"
          }
        ],
        "category": [
          {
            "coding": [
              {
                "system": "http://terminology.hl7.org/CodeSystem/observation-category",
                "code": "laboratory"
              }
            ]
          }
        ],
        "code": {
          "coding": [
            {
              "code": "6298-4",
              "system": "http://loinc.org",
              "display": "Potassium [Moles/volume] in Blood"
            }
          ],
          "text": "Potassium [Moles/volume] in Blood"
        },
        "valueQuantity": {
          "system": "http://unitsofmeasure.org",
          "value": 4.5,
          "unit": "mmol/L",
          "code": "mmol/L"
        },
        "referenceRange": [
          {
            "low": {
              "value": 3.5,
              "code": "mmol/L",
              "system": "http://unitsofmeasure.org"
            }
          },
          {
            "high": {
              "value": 5.1,
              "code": "mmol/L",
              "system": "http://unitsofmeasure.org"
            }
          }
        ],
        "text": {
          "status": "generated",
          "div": "<div xmlns=\"http://www.w3.org/1999/xhtml\"><table class=\"hl7__eu__lab__report\"><tr><th>Test</th><th>10-Dec-2020</th><th>Reference&#xA0;Range</th><th>Unit</th></tr><tr><td>Potassium [Moles/volume] in Blood</td><td>4.5</td><td>3.5 - 5.1</td><td></td><td>mmol/L</td></tr></table></div>"
        },
        "status": "final",
        "subject": {
          "reference": "urn:uuid:9560bea0-2b2a-4900-b030-135f9948b086",
          "display": "Pelayo Casal"
        },
        "effectiveDateTime": "2020-12-10T05:38:59Z",
        "specimen": {
          "reference": "urn:uuid:745961de-5e6b-4fff-8e95-807d248335f3"
        }
      }
    },
    {
      "fullUrl": "urn:uuid:b3d0639a-53e6-4158-b8c4-7ec5f12c207c",
      "resource": {
        "resourceType": "Observation",
        "id": "b3d0639a-53e6-4158-b8c4-7ec5f12c207c",
        "meta": {
          "profile": [
            "http://hl7.eu/fhir/laboratory/StructureDefinition/Observation-resultslab-eu-lab"
          ]
        },
        "performer": [
          {
            "display": "The Central European Lab"
          }
        ],
        "category": [
          {
            "coding": [
              {
                "system": "http://terminology.hl7.org/CodeSystem/observation-category",
                "code": "laboratory"
              }
            ]
          }
        ],
        "code": {
          "coding": [
            {
              "code": "2069-3",
              "system": "http://loinc.org",
              "display": "Chloride [Moles/volume] in Blood"
            }
          ],
          "text": "Chloride [Moles/volume] in Blood"
        },
        "valueQuantity": {
          "system": "http://unitsofmeasure.org",
          "value": 110.6,
          "unit": "mmol/L",
          "code": "mmol/L"
        },
        "referenceRange": [
          {
            "low": {
              "value": 98,
              "code": "mmol/L",
              "system": "http://unitsofmeasure.org"
            }
          },
          {
            "high": {
              "value": 108,
              "code": "mmol/L",
              "system": "http://unitsofmeasure.org"
            }
          }
        ],
        "interpretation": [
          {
            "coding": [
              {
                "code": "H",
                "system": "http://terminology.hl7.org/CodeSystem/v3-ObservationInterpretation",
                "display": "High"
              }
            ]
          }
        ],
        "text": {
          "status": "generated",
          "div": "<div xmlns=\"http://www.w3.org/1999/xhtml\"><table class=\"hl7__eu__lab__report\"><tr><th>Test</th><th>10-Dec-2020</th><th>Reference&#xA0;Range</th><th>Unit</th></tr><tr><td>Chloride [Moles/volume] in Blood</td><td>110.6</td><td>98 - 108</td><td>H</td><td>mmol/L</td></tr></table></div>"
        },
        "status": "final",
        "subject": {
          "reference": "urn:uuid:9560bea0-2b2a-4900-b030-135f9948b086",
          "display": "Pelayo Casal"
        },
        "effectiveDateTime": "2020-12-10T05:38:59Z",
        "specimen": {
          "reference": "urn:uuid:745961de-5e6b-4fff-8e95-807d248335f3"
        }
      }
    },
    {
      "fullUrl": "urn:uuid:93deaefe-b960-4e98-b17a-6424fb961dd2",
      "resource": {
        "resourceType": "Observation",
        "id": "93deaefe-b960-4e98-b17a-6424fb961dd2",
        "meta": {
          "profile": [
            "http://hl7.eu/fhir/laboratory/StructureDefinition/Observation-resultslab-eu-lab"
          ]
        },
        "performer": [
          {
            "display": "The Central European Lab"
          }
        ],
        "category": [
          {
            "coding": [
              {
                "system": "http://terminology.hl7.org/CodeSystem/observation-category",
                "code": "laboratory"
              }
            ]
          }
        ],
        "code": {
          "coding": [
            {
              "code": "20565-8",
              "system": "http://loinc.org",
              "display": "Carbon dioxide, total [Moles/volume] in Blood"
            }
          ],
          "text": "Carbon dioxide, total [Moles/volume] in Blood"
        },
        "valueQuantity": {
          "system": "http://unitsofmeasure.org",
          "value": 27.2,
          "unit": "mmol/L",
          "code": "mmol/L"
        },
        "referenceRange": [
          {
            "low": {
              "value": 22,
              "code": "mmol/L",
              "system": "http://unitsofmeasure.org"
            }
          },
          {
            "high": {
              "value": 32,
              "code": "mmol/L",
              "system": "http://unitsofmeasure.org"
            }
          }
        ],
        "text": {
          "status": "generated",
          "div": "<div xmlns=\"http://www.w3.org/1999/xhtml\"><table class=\"hl7__eu__lab__report\"><tr><th>Test</th><th>10-Dec-2020</th><th>Reference&#xA0;Range</th><th>Unit</th></tr><tr><td>Carbon dioxide, total [Moles/volume] in Blood</td><td>27.2</td><td>22 - 32</td><td></td><td>mmol/L</td></tr></table></div>"
        },
        "status": "final",
        "subject": {
          "reference": "urn:uuid:9560bea0-2b2a-4900-b030-135f9948b086",
          "display": "Pelayo Casal"
        },
        "effectiveDateTime": "2020-12-10T05:38:59Z",
        "specimen": {
          "reference": "urn:uuid:745961de-5e6b-4fff-8e95-807d248335f3"
        }
      }
    },
    {
      "fullUrl": "urn:uuid:2e8b5531-8397-4b4e-9a38-6f58e7a58ea4",
      "resource": {
        "resourceType": "Device",
        "id": "2e8b5531-8397-4b4e-9a38-6f58e7a58ea4",
        "deviceName": [
          {
            "name": "SYNDERAI Synthetic Generator",
            "type": "manufacturer-name"
          }
        ],
        "version": [
          {
            "value": "5.0"
          }
        ],
        "text": {
          "status": "generated",
          "div": "<div xmlns=\"http://www.w3.org/1999/xhtml\">SYNDERAI Synthetic Generator v5.0</div>"
        },
        "status": "active\"",
        "distinctIdentifier": "synderai-generator-50",
        "manufacturer": "SYNDERAI Project"
      }
    },
    {
      "fullUrl": "urn:uuid:6c94bead-81c8-4d40-bbdd-8b6b4e464300",
      "resource": {
        "resourceType": "Provenance",
        "id": "6c94bead-81c8-4d40-bbdd-8b6b4e464300",
        "target": [
          {
            "reference": "Patient/9560bea0-2b2a-4900-b030-135f9948b086"
          },
          {
            "reference": "Bundle/7cf2446a-abb6-44fc-aa87-9ff968440b2e"
          },
          {
            "reference": "Composition/cea06193-f799-42c1-b37f-ccb349ac7433"
          },
          {
            "reference": "PractitionerRole/29940a4d-69dc-45eb-acb6-5935ff551177"
          },
          {
            "reference": "Practitioner/46895813-2444-4abe-9f92-37105826c209"
          },
          {
            "reference": "PractitionerRole/11db93c3-0501-437a-85a5-e589e43c390c"
          },
          {
            "reference": "Organization/7f71858e-913f-4113-b193-aa03e83f23c4"
          }
        ],
        "activity": {
          "text": "Synthetic Example Data Generation"
        },
        "policy": [
          "https://synderai.net/synderai-synthetic-data-policy"
        ],
        "agent": [
          {
            "type": {
              "text": "author"
            },
            "who": {
              "reference": "Device/2e8b5531-8397-4b4e-9a38-6f58e7a58ea4"
            }
          }
        ],
        "reason": [
          {
            "text": "Interoperability Testing and Training (non-clinical use)"
          }
        ],
        "text": {
          "status": "generated",
          "div": "<div xmlns=\"http://www.w3.org/1999/xhtml\">Provenance for SYNDERAI Synthetic Example Data Resource</div>"
        },
        "recorded": "2020-12-10T06:38:59Z"
      }
    },
    {
      "fullUrl": "urn:uuid:29940a4d-69dc-45eb-acb6-5935ff551177",
      "resource": {
        "resourceType": "PractitionerRole",
        "id": "29940a4d-69dc-45eb-acb6-5935ff551177",
        "meta": {
          "profile": [
            "http://hl7.eu/fhir/base/StructureDefinition/practitionerRole-eu"
          ]
        },
        "text": {
          "status": "generated",
          "div": "<div xmlns=\"http://www.w3.org/1999/xhtml\">Laboratory Role Id: 29940a4d-69dc-45eb-acb6-5935ff551177</div>"
        },
        "practitioner": {
          "reference": "urn:uuid:46895813-2444-4abe-9f92-37105826c209"
        }
      }
    },
    {
      "fullUrl": "urn:uuid:46895813-2444-4abe-9f92-37105826c209",
      "resource": {
        "resourceType": "Practitioner",
        "id": "46895813-2444-4abe-9f92-37105826c209",
        "meta": {
          "profile": [
            "http://hl7.eu/fhir/base/StructureDefinition/practitioner-eu"
          ]
        },
        "identifier": [
          {
            "assigner": {
              "display": "HL7 Europe"
            },
            "system": "urn:oid:2.16.840.1.113883.2.51.999",
            "value": "dbc3258d-41a0-4499-b96d-21ca5ffd0a62"
          }
        ],
        "name": [
          {
            "prefix": [
              "dr"
            ],
            "given": [
              "Ex"
            ],
            "family": "Ample"
          }
        ],
        "address": [
          {
            "line": [
              "Laboratoire Central Européenne",
              "Boulevard du Jardin Botanique 32"
            ],
            "postalCode": "1000",
            "city": "Brussels",
            "country": "Belgium"
          }
        ],
        "text": {
          "status": "generated",
          "div": "<div xmlns=\"http://www.w3.org/1999/xhtml\">Laboratory: Laboratoire Central Européenne, 1000 Brussels, Belgium</div>"
        }
      }
    }
  ],
  "type": "document",
  "timestamp": "2020-12-10T06:38:59Z"
}
