{
  "resourceType": "Bundle",
  "id": "22ef7754-6fa4-4d53-8980-941902839a4c",
  "meta": {
    "profile": [
      "http://hl7.eu/fhir/laboratory/StructureDefinition/Bundle-eu-lab"
    ]
  },
  "identifier": {
    "assigner": {
      "display": "HL7 Europe"
    },
    "system": "urn:oid:2.16.840.1.113883.2.51.999",
    "value": "e75b6c99-5b73-4168-817d-6a8d7dc9be6f"
  },
  "entry": [
    {
      "fullUrl": "urn:uuid:4cc34401-ec1c-405c-88d0-b72414d269b9",
      "resource": {
        "resourceType": "Composition",
        "id": "4cc34401-ec1c-405c-88d0-b72414d269b9",
        "meta": {
          "profile": [
            "http://hl7.eu/fhir/laboratory/StructureDefinition/Composition-eu-lab"
          ]
        },
        "identifier": {
          "assigner": {
            "display": "HL7 Europe"
          },
          "system": "urn:oid:2.16.840.1.113883.2.51.999",
          "value": "a6d18321-b264-4e4a-8134-eb0eda2b4483"
        },
        "author": [
          {
            "reference": "urn:uuid:585f8ce9-e353-410c-9c62-6fc46fed54d2"
          }
        ],
        "category": [
          {
            "coding": [
              {
                "code": "26436-6",
                "system": "http://loinc.org",
                "display": "Laboratory studies (set)"
              }
            ]
          }
        ],
        "type": {
          "coding": [
            {
              "code": "11502-2",
              "system": "http://loinc.org",
              "display": "Laboratory report"
            }
          ],
          "text": "Laboratory Report"
        },
        "section": [
          {
            "code": {
              "coding": [
                {
                  "code": "26436-6",
                  "system": "http://loinc.org",
                  "display": "Laboratory studies (set)"
                }
              ],
              "text": "Laboratory studies"
            },
            "section": [
              {
                "code": {
                  "coding": [
                    {
                      "code": "$18719-5",
                      "system": "http://loinc.org",
                      "display": "Chemistry studies (set)"
                    }
                  ],
                  "text": "Chemistry"
                },
                "entry": [
                  {
                    "reference": "urn:uuid:c0283708-4af2-4b26-9820-c62a7f8e3495"
                  },
                  {
                    "reference": "urn:uuid:39c04e5f-3b7a-4112-9f71-0fe6937d1c29"
                  },
                  {
                    "reference": "urn:uuid:da86cb2b-03df-480a-9281-c9a39c251217"
                  },
                  {
                    "reference": "urn:uuid:4ef1d046-2658-4f20-9340-36c5ba85fa59"
                  },
                  {
                    "reference": "urn:uuid:e4afd076-e41c-4b18-83e6-e1cbe65bdcd6"
                  },
                  {
                    "reference": "urn:uuid:c25a3adc-2395-4282-91a5-a2093e506dce"
                  },
                  {
                    "reference": "urn:uuid:2f99f577-286e-4035-a473-a377273b9f41"
                  },
                  {
                    "reference": "urn:uuid:c3c380dd-3ede-4a4c-aa43-c3c2d4221aeb"
                  },
                  {
                    "reference": "urn:uuid:a7e05bbb-cead-44cc-b30b-a735f742a26d"
                  }
                ],
                "text": {
                  "status": "generated",
                  "div": "<div xmlns=\"http://www.w3.org/1999/xhtml\"><h3>Chemistry</h3><table class=\"hl7__eu__lab__report\"><thead><tr><th>Test</th><th>26-FEB-2016</th><th>Reference&#xA0;Range</th><th>Unit</th></tr></thead><tbody><tr><td>Hemoglobin A1c/Hemoglobin.total in Blood</td><td><strong>6.2 H</strong></td><td>4.8 - 5.7</td><td>%</td></tr><tr><td>Glucose [Mass/volume] in Blood</td><td>75.5</td><td>70 - 140</td><td>mg/dL</td></tr><tr><td>Urea nitrogen [Mass/volume] in Blood</td><td>10.0</td><td>7 - 25</td><td>mg/dL</td></tr><tr><td>Creatinine [Mass/volume] in Blood</td><td>0.9</td><td>0.6 - 1.3</td><td>mg/dL</td></tr><tr><td>Calcium [Mass/volume] in Blood</td><td>9.5</td><td>8.5 - 10.5</td><td>mg/dL</td></tr><tr><td>Sodium [Moles/volume] in Blood</td><td>136.0</td><td>135 - 145</td><td>mmol/L</td></tr><tr><td>Potassium [Moles/volume] in Blood</td><td>4.9</td><td>3.5 - 5.1</td><td>mmol/L</td></tr><tr><td>Chloride [Moles/volume] in Blood</td><td>106.8</td><td>98 - 108</td><td>mmol/L</td></tr><tr><td>Carbon dioxide, total [Moles/volume] in Blood</td><td>22.5</td><td>22 - 29</td><td>mmol/L</td></tr></tbody></table></div>"
                },
                "title": "Chemistry"
              }
            ],
            "title": "Laboratory Report"
          },
          {
            "text": {
              "status": "generated",
              "div": "<div xmlns=\"http://www.w3.org/1999/xhtml\"><h3>Annotation</h3><table class=\"hl7__eu__lab__report\"><tr><th>Conclusion and Recommendations based on this report and previous findings known to us</th></tr><tr><td>All measured parameters are within normal limits except for a mildly elevated HbA1c (6.2%), indicating impaired glucose metabolism or possible prediabetes. Renal function, electrolytes, and glucose are normal. Recommend clinical follow-up for glycemic control and assessment for diabetes risk factors.</td></tr></table></div>"
            },
            "code": {
              "coding": [
                {
                  "system": "http://loinc.org",
                  "code": "48767-8",
                  "display": "Annotation comment"
                }
              ]
            },
            "title": "Annotation comment"
          }
        ],
        "status": "final",
        "subject": {
          "reference": "urn:uuid:8c1cebe5-0ead-483c-a8bb-7ebe81423cb4",
          "display": "Bethany Begum"
        },
        "date": "2016-02-26T12:40:40Z",
        "title": "Laboratory Report",
        "confidentiality": "N"
      }
    },
    {
      "fullUrl": "urn:uuid:ae822a31-0462-46d6-8996-e37cd43761e4",
      "resource": {
        "resourceType": "DiagnosticReport",
        "id": "ae822a31-0462-46d6-8996-e37cd43761e4",
        "meta": {
          "profile": [
            "http://hl7.eu/fhir/laboratory/StructureDefinition/DiagnosticReport-eu-lab"
          ]
        },
        "identifier": [
          {
            "assigner": {
              "display": "HL7 Europe"
            },
            "system": "urn:oid:2.16.840.1.113883.2.51.999",
            "value": "4f75a57b-eb67-4244-87be-db695d018c85"
          }
        ],
        "extension": [
          {
            "url": "http://hl7.org/fhir/5.0/StructureDefinition/extension-DiagnosticReport.composition",
            "valueReference": {
              "reference": "urn:uuid:a6d18321-b264-4e4a-8134-eb0eda2b4483"
            }
          }
        ],
        "category": [
          {
            "coding": [
              {
                "code": "26436-6",
                "system": "http://loinc.org",
                "display": "Laboratory studies (set)"
              }
            ]
          }
        ],
        "specimen": [
          {
            "reference": "urn:uuid:74bb254e-987c-4618-8f02-d33567a1e3be"
          }
        ],
        "result": [
          {
            "reference": "urn:uuid:c0283708-4af2-4b26-9820-c62a7f8e3495"
          },
          {
            "reference": "urn:uuid:39c04e5f-3b7a-4112-9f71-0fe6937d1c29"
          },
          {
            "reference": "urn:uuid:da86cb2b-03df-480a-9281-c9a39c251217"
          },
          {
            "reference": "urn:uuid:4ef1d046-2658-4f20-9340-36c5ba85fa59"
          },
          {
            "reference": "urn:uuid:e4afd076-e41c-4b18-83e6-e1cbe65bdcd6"
          },
          {
            "reference": "urn:uuid:c25a3adc-2395-4282-91a5-a2093e506dce"
          },
          {
            "reference": "urn:uuid:2f99f577-286e-4035-a473-a377273b9f41"
          },
          {
            "reference": "urn:uuid:c3c380dd-3ede-4a4c-aa43-c3c2d4221aeb"
          },
          {
            "reference": "urn:uuid:a7e05bbb-cead-44cc-b30b-a735f742a26d"
          }
        ],
        "status": "registered",
        "code": {
          "coding": [
            {
              "code": "11502-2",
              "system": "http://loinc.org",
              "display": "Laboratory report"
            }
          ]
        },
        "subject": {
          "reference": "urn:uuid:8c1cebe5-0ead-483c-a8bb-7ebe81423cb4",
          "display": "Bethany Begum"
        }
      }
    },
    {
      "fullUrl": "urn:uuid:8c1cebe5-0ead-483c-a8bb-7ebe81423cb4",
      "resource": {
        "resourceType": "Patient",
        "id": "8c1cebe5-0ead-483c-a8bb-7ebe81423cb4",
        "meta": {
          "security": [
            {
              "system": "http://terminology.hl7.org/CodeSystem/v3-ActReason",
              "code": "HTEST"
            },
            {
              "system": "http://terminology.hl7.org/CodeSystem/v3-ActReason",
              "code": "TRAIN"
            }
          ],
          "tag": [
            {
              "system": "https://synderai.net/fhir/CodeSystem/tags",
              "code": "synthetic",
              "display": "SYNDERAI Synthetic data"
            }
          ],
          "profile": [
            "http://hl7.eu/fhir/base/StructureDefinition/patient-eu-core"
          ]
        },
        "identifier": [
          {
            "type": {
              "coding": [
                {
                  "code": "PT",
                  "system": "http://terminology.hl7.org/CodeSystem/v2-0203"
                }
              ]
            },
            "system": "http://ec.europa.eu/identifier/eci",
            "value": "2365-936148-1"
          },
          {
            "type": {
              "coding": [
                {
                  "code": "MR",
                  "system": "http://terminology.hl7.org/CodeSystem/v2-0203"
                }
              ]
            },
            "system": "http://local.setting.eu/identifier",
            "value": "853b213b-8bf3-d90f-2018-79d547156fd7"
          }
        ],
        "name": [
          {
            "family": "Begum"
          },
          {
            "given": [
              "Bethany"
            ]
          },
          {
            "text": "Bethany Begum"
          }
        ],
        "address": [
          {
            "line": [
              "Studio 22e",
              "Joe unions"
            ],
            "use": "home",
            "type": "physical",
            "postalCode": "M1",
            "city": "Manchester",
            "country": "United Kingdom"
          }
        ],
        "telecom": [
          {
            "system": "phone",
            "value": "(029) 2018200"
          }
        ],
        "extension": [
          {
            "url": "http://hl7.org/fhir/StructureDefinition/patient-nationality",
            "valueCodeableConcept": {
              "coding": [
                {
                  "code": "GB",
                  "system": "http://hl7.org/fhir/ValueSet/country"
                }
              ]
            }
          }
        ],
        "text": {
          "status": "generated",
          "div": "<div xmlns=\"http://www.w3.org/1999/xhtml\"><table class=\"hl7__ips\"><tr><td>Bethany Begum</td><td>female</td><td>19-Jan-1976</td></tr></table></div>"
        },
        "gender": "female",
        "birthDate": "1976-01-19"
      }
    },
    {
      "fullUrl": "urn:uuid:ad09452a-6852-4df4-9b93-9de27c8fbc71",
      "resource": {
        "resourceType": "ServiceRequest",
        "id": "ad09452a-6852-4df4-9b93-9de27c8fbc71",
        "meta": {
          "profile": [
            "http://hl7.eu/fhir/laboratory/StructureDefinition/ServiceRequest-eu-lab"
          ]
        },
        "identifier": [
          {
            "system": "http://example.org",
            "value": "a0389a71-89af-469c-be7a-0e3e81955a02"
          }
        ],
        "specimen": [
          {
            "reference": "urn:uuid:74bb254e-987c-4618-8f02-d33567a1e3be"
          }
        ],
        "reasonCode": [
          {
            "coding": [
              {
                "code": "55822004",
                "system": "http://snomed.info/sct",
                "display": "Hyperlipidemia"
              }
            ]
          },
          {
            "coding": [
              {
                "code": "15777000",
                "system": "http://snomed.info/sct",
                "display": "Prediabetes"
              }
            ]
          },
          {
            "coding": [
              {
                "code": "40055000",
                "system": "http://snomed.info/sct",
                "display": "Chronic sinusitis"
              }
            ]
          }
        ],
        "status": "active",
        "intent": "order",
        "code": {
          "coding": [
            {
              "code": "108252007",
              "system": "http://snomed.info/sct",
              "display": "Laboratory procedure"
            }
          ]
        },
        "subject": {
          "reference": "urn:uuid:8c1cebe5-0ead-483c-a8bb-7ebe81423cb4",
          "display": "Bethany Begum"
        },
        "requester": {
          "reference": "urn:uuid:80d0099b-7012-4406-a2a6-ee5a2c59ecd3"
        }
      }
    },
    {
      "fullUrl": "urn:uuid:80d0099b-7012-4406-a2a6-ee5a2c59ecd3",
      "resource": {
        "resourceType": "PractitionerRole",
        "id": "80d0099b-7012-4406-a2a6-ee5a2c59ecd3",
        "meta": {
          "profile": [
            "http://hl7.eu/fhir/base/StructureDefinition/practitionerRole-eu"
          ]
        },
        "text": {
          "status": "generated",
          "div": "<div xmlns=\"http://www.w3.org/1999/xhtml\">Provider Role Id: 80d0099b-7012-4406-a2a6-ee5a2c59ecd3</div>"
        },
        "organization": {
          "reference": "urn:uuid:4c6c97ec-9567-439c-a560-9e17807d9d61"
        }
      }
    },
    {
      "fullUrl": "urn:uuid:4c6c97ec-9567-439c-a560-9e17807d9d61",
      "resource": {
        "resourceType": "Organization",
        "id": "4c6c97ec-9567-439c-a560-9e17807d9d61",
        "meta": {
          "profile": [
            "http://hl7.eu/fhir/base/StructureDefinition/organization-eu"
          ]
        },
        "identifier": [
          {
            "assigner": {
              "display": "HL7 Europe"
            },
            "system": "urn:oid:2.16.840.1.113883.2.51.999",
            "value": "0a06d9ea-9a63-412e-8b94-72e7e4fa4ac1"
          }
        ],
        "address": [
          {
            "line": [
              "City Road 204"
            ],
            "city": "Manchester",
            "postalCode": "M3 3",
            "country": "United Kingdom"
          }
        ],
        "text": {
          "status": "generated",
          "div": "<div xmlns=\"http://www.w3.org/1999/xhtml\">Provider Organization: Cornbrook Medical Practice</div>"
        },
        "name": "Cornbrook Medical Practice"
      }
    },
    {
      "fullUrl": "urn:uuid:74bb254e-987c-4618-8f02-d33567a1e3be",
      "resource": {
        "resourceType": "Specimen",
        "id": "74bb254e-987c-4618-8f02-d33567a1e3be",
        "meta": {
          "profile": [
            "http://hl7.eu/fhir/laboratory/StructureDefinition/Specimen-eu-lab"
          ]
        },
        "collection": {
          "collectedDateTime": "2016-02-26"
        },
        "text": {
          "status": "generated",
          "div": "<div xmlns=\"http://www.w3.org/1999/xhtml\"><table class=\"hl7__eu__lab__report\"><tr><th>Specimen</th><th>Collection Date</th></tr><tr><td>Whole blood specimen (specimen)</td><td><span class=\"nb\">26-Feb-2016</span></td></tr></table></div>"
        },
        "type": {
          "coding": [
            {
              "code": "258580003",
              "system": "http://snomed.info/sct",
              "display": "Whole blood specimen (specimen)"
            }
          ]
        }
      }
    },
    {
      "fullUrl": "urn:uuid:c0283708-4af2-4b26-9820-c62a7f8e3495",
      "resource": {
        "resourceType": "Observation",
        "id": "c0283708-4af2-4b26-9820-c62a7f8e3495",
        "meta": {
          "profile": [
            "http://hl7.eu/fhir/laboratory/StructureDefinition/Observation-resultslab-eu-lab"
          ]
        },
        "performer": [
          {
            "display": "The Central European Lab"
          }
        ],
        "category": [
          {
            "coding": [
              {
                "system": "http://terminology.hl7.org/CodeSystem/observation-category",
                "code": "laboratory"
              }
            ]
          }
        ],
        "code": {
          "coding": [
            {
              "code": "4548-4",
              "system": "http://loinc.org",
              "display": "Hemoglobin A1c/Hemoglobin.total in Blood"
            }
          ],
          "text": "Hemoglobin A1c/Hemoglobin.total in Blood"
        },
        "valueQuantity": {
          "system": "http://unitsofmeasure.org",
          "value": 6.2,
          "unit": "%",
          "code": "%"
        },
        "referenceRange": [
          {
            "low": {
              "value": 4.8,
              "code": "%",
              "system": "http://unitsofmeasure.org"
            }
          },
          {
            "high": {
              "value": 5.7,
              "code": "%",
              "system": "http://unitsofmeasure.org"
            }
          }
        ],
        "interpretation": [
          {
            "coding": [
              {
                "code": "H",
                "system": "http://terminology.hl7.org/CodeSystem/v3-ObservationInterpretation",
                "display": "High"
              }
            ]
          }
        ],
        "text": {
          "status": "generated",
          "div": "<div xmlns=\"http://www.w3.org/1999/xhtml\"><table class=\"hl7__eu__lab__report\"><tr><th>Test</th><th>26-Feb-2016</th><th>Reference&#xA0;Range</th><th>Unit</th></tr><tr><td>Hemoglobin A1c/Hemoglobin.total in Blood</td><td>6.2</td><td>4.8 - 5.7</td><td>H</td><td>%</td></tr></table></div>"
        },
        "status": "final",
        "subject": {
          "reference": "urn:uuid:8c1cebe5-0ead-483c-a8bb-7ebe81423cb4",
          "display": "Bethany Begum"
        },
        "effectiveDateTime": "2016-02-26T11:40:40Z",
        "specimen": {
          "reference": "urn:uuid:74bb254e-987c-4618-8f02-d33567a1e3be"
        }
      }
    },
    {
      "fullUrl": "urn:uuid:39c04e5f-3b7a-4112-9f71-0fe6937d1c29",
      "resource": {
        "resourceType": "Observation",
        "id": "39c04e5f-3b7a-4112-9f71-0fe6937d1c29",
        "meta": {
          "profile": [
            "http://hl7.eu/fhir/laboratory/StructureDefinition/Observation-resultslab-eu-lab"
          ]
        },
        "performer": [
          {
            "display": "The Central European Lab"
          }
        ],
        "category": [
          {
            "coding": [
              {
                "system": "http://terminology.hl7.org/CodeSystem/observation-category",
                "code": "laboratory"
              }
            ]
          }
        ],
        "code": {
          "coding": [
            {
              "code": "2339-0",
              "system": "http://loinc.org",
              "display": "Glucose [Mass/volume] in Blood"
            }
          ],
          "text": "Glucose [Mass/volume] in Blood"
        },
        "valueQuantity": {
          "system": "http://unitsofmeasure.org",
          "value": 75.5,
          "unit": "mg/dL",
          "code": "mg/dL"
        },
        "referenceRange": [
          {
            "low": {
              "value": 70,
              "code": "mg/dL",
              "system": "http://unitsofmeasure.org"
            }
          },
          {
            "high": {
              "value": 140,
              "code": "mg/dL",
              "system": "http://unitsofmeasure.org"
            }
          }
        ],
        "text": {
          "status": "generated",
          "div": "<div xmlns=\"http://www.w3.org/1999/xhtml\"><table class=\"hl7__eu__lab__report\"><tr><th>Test</th><th>26-Feb-2016</th><th>Reference&#xA0;Range</th><th>Unit</th></tr><tr><td>Glucose [Mass/volume] in Blood</td><td>75.5</td><td>70 - 140</td><td></td><td>mg/dL</td></tr></table></div>"
        },
        "status": "final",
        "subject": {
          "reference": "urn:uuid:8c1cebe5-0ead-483c-a8bb-7ebe81423cb4",
          "display": "Bethany Begum"
        },
        "effectiveDateTime": "2016-02-26T11:40:40Z",
        "specimen": {
          "reference": "urn:uuid:74bb254e-987c-4618-8f02-d33567a1e3be"
        }
      }
    },
    {
      "fullUrl": "urn:uuid:da86cb2b-03df-480a-9281-c9a39c251217",
      "resource": {
        "resourceType": "Observation",
        "id": "da86cb2b-03df-480a-9281-c9a39c251217",
        "meta": {
          "profile": [
            "http://hl7.eu/fhir/laboratory/StructureDefinition/Observation-resultslab-eu-lab"
          ]
        },
        "performer": [
          {
            "display": "The Central European Lab"
          }
        ],
        "category": [
          {
            "coding": [
              {
                "system": "http://terminology.hl7.org/CodeSystem/observation-category",
                "code": "laboratory"
              }
            ]
          }
        ],
        "code": {
          "coding": [
            {
              "code": "6299-2",
              "system": "http://loinc.org",
              "display": "Urea nitrogen [Mass/volume] in Blood"
            }
          ],
          "text": "Urea nitrogen [Mass/volume] in Blood"
        },
        "valueQuantity": {
          "system": "http://unitsofmeasure.org",
          "value": 10,
          "unit": "mg/dL",
          "code": "mg/dL"
        },
        "referenceRange": [
          {
            "low": {
              "value": 7,
              "code": "mg/dL",
              "system": "http://unitsofmeasure.org"
            }
          },
          {
            "high": {
              "value": 25,
              "code": "mg/dL",
              "system": "http://unitsofmeasure.org"
            }
          }
        ],
        "text": {
          "status": "generated",
          "div": "<div xmlns=\"http://www.w3.org/1999/xhtml\"><table class=\"hl7__eu__lab__report\"><tr><th>Test</th><th>26-Feb-2016</th><th>Reference&#xA0;Range</th><th>Unit</th></tr><tr><td>Urea nitrogen [Mass/volume] in Blood</td><td>10.0</td><td>7 - 25</td><td></td><td>mg/dL</td></tr></table></div>"
        },
        "status": "final",
        "subject": {
          "reference": "urn:uuid:8c1cebe5-0ead-483c-a8bb-7ebe81423cb4",
          "display": "Bethany Begum"
        },
        "effectiveDateTime": "2016-02-26T11:40:40Z",
        "specimen": {
          "reference": "urn:uuid:74bb254e-987c-4618-8f02-d33567a1e3be"
        }
      }
    },
    {
      "fullUrl": "urn:uuid:4ef1d046-2658-4f20-9340-36c5ba85fa59",
      "resource": {
        "resourceType": "Observation",
        "id": "4ef1d046-2658-4f20-9340-36c5ba85fa59",
        "meta": {
          "profile": [
            "http://hl7.eu/fhir/laboratory/StructureDefinition/Observation-resultslab-eu-lab"
          ]
        },
        "performer": [
          {
            "display": "The Central European Lab"
          }
        ],
        "category": [
          {
            "coding": [
              {
                "system": "http://terminology.hl7.org/CodeSystem/observation-category",
                "code": "laboratory"
              }
            ]
          }
        ],
        "code": {
          "coding": [
            {
              "code": "38483-4",
              "system": "http://loinc.org",
              "display": "Creatinine [Mass/volume] in Blood"
            }
          ],
          "text": "Creatinine [Mass/volume] in Blood"
        },
        "valueQuantity": {
          "system": "http://unitsofmeasure.org",
          "value": 0.9,
          "unit": "mg/dL",
          "code": "mg/dL"
        },
        "referenceRange": [
          {
            "low": {
              "value": 0.6,
              "code": "mg/dL",
              "system": "http://unitsofmeasure.org"
            }
          },
          {
            "high": {
              "value": 1.3,
              "code": "mg/dL",
              "system": "http://unitsofmeasure.org"
            }
          }
        ],
        "text": {
          "status": "generated",
          "div": "<div xmlns=\"http://www.w3.org/1999/xhtml\"><table class=\"hl7__eu__lab__report\"><tr><th>Test</th><th>26-Feb-2016</th><th>Reference&#xA0;Range</th><th>Unit</th></tr><tr><td>Creatinine [Mass/volume] in Blood</td><td>0.9</td><td>0.6 - 1.3</td><td></td><td>mg/dL</td></tr></table></div>"
        },
        "status": "final",
        "subject": {
          "reference": "urn:uuid:8c1cebe5-0ead-483c-a8bb-7ebe81423cb4",
          "display": "Bethany Begum"
        },
        "effectiveDateTime": "2016-02-26T11:40:40Z",
        "specimen": {
          "reference": "urn:uuid:74bb254e-987c-4618-8f02-d33567a1e3be"
        }
      }
    },
    {
      "fullUrl": "urn:uuid:e4afd076-e41c-4b18-83e6-e1cbe65bdcd6",
      "resource": {
        "resourceType": "Observation",
        "id": "e4afd076-e41c-4b18-83e6-e1cbe65bdcd6",
        "meta": {
          "profile": [
            "http://hl7.eu/fhir/laboratory/StructureDefinition/Observation-resultslab-eu-lab"
          ]
        },
        "performer": [
          {
            "display": "The Central European Lab"
          }
        ],
        "category": [
          {
            "coding": [
              {
                "system": "http://terminology.hl7.org/CodeSystem/observation-category",
                "code": "laboratory"
              }
            ]
          }
        ],
        "code": {
          "coding": [
            {
              "code": "49765-1",
              "system": "http://loinc.org",
              "display": "Calcium [Mass/volume] in Blood"
            }
          ],
          "text": "Calcium [Mass/volume] in Blood"
        },
        "valueQuantity": {
          "system": "http://unitsofmeasure.org",
          "value": 9.5,
          "unit": "mg/dL",
          "code": "mg/dL"
        },
        "referenceRange": [
          {
            "low": {
              "value": 8.5,
              "code": "mg/dL",
              "system": "http://unitsofmeasure.org"
            }
          },
          {
            "high": {
              "value": 10.5,
              "code": "mg/dL",
              "system": "http://unitsofmeasure.org"
            }
          }
        ],
        "text": {
          "status": "generated",
          "div": "<div xmlns=\"http://www.w3.org/1999/xhtml\"><table class=\"hl7__eu__lab__report\"><tr><th>Test</th><th>26-Feb-2016</th><th>Reference&#xA0;Range</th><th>Unit</th></tr><tr><td>Calcium [Mass/volume] in Blood</td><td>9.5</td><td>8.5 - 10.5</td><td></td><td>mg/dL</td></tr></table></div>"
        },
        "status": "final",
        "subject": {
          "reference": "urn:uuid:8c1cebe5-0ead-483c-a8bb-7ebe81423cb4",
          "display": "Bethany Begum"
        },
        "effectiveDateTime": "2016-02-26T11:40:40Z",
        "specimen": {
          "reference": "urn:uuid:74bb254e-987c-4618-8f02-d33567a1e3be"
        }
      }
    },
    {
      "fullUrl": "urn:uuid:c25a3adc-2395-4282-91a5-a2093e506dce",
      "resource": {
        "resourceType": "Observation",
        "id": "c25a3adc-2395-4282-91a5-a2093e506dce",
        "meta": {
          "profile": [
            "http://hl7.eu/fhir/laboratory/StructureDefinition/Observation-resultslab-eu-lab"
          ]
        },
        "performer": [
          {
            "display": "The Central European Lab"
          }
        ],
        "category": [
          {
            "coding": [
              {
                "system": "http://terminology.hl7.org/CodeSystem/observation-category",
                "code": "laboratory"
              }
            ]
          }
        ],
        "code": {
          "coding": [
            {
              "code": "2947-0",
              "system": "http://loinc.org",
              "display": "Sodium [Moles/volume] in Blood"
            }
          ],
          "text": "Sodium [Moles/volume] in Blood"
        },
        "valueQuantity": {
          "system": "http://unitsofmeasure.org",
          "value": 136,
          "unit": "mmol/L",
          "code": "mmol/L"
        },
        "referenceRange": [
          {
            "low": {
              "value": 135,
              "code": "mmol/L",
              "system": "http://unitsofmeasure.org"
            }
          },
          {
            "high": {
              "value": 145,
              "code": "mmol/L",
              "system": "http://unitsofmeasure.org"
            }
          }
        ],
        "text": {
          "status": "generated",
          "div": "<div xmlns=\"http://www.w3.org/1999/xhtml\"><table class=\"hl7__eu__lab__report\"><tr><th>Test</th><th>26-Feb-2016</th><th>Reference&#xA0;Range</th><th>Unit</th></tr><tr><td>Sodium [Moles/volume] in Blood</td><td>136.0</td><td>135 - 145</td><td></td><td>mmol/L</td></tr></table></div>"
        },
        "status": "final",
        "subject": {
          "reference": "urn:uuid:8c1cebe5-0ead-483c-a8bb-7ebe81423cb4",
          "display": "Bethany Begum"
        },
        "effectiveDateTime": "2016-02-26T11:40:40Z",
        "specimen": {
          "reference": "urn:uuid:74bb254e-987c-4618-8f02-d33567a1e3be"
        }
      }
    },
    {
      "fullUrl": "urn:uuid:2f99f577-286e-4035-a473-a377273b9f41",
      "resource": {
        "resourceType": "Observation",
        "id": "2f99f577-286e-4035-a473-a377273b9f41",
        "meta": {
          "profile": [
            "http://hl7.eu/fhir/laboratory/StructureDefinition/Observation-resultslab-eu-lab"
          ]
        },
        "performer": [
          {
            "display": "The Central European Lab"
          }
        ],
        "category": [
          {
            "coding": [
              {
                "system": "http://terminology.hl7.org/CodeSystem/observation-category",
                "code": "laboratory"
              }
            ]
          }
        ],
        "code": {
          "coding": [
            {
              "code": "6298-4",
              "system": "http://loinc.org",
              "display": "Potassium [Moles/volume] in Blood"
            }
          ],
          "text": "Potassium [Moles/volume] in Blood"
        },
        "valueQuantity": {
          "system": "http://unitsofmeasure.org",
          "value": 4.9,
          "unit": "mmol/L",
          "code": "mmol/L"
        },
        "referenceRange": [
          {
            "low": {
              "value": 3.5,
              "code": "mmol/L",
              "system": "http://unitsofmeasure.org"
            }
          },
          {
            "high": {
              "value": 5.1,
              "code": "mmol/L",
              "system": "http://unitsofmeasure.org"
            }
          }
        ],
        "text": {
          "status": "generated",
          "div": "<div xmlns=\"http://www.w3.org/1999/xhtml\"><table class=\"hl7__eu__lab__report\"><tr><th>Test</th><th>26-Feb-2016</th><th>Reference&#xA0;Range</th><th>Unit</th></tr><tr><td>Potassium [Moles/volume] in Blood</td><td>4.9</td><td>3.5 - 5.1</td><td></td><td>mmol/L</td></tr></table></div>"
        },
        "status": "final",
        "subject": {
          "reference": "urn:uuid:8c1cebe5-0ead-483c-a8bb-7ebe81423cb4",
          "display": "Bethany Begum"
        },
        "effectiveDateTime": "2016-02-26T11:40:40Z",
        "specimen": {
          "reference": "urn:uuid:74bb254e-987c-4618-8f02-d33567a1e3be"
        }
      }
    },
    {
      "fullUrl": "urn:uuid:c3c380dd-3ede-4a4c-aa43-c3c2d4221aeb",
      "resource": {
        "resourceType": "Observation",
        "id": "c3c380dd-3ede-4a4c-aa43-c3c2d4221aeb",
        "meta": {
          "profile": [
            "http://hl7.eu/fhir/laboratory/StructureDefinition/Observation-resultslab-eu-lab"
          ]
        },
        "performer": [
          {
            "display": "The Central European Lab"
          }
        ],
        "category": [
          {
            "coding": [
              {
                "system": "http://terminology.hl7.org/CodeSystem/observation-category",
                "code": "laboratory"
              }
            ]
          }
        ],
        "code": {
          "coding": [
            {
              "code": "2069-3",
              "system": "http://loinc.org",
              "display": "Chloride [Moles/volume] in Blood"
            }
          ],
          "text": "Chloride [Moles/volume] in Blood"
        },
        "valueQuantity": {
          "system": "http://unitsofmeasure.org",
          "value": 106.8,
          "unit": "mmol/L",
          "code": "mmol/L"
        },
        "referenceRange": [
          {
            "low": {
              "value": 98,
              "code": "mmol/L",
              "system": "http://unitsofmeasure.org"
            }
          },
          {
            "high": {
              "value": 108,
              "code": "mmol/L",
              "system": "http://unitsofmeasure.org"
            }
          }
        ],
        "text": {
          "status": "generated",
          "div": "<div xmlns=\"http://www.w3.org/1999/xhtml\"><table class=\"hl7__eu__lab__report\"><tr><th>Test</th><th>26-Feb-2016</th><th>Reference&#xA0;Range</th><th>Unit</th></tr><tr><td>Chloride [Moles/volume] in Blood</td><td>106.8</td><td>98 - 108</td><td></td><td>mmol/L</td></tr></table></div>"
        },
        "status": "final",
        "subject": {
          "reference": "urn:uuid:8c1cebe5-0ead-483c-a8bb-7ebe81423cb4",
          "display": "Bethany Begum"
        },
        "effectiveDateTime": "2016-02-26T11:40:40Z",
        "specimen": {
          "reference": "urn:uuid:74bb254e-987c-4618-8f02-d33567a1e3be"
        }
      }
    },
    {
      "fullUrl": "urn:uuid:a7e05bbb-cead-44cc-b30b-a735f742a26d",
      "resource": {
        "resourceType": "Observation",
        "id": "a7e05bbb-cead-44cc-b30b-a735f742a26d",
        "meta": {
          "profile": [
            "http://hl7.eu/fhir/laboratory/StructureDefinition/Observation-resultslab-eu-lab"
          ]
        },
        "performer": [
          {
            "display": "The Central European Lab"
          }
        ],
        "category": [
          {
            "coding": [
              {
                "system": "http://terminology.hl7.org/CodeSystem/observation-category",
                "code": "laboratory"
              }
            ]
          }
        ],
        "code": {
          "coding": [
            {
              "code": "20565-8",
              "system": "http://loinc.org",
              "display": "Carbon dioxide, total [Moles/volume] in Blood"
            }
          ],
          "text": "Carbon dioxide, total [Moles/volume] in Blood"
        },
        "valueQuantity": {
          "system": "http://unitsofmeasure.org",
          "value": 22.5,
          "unit": "mmol/L",
          "code": "mmol/L"
        },
        "referenceRange": [
          {
            "low": {
              "value": 22,
              "code": "mmol/L",
              "system": "http://unitsofmeasure.org"
            }
          },
          {
            "high": {
              "value": 29,
              "code": "mmol/L",
              "system": "http://unitsofmeasure.org"
            }
          }
        ],
        "text": {
          "status": "generated",
          "div": "<div xmlns=\"http://www.w3.org/1999/xhtml\"><table class=\"hl7__eu__lab__report\"><tr><th>Test</th><th>26-Feb-2016</th><th>Reference&#xA0;Range</th><th>Unit</th></tr><tr><td>Carbon dioxide, total [Moles/volume] in Blood</td><td>22.5</td><td>22 - 29</td><td></td><td>mmol/L</td></tr></table></div>"
        },
        "status": "final",
        "subject": {
          "reference": "urn:uuid:8c1cebe5-0ead-483c-a8bb-7ebe81423cb4",
          "display": "Bethany Begum"
        },
        "effectiveDateTime": "2016-02-26T11:40:40Z",
        "specimen": {
          "reference": "urn:uuid:74bb254e-987c-4618-8f02-d33567a1e3be"
        }
      }
    },
    {
      "fullUrl": "urn:uuid:3a7e37a5-45a3-473d-8f0c-df3c846a6569",
      "resource": {
        "resourceType": "Device",
        "id": "3a7e37a5-45a3-473d-8f0c-df3c846a6569",
        "deviceName": [
          {
            "name": "SYNDERAI Synthetic Generator",
            "type": "manufacturer-name"
          }
        ],
        "version": [
          {
            "value": "5.0"
          }
        ],
        "text": {
          "status": "generated",
          "div": "<div xmlns=\"http://www.w3.org/1999/xhtml\">SYNDERAI Synthetic Generator v5.0</div>"
        },
        "status": "active\"",
        "distinctIdentifier": "synderai-generator-50",
        "manufacturer": "SYNDERAI Project"
      }
    },
    {
      "fullUrl": "urn:uuid:f0c1bb5b-1b3f-4fd1-a4b6-bb51c57892c5",
      "resource": {
        "resourceType": "Provenance",
        "id": "f0c1bb5b-1b3f-4fd1-a4b6-bb51c57892c5",
        "target": [
          {
            "reference": "Patient/8c1cebe5-0ead-483c-a8bb-7ebe81423cb4"
          },
          {
            "reference": "Bundle/22ef7754-6fa4-4d53-8980-941902839a4c"
          },
          {
            "reference": "Composition/4cc34401-ec1c-405c-88d0-b72414d269b9"
          },
          {
            "reference": "PractitionerRole/585f8ce9-e353-410c-9c62-6fc46fed54d2"
          },
          {
            "reference": "Practitioner/25521f5f-ebaf-489a-b9d7-62ce125ff3e1"
          },
          {
            "reference": "PractitionerRole/80d0099b-7012-4406-a2a6-ee5a2c59ecd3"
          },
          {
            "reference": "Organization/4c6c97ec-9567-439c-a560-9e17807d9d61"
          }
        ],
        "activity": {
          "text": "Synthetic Example Data Generation"
        },
        "policy": [
          "https://synderai.net/synderai-synthetic-data-policy"
        ],
        "agent": [
          {
            "type": {
              "text": "author"
            },
            "who": {
              "reference": "Device/3a7e37a5-45a3-473d-8f0c-df3c846a6569"
            }
          }
        ],
        "reason": [
          {
            "text": "Interoperability Testing and Training (non-clinical use)"
          }
        ],
        "text": {
          "status": "generated",
          "div": "<div xmlns=\"http://www.w3.org/1999/xhtml\">Provenance for SYNDERAI Synthetic Example Data Resource</div>"
        },
        "recorded": "2016-02-26T12:40:40Z"
      }
    },
    {
      "fullUrl": "urn:uuid:585f8ce9-e353-410c-9c62-6fc46fed54d2",
      "resource": {
        "resourceType": "PractitionerRole",
        "id": "585f8ce9-e353-410c-9c62-6fc46fed54d2",
        "meta": {
          "profile": [
            "http://hl7.eu/fhir/base/StructureDefinition/practitionerRole-eu"
          ]
        },
        "text": {
          "status": "generated",
          "div": "<div xmlns=\"http://www.w3.org/1999/xhtml\">Laboratory Role Id: 585f8ce9-e353-410c-9c62-6fc46fed54d2</div>"
        },
        "practitioner": {
          "reference": "urn:uuid:25521f5f-ebaf-489a-b9d7-62ce125ff3e1"
        }
      }
    },
    {
      "fullUrl": "urn:uuid:25521f5f-ebaf-489a-b9d7-62ce125ff3e1",
      "resource": {
        "resourceType": "Practitioner",
        "id": "25521f5f-ebaf-489a-b9d7-62ce125ff3e1",
        "meta": {
          "profile": [
            "http://hl7.eu/fhir/base/StructureDefinition/practitioner-eu"
          ]
        },
        "identifier": [
          {
            "assigner": {
              "display": "HL7 Europe"
            },
            "system": "urn:oid:2.16.840.1.113883.2.51.999",
            "value": "219bc16c-a842-4a10-9109-8991576fb536"
          }
        ],
        "name": [
          {
            "prefix": [
              "dr"
            ],
            "given": [
              "Ex"
            ],
            "family": "Ample"
          }
        ],
        "address": [
          {
            "line": [
              "Laboratoire Central Européenne",
              "Boulevard du Jardin Botanique 32"
            ],
            "postalCode": "1000",
            "city": "Brussels",
            "country": "Belgium"
          }
        ],
        "text": {
          "status": "generated",
          "div": "<div xmlns=\"http://www.w3.org/1999/xhtml\">Laboratory: Laboratoire Central Européenne, 1000 Brussels, Belgium</div>"
        }
      }
    }
  ],
  "type": "document",
  "timestamp": "2016-02-26T12:40:40Z"
}
