{
  "resourceType": "Bundle",
  "id": "6607c0dc-b1f0-45a7-ad3a-0e141064f714",
  "meta": {
    "profile": [
      "http://hl7.eu/fhir/laboratory/StructureDefinition/Bundle-eu-lab"
    ]
  },
  "identifier": {
    "assigner": {
      "display": "HL7 Europe"
    },
    "system": "urn:oid:2.16.840.1.113883.2.51.999",
    "value": "125d2378-2aca-4238-b9c3-4c7df5c0f5af"
  },
  "entry": [
    {
      "fullUrl": "urn:uuid:ab2c96d9-bab3-4c1e-a16c-17209881e562",
      "resource": {
        "resourceType": "Composition",
        "id": "ab2c96d9-bab3-4c1e-a16c-17209881e562",
        "meta": {
          "profile": [
            "http://hl7.eu/fhir/laboratory/StructureDefinition/Composition-eu-lab"
          ]
        },
        "identifier": {
          "assigner": {
            "display": "HL7 Europe"
          },
          "system": "urn:oid:2.16.840.1.113883.2.51.999",
          "value": "24df2bc3-c8ac-414c-ac57-e97e8e1be707"
        },
        "author": [
          {
            "reference": "urn:uuid:e3b0a578-32f0-41b4-a913-aba48978adfb"
          }
        ],
        "category": [
          {
            "coding": [
              {
                "code": "26436-6",
                "system": "http://loinc.org",
                "display": "Laboratory studies (set)"
              }
            ]
          }
        ],
        "type": {
          "coding": [
            {
              "code": "11502-2",
              "system": "http://loinc.org",
              "display": "Laboratory report"
            }
          ],
          "text": "Laboratory Report"
        },
        "section": [
          {
            "code": {
              "coding": [
                {
                  "code": "26436-6",
                  "system": "http://loinc.org",
                  "display": "Laboratory studies (set)"
                }
              ],
              "text": "Laboratory studies"
            },
            "section": [
              {
                "code": {
                  "coding": [
                    {
                      "code": "$18719-5",
                      "system": "http://loinc.org",
                      "display": "Chemistry studies (set)"
                    }
                  ],
                  "text": "Chemistry"
                },
                "entry": [
                  {
                    "reference": "urn:uuid:71a737c4-7d6d-424b-a0e9-cb5abfc98521"
                  }
                ],
                "text": {
                  "status": "generated",
                  "div": "<div xmlns=\"http://www.w3.org/1999/xhtml\"><h3>Chemistry</h3><table class=\"hl7__eu__lab__report\"><thead><tr><th>Test</th><th>26-DEC-2017</th><th>Reference&#xA0;Range</th><th>Unit</th></tr></thead><tbody><tr><td>Ketones [Presence] in Urine by Test strip</td><td>Urine ketone test negative</td><td></td><td></td></tr></tbody></table></div>"
                },
                "title": "Chemistry"
              },
              {
                "code": {
                  "coding": [
                    {
                      "code": "$18729-4",
                      "system": "http://loinc.org",
                      "display": "Urinalysis studies (set)"
                    }
                  ],
                  "text": "Urinalysis"
                },
                "entry": [
                  {
                    "reference": "urn:uuid:dac164b5-cb6e-4316-97ed-971bd5e8823d"
                  },
                  {
                    "reference": "urn:uuid:5d8c2cdc-606f-4c57-8876-0ee44979463e"
                  },
                  {
                    "reference": "urn:uuid:10d3dac7-00c3-48d6-b6b8-6684c32d1d6f"
                  },
                  {
                    "reference": "urn:uuid:dae8dd0d-2421-46ef-a9fd-4cbf31579748"
                  },
                  {
                    "reference": "urn:uuid:20fe44ac-4f86-4881-92e2-b0e3bb99f3db"
                  },
                  {
                    "reference": "urn:uuid:00ea5c6f-b03f-4ca3-9689-41a6d3b6e4a0"
                  },
                  {
                    "reference": "urn:uuid:e3e38e83-54ff-4cf6-8f1c-153436994d69"
                  },
                  {
                    "reference": "urn:uuid:67809e00-0b76-46dc-9a24-f2dd06e11edf"
                  },
                  {
                    "reference": "urn:uuid:7bc4dd1d-1e3f-4100-9460-7e58b8e7a4d6"
                  },
                  {
                    "reference": "urn:uuid:d1dc5e4b-e5b9-4b1c-95f2-870c90404f2b"
                  },
                  {
                    "reference": "urn:uuid:eb24a33c-4c71-406a-aaf2-fe5fed621dec"
                  },
                  {
                    "reference": "urn:uuid:e77d592a-14be-45ad-8b77-9199fae4916f"
                  },
                  {
                    "reference": "urn:uuid:1c264b59-3337-4400-ae3e-8a59e4344d8e"
                  }
                ],
                "text": {
                  "status": "generated",
                  "div": "<div xmlns=\"http://www.w3.org/1999/xhtml\"><h3>Urinalysis</h3><table class=\"hl7__eu__lab__report\"><thead><tr><th>Test</th><th>26-DEC-2017</th><th>Reference&#xA0;Range</th><th>Unit</th></tr></thead><tbody><tr><td>Glucose [Mass/volume] in Urine by Test strip</td><td><strong>8.7 H</strong></td><td>0 - 0</td><td>mg/dL</td></tr><tr><td>Specific gravity of Urine by Test strip</td><td><strong>1.0 L</strong></td><td>1.005 - 1.03</td><td>{nominal}</td></tr><tr><td>pH of Urine by Test strip</td><td>5.2</td><td>4.6 - 7</td><td>pH</td></tr><tr><td>Protein [Mass/volume] in Urine by Test strip</td><td>10.2</td><td>0 - 15</td><td>mg/dL</td></tr><tr><td>Nitrite [Presence] in Urine by Test strip</td><td>Urine nitrite positive</td><td></td><td></td></tr><tr><td>Hemoglobin [Presence] in Urine by Test strip</td><td>Urine blood test = +</td><td></td><td></td></tr><tr><td>Leukocyte esterase [Presence] in Urine by Test strip</td><td>Urine leukocyte test</td><td></td><td></td></tr><tr><td>Leukocytes [#/area] in Urine sediment by Microscopy high power field</td><td><strong>21.5 H</strong></td><td>0 - 5</td><td>/[HPF]</td></tr><tr><td>Erythrocytes [#/area] in Urine sediment by Microscopy high power field</td><td>2.3</td><td>0 - 5</td><td>/[HPF]</td></tr><tr><td>Epithelial cells [#/area] in Urine sediment by Microscopy high power field</td><td>2.1</td><td>0 - 5</td><td>/[HPF]</td></tr><tr><td>Casts [Presence] in Urine sediment by Light microscopy</td><td>Urine microscopy: no casts</td><td></td><td></td></tr><tr><td>Mucus [Presence] in Urine sediment by Light microscopy</td><td>Mucus in urine</td><td></td><td></td></tr><tr><td>Bacteria [#/area] in Urine sediment by Microscopy high power field</td><td>Finding of presence of bacteria</td><td></td><td></td></tr></tbody></table></div>"
                },
                "title": "Urinalysis"
              },
              {
                "code": {
                  "coding": [
                    {
                      "code": "$18725-2",
                      "system": "http://loinc.org",
                      "display": "Microbiology studies"
                    }
                  ],
                  "text": "Microbiology"
                },
                "entry": [
                  {
                    "reference": "urn:uuid:0a1e3916-843e-4fed-9fd6-976934220f4f"
                  }
                ],
                "text": {
                  "status": "generated",
                  "div": "<div xmlns=\"http://www.w3.org/1999/xhtml\"><h3>Microbiology</h3><table class=\"hl7__eu__lab__report\"><thead><tr><th>Test</th><th>26-DEC-2017</th><th>Reference&#xA0;Range</th><th>Unit</th></tr></thead><tbody><tr><td>Bacteria identified in Urine by Culture</td><td></td><td></td><td></td></tr></tbody></table></div>"
                },
                "title": "Microbiology"
              }
            ],
            "title": "Laboratory Report"
          },
          {
            "text": {
              "status": "generated",
              "div": "<div xmlns=\"http://www.w3.org/1999/xhtml\"><h3>Annotation</h3><table class=\"hl7__eu__lab__report\"><tr><th>Conclusion and Recommendations based on this report and previous findings known to us</th></tr><tr><td>Urine analysis shows significant bacteriuria (&gt;100,000 CFU/mL Proteus mirabilis), positive nitrites, leukocyte esterase, hematuria, pyuria, and presence of bacteria, indicating a urinary tract infection. Glucosuria is noted without ketonuria. Low specific gravity may suggest dilute urine. Recommend clinical correlation for UTI symptoms and consideration of targeted antibiotic therapy; further evaluation of glucosuria is advised to rule out underlying glycemic disorders.</td></tr></table></div>"
            },
            "code": {
              "coding": [
                {
                  "system": "http://loinc.org",
                  "code": "48767-8",
                  "display": "Annotation comment"
                }
              ]
            },
            "title": "Annotation comment"
          }
        ],
        "status": "final",
        "subject": {
          "reference": "urn:uuid:f72f82af-8d4d-4830-b00f-a0417ebddf60",
          "display": "Alessio Fanucci"
        },
        "date": "2017-12-26T10:35:07Z",
        "title": "Laboratory Report",
        "confidentiality": "N"
      }
    },
    {
      "fullUrl": "urn:uuid:f152eef0-bb47-49a6-b2fa-3aad084f94dd",
      "resource": {
        "resourceType": "DiagnosticReport",
        "id": "f152eef0-bb47-49a6-b2fa-3aad084f94dd",
        "meta": {
          "profile": [
            "http://hl7.eu/fhir/laboratory/StructureDefinition/DiagnosticReport-eu-lab"
          ]
        },
        "identifier": [
          {
            "assigner": {
              "display": "HL7 Europe"
            },
            "system": "urn:oid:2.16.840.1.113883.2.51.999",
            "value": "22d212ee-a382-4434-b790-37f30608525b"
          }
        ],
        "extension": [
          {
            "url": "http://hl7.org/fhir/5.0/StructureDefinition/extension-DiagnosticReport.composition",
            "valueReference": {
              "reference": "urn:uuid:24df2bc3-c8ac-414c-ac57-e97e8e1be707"
            }
          }
        ],
        "category": [
          {
            "coding": [
              {
                "code": "26436-6",
                "system": "http://loinc.org",
                "display": "Laboratory studies (set)"
              }
            ]
          }
        ],
        "specimen": [
          {
            "reference": "urn:uuid:7443d3ad-12b8-4581-9cfc-866796edd55b"
          },
          {
            "reference": "urn:uuid:fbc711f3-fe18-4ec0-940c-ac49edae6fce"
          }
        ],
        "result": [
          {
            "reference": "urn:uuid:dac164b5-cb6e-4316-97ed-971bd5e8823d"
          },
          {
            "reference": "urn:uuid:71a737c4-7d6d-424b-a0e9-cb5abfc98521"
          },
          {
            "reference": "urn:uuid:5d8c2cdc-606f-4c57-8876-0ee44979463e"
          },
          {
            "reference": "urn:uuid:10d3dac7-00c3-48d6-b6b8-6684c32d1d6f"
          },
          {
            "reference": "urn:uuid:dae8dd0d-2421-46ef-a9fd-4cbf31579748"
          },
          {
            "reference": "urn:uuid:20fe44ac-4f86-4881-92e2-b0e3bb99f3db"
          },
          {
            "reference": "urn:uuid:00ea5c6f-b03f-4ca3-9689-41a6d3b6e4a0"
          },
          {
            "reference": "urn:uuid:e3e38e83-54ff-4cf6-8f1c-153436994d69"
          },
          {
            "reference": "urn:uuid:67809e00-0b76-46dc-9a24-f2dd06e11edf"
          },
          {
            "reference": "urn:uuid:7bc4dd1d-1e3f-4100-9460-7e58b8e7a4d6"
          },
          {
            "reference": "urn:uuid:d1dc5e4b-e5b9-4b1c-95f2-870c90404f2b"
          },
          {
            "reference": "urn:uuid:eb24a33c-4c71-406a-aaf2-fe5fed621dec"
          },
          {
            "reference": "urn:uuid:e77d592a-14be-45ad-8b77-9199fae4916f"
          },
          {
            "reference": "urn:uuid:1c264b59-3337-4400-ae3e-8a59e4344d8e"
          },
          {
            "reference": "urn:uuid:0a1e3916-843e-4fed-9fd6-976934220f4f"
          }
        ],
        "status": "registered",
        "code": {
          "coding": [
            {
              "code": "11502-2",
              "system": "http://loinc.org",
              "display": "Laboratory report"
            }
          ]
        },
        "subject": {
          "reference": "urn:uuid:f72f82af-8d4d-4830-b00f-a0417ebddf60",
          "display": "Alessio Fanucci"
        }
      }
    },
    {
      "fullUrl": "urn:uuid:f72f82af-8d4d-4830-b00f-a0417ebddf60",
      "resource": {
        "resourceType": "Patient",
        "id": "f72f82af-8d4d-4830-b00f-a0417ebddf60",
        "meta": {
          "security": [
            {
              "system": "http://terminology.hl7.org/CodeSystem/v3-ActReason",
              "code": "HTEST"
            },
            {
              "system": "http://terminology.hl7.org/CodeSystem/v3-ActReason",
              "code": "TRAIN"
            }
          ],
          "tag": [
            {
              "system": "https://synderai.net/fhir/CodeSystem/tags",
              "code": "synthetic",
              "display": "SYNDERAI Synthetic data"
            }
          ],
          "profile": [
            "http://hl7.eu/fhir/base/StructureDefinition/patient-eu-core"
          ]
        },
        "identifier": [
          {
            "type": {
              "coding": [
                {
                  "code": "PT",
                  "system": "http://terminology.hl7.org/CodeSystem/v2-0203"
                }
              ]
            },
            "system": "http://ec.europa.eu/identifier/eci",
            "value": "4754-874768-3"
          },
          {
            "type": {
              "coding": [
                {
                  "code": "MR",
                  "system": "http://terminology.hl7.org/CodeSystem/v2-0203"
                }
              ]
            },
            "system": "http://local.setting.eu/identifier",
            "value": "4b888823-bdd8-59a3-b785-e7ba28e6a7b5"
          }
        ],
        "name": [
          {
            "family": "Fanucci"
          },
          {
            "given": [
              "Alessio"
            ]
          },
          {
            "text": "Alessio Fanucci"
          }
        ],
        "address": [
          {
            "line": [
              "Incrocio Combi, 822"
            ],
            "use": "home",
            "type": "physical",
            "postalCode": "33015",
            "city": "Moggio Udinese",
            "country": "Italy"
          }
        ],
        "telecom": [
          {
            "system": "phone",
            "value": "0125684636"
          }
        ],
        "extension": [
          {
            "url": "http://hl7.org/fhir/StructureDefinition/patient-nationality",
            "valueCodeableConcept": {
              "coding": [
                {
                  "code": "IT",
                  "system": "http://hl7.org/fhir/ValueSet/country"
                }
              ]
            }
          }
        ],
        "text": {
          "status": "generated",
          "div": "<div xmlns=\"http://www.w3.org/1999/xhtml\"><table class=\"hl7__ips\"><tr><td>Alessio Fanucci</td><td>male</td><td>12-Sep-1964</td></tr></table></div>"
        },
        "gender": "male",
        "birthDate": "1964-09-12"
      }
    },
    {
      "fullUrl": "urn:uuid:191fa544-0aff-4dfc-a87c-26f13590c387",
      "resource": {
        "resourceType": "ServiceRequest",
        "id": "191fa544-0aff-4dfc-a87c-26f13590c387",
        "meta": {
          "profile": [
            "http://hl7.eu/fhir/laboratory/StructureDefinition/ServiceRequest-eu-lab"
          ]
        },
        "identifier": [
          {
            "system": "http://example.org",
            "value": "0ed8f7a0-b733-4e66-95aa-7dbb889b1c6c"
          }
        ],
        "specimen": [
          {
            "reference": "urn:uuid:7443d3ad-12b8-4581-9cfc-866796edd55b"
          },
          {
            "reference": "urn:uuid:fbc711f3-fe18-4ec0-940c-ac49edae6fce"
          }
        ],
        "reasonCode": [
          {
            "coding": [
              {
                "code": "15777000",
                "system": "http://snomed.info/sct",
                "display": "Prediabetes"
              }
            ]
          },
          {
            "coding": [
              {
                "code": "271737000",
                "system": "http://snomed.info/sct",
                "display": "Anemia"
              }
            ]
          },
          {
            "coding": [
              {
                "code": "40055000",
                "system": "http://snomed.info/sct",
                "display": "Chronic sinusitis"
              }
            ]
          }
        ],
        "status": "active",
        "intent": "order",
        "code": {
          "coding": [
            {
              "code": "108252007",
              "system": "http://snomed.info/sct",
              "display": "Laboratory procedure"
            }
          ]
        },
        "subject": {
          "reference": "urn:uuid:f72f82af-8d4d-4830-b00f-a0417ebddf60",
          "display": "Alessio Fanucci"
        },
        "requester": {
          "reference": "urn:uuid:5ec0d191-5f81-4ebd-93c3-b3bb9aac496a"
        }
      }
    },
    {
      "fullUrl": "urn:uuid:5ec0d191-5f81-4ebd-93c3-b3bb9aac496a",
      "resource": {
        "resourceType": "PractitionerRole",
        "id": "5ec0d191-5f81-4ebd-93c3-b3bb9aac496a",
        "meta": {
          "profile": [
            "http://hl7.eu/fhir/base/StructureDefinition/practitionerRole-eu"
          ]
        },
        "text": {
          "status": "generated",
          "div": "<div xmlns=\"http://www.w3.org/1999/xhtml\">Provider Role Id: 5ec0d191-5f81-4ebd-93c3-b3bb9aac496a</div>"
        },
        "organization": {
          "reference": "urn:uuid:32c11c82-7073-49ef-bf66-b23c9552b260"
        }
      }
    },
    {
      "fullUrl": "urn:uuid:32c11c82-7073-49ef-bf66-b23c9552b260",
      "resource": {
        "resourceType": "Organization",
        "id": "32c11c82-7073-49ef-bf66-b23c9552b260",
        "meta": {
          "profile": [
            "http://hl7.eu/fhir/base/StructureDefinition/organization-eu"
          ]
        },
        "identifier": [
          {
            "assigner": {
              "display": "HL7 Europe"
            },
            "system": "urn:oid:2.16.840.1.113883.2.51.999",
            "value": "1c98f6f8-8439-48b7-888b-bf866be7f405"
          }
        ],
        "address": [
          {
            "city": "Artegna",
            "postalCode": "33011",
            "country": "Italy"
          }
        ],
        "text": {
          "status": "generated",
          "div": "<div xmlns=\"http://www.w3.org/1999/xhtml\">Provider Organization: Ambulatori</div>"
        },
        "name": "Ambulatori"
      }
    },
    {
      "fullUrl": "urn:uuid:7443d3ad-12b8-4581-9cfc-866796edd55b",
      "resource": {
        "resourceType": "Specimen",
        "id": "7443d3ad-12b8-4581-9cfc-866796edd55b",
        "meta": {
          "profile": [
            "http://hl7.eu/fhir/laboratory/StructureDefinition/Specimen-eu-lab"
          ]
        },
        "collection": {
          "collectedDateTime": "2017-12-26"
        },
        "text": {
          "status": "generated",
          "div": "<div xmlns=\"http://www.w3.org/1999/xhtml\"><table class=\"hl7__eu__lab__report\"><tr><th>Specimen</th><th>Collection Date</th></tr><tr><td>Urine specimen</td><td><span class=\"nb\">26-Dec-2017</span></td></tr></table></div>"
        },
        "type": {
          "coding": [
            {
              "code": "122575003",
              "system": "http://snomed.info/sct",
              "display": "Urine specimen"
            }
          ]
        }
      }
    },
    {
      "fullUrl": "urn:uuid:fbc711f3-fe18-4ec0-940c-ac49edae6fce",
      "resource": {
        "resourceType": "Specimen",
        "id": "fbc711f3-fe18-4ec0-940c-ac49edae6fce",
        "meta": {
          "profile": [
            "http://hl7.eu/fhir/laboratory/StructureDefinition/Specimen-eu-lab"
          ]
        },
        "collection": {
          "collectedDateTime": "2017-12-26"
        },
        "text": {
          "status": "generated",
          "div": "<div xmlns=\"http://www.w3.org/1999/xhtml\"><table class=\"hl7__eu__lab__report\"><tr><th>Specimen</th><th>Collection Date</th></tr><tr><td>Urine sediment specimen (specimen)</td><td><span class=\"nb\">26-Dec-2017</span></td></tr></table></div>"
        },
        "type": {
          "coding": [
            {
              "code": "122567009",
              "system": "http://snomed.info/sct",
              "display": "Urine sediment specimen (specimen)"
            }
          ]
        }
      }
    },
    {
      "fullUrl": "urn:uuid:dac164b5-cb6e-4316-97ed-971bd5e8823d",
      "resource": {
        "resourceType": "Observation",
        "id": "dac164b5-cb6e-4316-97ed-971bd5e8823d",
        "meta": {
          "profile": [
            "http://hl7.eu/fhir/laboratory/StructureDefinition/Observation-resultslab-eu-lab"
          ]
        },
        "performer": [
          {
            "display": "The Central European Lab"
          }
        ],
        "category": [
          {
            "coding": [
              {
                "system": "http://terminology.hl7.org/CodeSystem/observation-category",
                "code": "laboratory"
              }
            ]
          }
        ],
        "code": {
          "coding": [
            {
              "code": "5792-7",
              "system": "http://loinc.org",
              "display": "Glucose [Mass/volume] in Urine by Test strip"
            }
          ],
          "text": "Glucose [Mass/volume] in Urine by Test strip"
        },
        "valueQuantity": {
          "system": "http://unitsofmeasure.org",
          "value": 8.7,
          "unit": "mg/dL",
          "code": "mg/dL"
        },
        "referenceRange": [
          {
            "low": {
              "value": 0,
              "code": "mg/dL",
              "system": "http://unitsofmeasure.org"
            }
          },
          {
            "high": {
              "value": 0,
              "code": "mg/dL",
              "system": "http://unitsofmeasure.org"
            }
          }
        ],
        "interpretation": [
          {
            "coding": [
              {
                "code": "H",
                "system": "http://terminology.hl7.org/CodeSystem/v3-ObservationInterpretation",
                "display": "High"
              }
            ]
          }
        ],
        "text": {
          "status": "generated",
          "div": "<div xmlns=\"http://www.w3.org/1999/xhtml\"><table class=\"hl7__eu__lab__report\"><tr><th>Test</th><th>26-Dec-2017</th><th>Reference&#xA0;Range</th><th>Unit</th></tr><tr><td>Glucose [Mass/volume] in Urine by Test strip</td><td>8.7</td><td>0 - 0</td><td>H</td><td>mg/dL</td></tr></table></div>"
        },
        "status": "final",
        "subject": {
          "reference": "urn:uuid:f72f82af-8d4d-4830-b00f-a0417ebddf60",
          "display": "Alessio Fanucci"
        },
        "effectiveDateTime": "2017-12-26T09:35:07Z",
        "specimen": {
          "reference": "urn:uuid:7443d3ad-12b8-4581-9cfc-866796edd55b"
        }
      }
    },
    {
      "fullUrl": "urn:uuid:71a737c4-7d6d-424b-a0e9-cb5abfc98521",
      "resource": {
        "resourceType": "Observation",
        "id": "71a737c4-7d6d-424b-a0e9-cb5abfc98521",
        "meta": {
          "profile": [
            "http://hl7.eu/fhir/laboratory/StructureDefinition/Observation-resultslab-eu-lab"
          ]
        },
        "performer": [
          {
            "display": "The Central European Lab"
          }
        ],
        "category": [
          {
            "coding": [
              {
                "system": "http://terminology.hl7.org/CodeSystem/observation-category",
                "code": "laboratory"
              }
            ]
          }
        ],
        "code": {
          "coding": [
            {
              "code": "2514-8",
              "system": "http://loinc.org",
              "display": "Ketones [Presence] in Urine by Test strip"
            }
          ],
          "text": "Ketones [Presence] in Urine by Test strip"
        },
        "text": {
          "status": "generated",
          "div": "<div xmlns=\"http://www.w3.org/1999/xhtml\"><table class=\"hl7__eu__lab__report\"><tr><th>Test</th><th>26-Dec-2017</th><th>Reference&#xA0;Range</th><th>Unit</th></tr><tr><td>Ketones [Presence] in Urine by Test strip</td></tr></table></div>"
        },
        "status": "final",
        "subject": {
          "reference": "urn:uuid:f72f82af-8d4d-4830-b00f-a0417ebddf60",
          "display": "Alessio Fanucci"
        },
        "effectiveDateTime": "2017-12-26T09:35:07Z",
        "specimen": {
          "reference": "urn:uuid:7443d3ad-12b8-4581-9cfc-866796edd55b"
        }
      }
    },
    {
      "fullUrl": "urn:uuid:5d8c2cdc-606f-4c57-8876-0ee44979463e",
      "resource": {
        "resourceType": "Observation",
        "id": "5d8c2cdc-606f-4c57-8876-0ee44979463e",
        "meta": {
          "profile": [
            "http://hl7.eu/fhir/laboratory/StructureDefinition/Observation-resultslab-eu-lab"
          ]
        },
        "performer": [
          {
            "display": "The Central European Lab"
          }
        ],
        "category": [
          {
            "coding": [
              {
                "system": "http://terminology.hl7.org/CodeSystem/observation-category",
                "code": "laboratory"
              }
            ]
          }
        ],
        "code": {
          "coding": [
            {
              "code": "5811-5",
              "system": "http://loinc.org",
              "display": "Specific gravity of Urine by Test strip"
            }
          ],
          "text": "Specific gravity of Urine by Test strip"
        },
        "valueQuantity": {
          "system": "http://unitsofmeasure.org",
          "value": 1,
          "unit": "{nominal}",
          "code": "{nominal}"
        },
        "referenceRange": [
          {
            "low": {
              "value": 1.005,
              "code": "g/mL",
              "system": "http://unitsofmeasure.org"
            }
          },
          {
            "high": {
              "value": 1.03,
              "code": "g/mL",
              "system": "http://unitsofmeasure.org"
            }
          }
        ],
        "interpretation": [
          {
            "coding": [
              {
                "code": "L",
                "system": "http://terminology.hl7.org/CodeSystem/v3-ObservationInterpretation",
                "display": "Low"
              }
            ]
          }
        ],
        "text": {
          "status": "generated",
          "div": "<div xmlns=\"http://www.w3.org/1999/xhtml\"><table class=\"hl7__eu__lab__report\"><tr><th>Test</th><th>26-Dec-2017</th><th>Reference&#xA0;Range</th><th>Unit</th></tr><tr><td>Specific gravity of Urine by Test strip</td><td>1.0</td><td>1.005 - 1.03</td><td>L</td><td>{nominal}</td></tr></table></div>"
        },
        "status": "final",
        "subject": {
          "reference": "urn:uuid:f72f82af-8d4d-4830-b00f-a0417ebddf60",
          "display": "Alessio Fanucci"
        },
        "effectiveDateTime": "2017-12-26T09:35:07Z",
        "specimen": {
          "reference": "urn:uuid:7443d3ad-12b8-4581-9cfc-866796edd55b"
        }
      }
    },
    {
      "fullUrl": "urn:uuid:10d3dac7-00c3-48d6-b6b8-6684c32d1d6f",
      "resource": {
        "resourceType": "Observation",
        "id": "10d3dac7-00c3-48d6-b6b8-6684c32d1d6f",
        "meta": {
          "profile": [
            "http://hl7.eu/fhir/laboratory/StructureDefinition/Observation-resultslab-eu-lab"
          ]
        },
        "performer": [
          {
            "display": "The Central European Lab"
          }
        ],
        "category": [
          {
            "coding": [
              {
                "system": "http://terminology.hl7.org/CodeSystem/observation-category",
                "code": "laboratory"
              }
            ]
          }
        ],
        "code": {
          "coding": [
            {
              "code": "5803-2",
              "system": "http://loinc.org",
              "display": "pH of Urine by Test strip"
            }
          ],
          "text": "pH of Urine by Test strip"
        },
        "valueQuantity": {
          "system": "http://unitsofmeasure.org",
          "value": 5.2,
          "unit": "pH",
          "code": "pH"
        },
        "referenceRange": [
          {
            "low": {
              "value": 4.6,
              "code": "pH",
              "system": "http://unitsofmeasure.org"
            }
          },
          {
            "high": {
              "value": 7,
              "code": "pH",
              "system": "http://unitsofmeasure.org"
            }
          }
        ],
        "text": {
          "status": "generated",
          "div": "<div xmlns=\"http://www.w3.org/1999/xhtml\"><table class=\"hl7__eu__lab__report\"><tr><th>Test</th><th>26-Dec-2017</th><th>Reference&#xA0;Range</th><th>Unit</th></tr><tr><td>pH of Urine by Test strip</td><td>5.2</td><td>4.6 - 7</td><td></td><td>pH</td></tr></table></div>"
        },
        "status": "final",
        "subject": {
          "reference": "urn:uuid:f72f82af-8d4d-4830-b00f-a0417ebddf60",
          "display": "Alessio Fanucci"
        },
        "effectiveDateTime": "2017-12-26T09:35:07Z",
        "specimen": {
          "reference": "urn:uuid:7443d3ad-12b8-4581-9cfc-866796edd55b"
        }
      }
    },
    {
      "fullUrl": "urn:uuid:dae8dd0d-2421-46ef-a9fd-4cbf31579748",
      "resource": {
        "resourceType": "Observation",
        "id": "dae8dd0d-2421-46ef-a9fd-4cbf31579748",
        "meta": {
          "profile": [
            "http://hl7.eu/fhir/laboratory/StructureDefinition/Observation-resultslab-eu-lab"
          ]
        },
        "performer": [
          {
            "display": "The Central European Lab"
          }
        ],
        "category": [
          {
            "coding": [
              {
                "system": "http://terminology.hl7.org/CodeSystem/observation-category",
                "code": "laboratory"
              }
            ]
          }
        ],
        "code": {
          "coding": [
            {
              "code": "5804-0",
              "system": "http://loinc.org",
              "display": "Protein [Mass/volume] in Urine by Test strip"
            }
          ],
          "text": "Protein [Mass/volume] in Urine by Test strip"
        },
        "valueQuantity": {
          "system": "http://unitsofmeasure.org",
          "value": 10.2,
          "unit": "mg/dL",
          "code": "mg/dL"
        },
        "referenceRange": [
          {
            "low": {
              "value": 0,
              "code": "mg/dL",
              "system": "http://unitsofmeasure.org"
            }
          },
          {
            "high": {
              "value": 15,
              "code": "mg/dL",
              "system": "http://unitsofmeasure.org"
            }
          }
        ],
        "text": {
          "status": "generated",
          "div": "<div xmlns=\"http://www.w3.org/1999/xhtml\"><table class=\"hl7__eu__lab__report\"><tr><th>Test</th><th>26-Dec-2017</th><th>Reference&#xA0;Range</th><th>Unit</th></tr><tr><td>Protein [Mass/volume] in Urine by Test strip</td><td>10.2</td><td>0 - 15</td><td></td><td>mg/dL</td></tr></table></div>"
        },
        "status": "final",
        "subject": {
          "reference": "urn:uuid:f72f82af-8d4d-4830-b00f-a0417ebddf60",
          "display": "Alessio Fanucci"
        },
        "effectiveDateTime": "2017-12-26T09:35:07Z",
        "specimen": {
          "reference": "urn:uuid:7443d3ad-12b8-4581-9cfc-866796edd55b"
        }
      }
    },
    {
      "fullUrl": "urn:uuid:20fe44ac-4f86-4881-92e2-b0e3bb99f3db",
      "resource": {
        "resourceType": "Observation",
        "id": "20fe44ac-4f86-4881-92e2-b0e3bb99f3db",
        "meta": {
          "profile": [
            "http://hl7.eu/fhir/laboratory/StructureDefinition/Observation-resultslab-eu-lab"
          ]
        },
        "performer": [
          {
            "display": "The Central European Lab"
          }
        ],
        "category": [
          {
            "coding": [
              {
                "system": "http://terminology.hl7.org/CodeSystem/observation-category",
                "code": "laboratory"
              }
            ]
          }
        ],
        "code": {
          "coding": [
            {
              "code": "5802-4",
              "system": "http://loinc.org",
              "display": "Nitrite [Presence] in Urine by Test strip"
            }
          ],
          "text": "Nitrite [Presence] in Urine by Test strip"
        },
        "text": {
          "status": "generated",
          "div": "<div xmlns=\"http://www.w3.org/1999/xhtml\"><table class=\"hl7__eu__lab__report\"><tr><th>Test</th><th>26-Dec-2017</th><th>Reference&#xA0;Range</th><th>Unit</th></tr><tr><td>Nitrite [Presence] in Urine by Test strip</td></tr></table></div>"
        },
        "status": "final",
        "subject": {
          "reference": "urn:uuid:f72f82af-8d4d-4830-b00f-a0417ebddf60",
          "display": "Alessio Fanucci"
        },
        "effectiveDateTime": "2017-12-26T09:35:07Z",
        "specimen": {
          "reference": "urn:uuid:7443d3ad-12b8-4581-9cfc-866796edd55b"
        }
      }
    },
    {
      "fullUrl": "urn:uuid:00ea5c6f-b03f-4ca3-9689-41a6d3b6e4a0",
      "resource": {
        "resourceType": "Observation",
        "id": "00ea5c6f-b03f-4ca3-9689-41a6d3b6e4a0",
        "meta": {
          "profile": [
            "http://hl7.eu/fhir/laboratory/StructureDefinition/Observation-resultslab-eu-lab"
          ]
        },
        "performer": [
          {
            "display": "The Central European Lab"
          }
        ],
        "category": [
          {
            "coding": [
              {
                "system": "http://terminology.hl7.org/CodeSystem/observation-category",
                "code": "laboratory"
              }
            ]
          }
        ],
        "code": {
          "coding": [
            {
              "code": "5794-3",
              "system": "http://loinc.org",
              "display": "Hemoglobin [Presence] in Urine by Test strip"
            }
          ],
          "text": "Hemoglobin [Presence] in Urine by Test strip"
        },
        "text": {
          "status": "generated",
          "div": "<div xmlns=\"http://www.w3.org/1999/xhtml\"><table class=\"hl7__eu__lab__report\"><tr><th>Test</th><th>26-Dec-2017</th><th>Reference&#xA0;Range</th><th>Unit</th></tr><tr><td>Hemoglobin [Presence] in Urine by Test strip</td></tr></table></div>"
        },
        "status": "final",
        "subject": {
          "reference": "urn:uuid:f72f82af-8d4d-4830-b00f-a0417ebddf60",
          "display": "Alessio Fanucci"
        },
        "effectiveDateTime": "2017-12-26T09:35:07Z",
        "specimen": {
          "reference": "urn:uuid:7443d3ad-12b8-4581-9cfc-866796edd55b"
        }
      }
    },
    {
      "fullUrl": "urn:uuid:e3e38e83-54ff-4cf6-8f1c-153436994d69",
      "resource": {
        "resourceType": "Observation",
        "id": "e3e38e83-54ff-4cf6-8f1c-153436994d69",
        "meta": {
          "profile": [
            "http://hl7.eu/fhir/laboratory/StructureDefinition/Observation-resultslab-eu-lab"
          ]
        },
        "performer": [
          {
            "display": "The Central European Lab"
          }
        ],
        "category": [
          {
            "coding": [
              {
                "system": "http://terminology.hl7.org/CodeSystem/observation-category",
                "code": "laboratory"
              }
            ]
          }
        ],
        "code": {
          "coding": [
            {
              "code": "5799-2",
              "system": "http://loinc.org",
              "display": "Leukocyte esterase [Presence] in Urine by Test strip"
            }
          ],
          "text": "Leukocyte esterase [Presence] in Urine by Test strip"
        },
        "text": {
          "status": "generated",
          "div": "<div xmlns=\"http://www.w3.org/1999/xhtml\"><table class=\"hl7__eu__lab__report\"><tr><th>Test</th><th>26-Dec-2017</th><th>Reference&#xA0;Range</th><th>Unit</th></tr><tr><td>Leukocyte esterase [Presence] in Urine by Test strip</td></tr></table></div>"
        },
        "status": "final",
        "subject": {
          "reference": "urn:uuid:f72f82af-8d4d-4830-b00f-a0417ebddf60",
          "display": "Alessio Fanucci"
        },
        "effectiveDateTime": "2017-12-26T09:35:07Z",
        "specimen": {
          "reference": "urn:uuid:7443d3ad-12b8-4581-9cfc-866796edd55b"
        }
      }
    },
    {
      "fullUrl": "urn:uuid:67809e00-0b76-46dc-9a24-f2dd06e11edf",
      "resource": {
        "resourceType": "Observation",
        "id": "67809e00-0b76-46dc-9a24-f2dd06e11edf",
        "meta": {
          "profile": [
            "http://hl7.eu/fhir/laboratory/StructureDefinition/Observation-resultslab-eu-lab"
          ]
        },
        "performer": [
          {
            "display": "The Central European Lab"
          }
        ],
        "category": [
          {
            "coding": [
              {
                "system": "http://terminology.hl7.org/CodeSystem/observation-category",
                "code": "laboratory"
              }
            ]
          }
        ],
        "code": {
          "coding": [
            {
              "code": "5821-4",
              "system": "http://loinc.org",
              "display": "Leukocytes [#/area] in Urine sediment by Microscopy high power field"
            }
          ],
          "text": "Leukocytes [#/area] in Urine sediment by Microscopy high power field"
        },
        "valueQuantity": {
          "system": "http://unitsofmeasure.org",
          "value": 21.5,
          "unit": "/[HPF]",
          "code": "/[HPF]"
        },
        "referenceRange": [
          {
            "low": {
              "value": 0,
              "code": "#/area",
              "system": "http://unitsofmeasure.org"
            }
          },
          {
            "high": {
              "value": 5,
              "code": "#/area",
              "system": "http://unitsofmeasure.org"
            }
          }
        ],
        "interpretation": [
          {
            "coding": [
              {
                "code": "H",
                "system": "http://terminology.hl7.org/CodeSystem/v3-ObservationInterpretation",
                "display": "High"
              }
            ]
          }
        ],
        "text": {
          "status": "generated",
          "div": "<div xmlns=\"http://www.w3.org/1999/xhtml\"><table class=\"hl7__eu__lab__report\"><tr><th>Test</th><th>26-Dec-2017</th><th>Reference&#xA0;Range</th><th>Unit</th></tr><tr><td>Leukocytes [#/area] in Urine sediment by Microscopy high power field</td><td>21.5</td><td>0 - 5</td><td>H</td><td>/[HPF]</td></tr></table></div>"
        },
        "status": "final",
        "subject": {
          "reference": "urn:uuid:f72f82af-8d4d-4830-b00f-a0417ebddf60",
          "display": "Alessio Fanucci"
        },
        "effectiveDateTime": "2017-12-26T09:35:07Z",
        "specimen": {
          "reference": "urn:uuid:fbc711f3-fe18-4ec0-940c-ac49edae6fce"
        }
      }
    },
    {
      "fullUrl": "urn:uuid:7bc4dd1d-1e3f-4100-9460-7e58b8e7a4d6",
      "resource": {
        "resourceType": "Observation",
        "id": "7bc4dd1d-1e3f-4100-9460-7e58b8e7a4d6",
        "meta": {
          "profile": [
            "http://hl7.eu/fhir/laboratory/StructureDefinition/Observation-resultslab-eu-lab"
          ]
        },
        "performer": [
          {
            "display": "The Central European Lab"
          }
        ],
        "category": [
          {
            "coding": [
              {
                "system": "http://terminology.hl7.org/CodeSystem/observation-category",
                "code": "laboratory"
              }
            ]
          }
        ],
        "code": {
          "coding": [
            {
              "code": "13945-1",
              "system": "http://loinc.org",
              "display": "Erythrocytes [#/area] in Urine sediment by Microscopy high power field"
            }
          ],
          "text": "Erythrocytes [#/area] in Urine sediment by Microscopy high power field"
        },
        "valueQuantity": {
          "system": "http://unitsofmeasure.org",
          "value": 2.3,
          "unit": "/[HPF]",
          "code": "/[HPF]"
        },
        "referenceRange": [
          {
            "low": {
              "value": 0,
              "code": "[#/area]",
              "system": "http://unitsofmeasure.org"
            }
          },
          {
            "high": {
              "value": 5,
              "code": "[#/area]",
              "system": "http://unitsofmeasure.org"
            }
          }
        ],
        "text": {
          "status": "generated",
          "div": "<div xmlns=\"http://www.w3.org/1999/xhtml\"><table class=\"hl7__eu__lab__report\"><tr><th>Test</th><th>26-Dec-2017</th><th>Reference&#xA0;Range</th><th>Unit</th></tr><tr><td>Erythrocytes [#/area] in Urine sediment by Microscopy high power field</td><td>2.3</td><td>0 - 5</td><td></td><td>/[HPF]</td></tr></table></div>"
        },
        "status": "final",
        "subject": {
          "reference": "urn:uuid:f72f82af-8d4d-4830-b00f-a0417ebddf60",
          "display": "Alessio Fanucci"
        },
        "effectiveDateTime": "2017-12-26T09:35:07Z",
        "specimen": {
          "reference": "urn:uuid:fbc711f3-fe18-4ec0-940c-ac49edae6fce"
        }
      }
    },
    {
      "fullUrl": "urn:uuid:d1dc5e4b-e5b9-4b1c-95f2-870c90404f2b",
      "resource": {
        "resourceType": "Observation",
        "id": "d1dc5e4b-e5b9-4b1c-95f2-870c90404f2b",
        "meta": {
          "profile": [
            "http://hl7.eu/fhir/laboratory/StructureDefinition/Observation-resultslab-eu-lab"
          ]
        },
        "performer": [
          {
            "display": "The Central European Lab"
          }
        ],
        "category": [
          {
            "coding": [
              {
                "system": "http://terminology.hl7.org/CodeSystem/observation-category",
                "code": "laboratory"
              }
            ]
          }
        ],
        "code": {
          "coding": [
            {
              "code": "5787-7",
              "system": "http://loinc.org",
              "display": "Epithelial cells [#/area] in Urine sediment by Microscopy high power field"
            }
          ],
          "text": "Epithelial cells [#/area] in Urine sediment by Microscopy high power field"
        },
        "valueQuantity": {
          "system": "http://unitsofmeasure.org",
          "value": 2.1,
          "unit": "/[HPF]",
          "code": "/[HPF]"
        },
        "referenceRange": [
          {
            "low": {
              "value": 0,
              "code": "[#/area]",
              "system": "http://unitsofmeasure.org"
            }
          },
          {
            "high": {
              "value": 5,
              "code": "[#/area]",
              "system": "http://unitsofmeasure.org"
            }
          }
        ],
        "text": {
          "status": "generated",
          "div": "<div xmlns=\"http://www.w3.org/1999/xhtml\"><table class=\"hl7__eu__lab__report\"><tr><th>Test</th><th>26-Dec-2017</th><th>Reference&#xA0;Range</th><th>Unit</th></tr><tr><td>Epithelial cells [#/area] in Urine sediment by Microscopy high power field</td><td>2.1</td><td>0 - 5</td><td></td><td>/[HPF]</td></tr></table></div>"
        },
        "status": "final",
        "subject": {
          "reference": "urn:uuid:f72f82af-8d4d-4830-b00f-a0417ebddf60",
          "display": "Alessio Fanucci"
        },
        "effectiveDateTime": "2017-12-26T09:35:07Z",
        "specimen": {
          "reference": "urn:uuid:fbc711f3-fe18-4ec0-940c-ac49edae6fce"
        }
      }
    },
    {
      "fullUrl": "urn:uuid:eb24a33c-4c71-406a-aaf2-fe5fed621dec",
      "resource": {
        "resourceType": "Observation",
        "id": "eb24a33c-4c71-406a-aaf2-fe5fed621dec",
        "meta": {
          "profile": [
            "http://hl7.eu/fhir/laboratory/StructureDefinition/Observation-resultslab-eu-lab"
          ]
        },
        "performer": [
          {
            "display": "The Central European Lab"
          }
        ],
        "category": [
          {
            "coding": [
              {
                "system": "http://terminology.hl7.org/CodeSystem/observation-category",
                "code": "laboratory"
              }
            ]
          }
        ],
        "code": {
          "coding": [
            {
              "code": "24124-0",
              "system": "http://loinc.org",
              "display": "Casts [Presence] in Urine sediment by Light microscopy"
            }
          ],
          "text": "Casts [Presence] in Urine sediment by Light microscopy"
        },
        "text": {
          "status": "generated",
          "div": "<div xmlns=\"http://www.w3.org/1999/xhtml\"><table class=\"hl7__eu__lab__report\"><tr><th>Test</th><th>26-Dec-2017</th><th>Reference&#xA0;Range</th><th>Unit</th></tr><tr><td>Casts [Presence] in Urine sediment by Light microscopy</td></tr></table></div>"
        },
        "status": "final",
        "subject": {
          "reference": "urn:uuid:f72f82af-8d4d-4830-b00f-a0417ebddf60",
          "display": "Alessio Fanucci"
        },
        "effectiveDateTime": "2017-12-26T09:35:07Z",
        "specimen": {
          "reference": "urn:uuid:fbc711f3-fe18-4ec0-940c-ac49edae6fce"
        }
      }
    },
    {
      "fullUrl": "urn:uuid:e77d592a-14be-45ad-8b77-9199fae4916f",
      "resource": {
        "resourceType": "Observation",
        "id": "e77d592a-14be-45ad-8b77-9199fae4916f",
        "meta": {
          "profile": [
            "http://hl7.eu/fhir/laboratory/StructureDefinition/Observation-resultslab-eu-lab"
          ]
        },
        "performer": [
          {
            "display": "The Central European Lab"
          }
        ],
        "category": [
          {
            "coding": [
              {
                "system": "http://terminology.hl7.org/CodeSystem/observation-category",
                "code": "laboratory"
              }
            ]
          }
        ],
        "code": {
          "coding": [
            {
              "code": "8247-9",
              "system": "http://loinc.org",
              "display": "Mucus [Presence] in Urine sediment by Light microscopy"
            }
          ],
          "text": "Mucus [Presence] in Urine sediment by Light microscopy"
        },
        "text": {
          "status": "generated",
          "div": "<div xmlns=\"http://www.w3.org/1999/xhtml\"><table class=\"hl7__eu__lab__report\"><tr><th>Test</th><th>26-Dec-2017</th><th>Reference&#xA0;Range</th><th>Unit</th></tr><tr><td>Mucus [Presence] in Urine sediment by Light microscopy</td></tr></table></div>"
        },
        "status": "final",
        "subject": {
          "reference": "urn:uuid:f72f82af-8d4d-4830-b00f-a0417ebddf60",
          "display": "Alessio Fanucci"
        },
        "effectiveDateTime": "2017-12-26T09:35:07Z",
        "specimen": {
          "reference": "urn:uuid:fbc711f3-fe18-4ec0-940c-ac49edae6fce"
        }
      }
    },
    {
      "fullUrl": "urn:uuid:1c264b59-3337-4400-ae3e-8a59e4344d8e",
      "resource": {
        "resourceType": "Observation",
        "id": "1c264b59-3337-4400-ae3e-8a59e4344d8e",
        "meta": {
          "profile": [
            "http://hl7.eu/fhir/laboratory/StructureDefinition/Observation-resultslab-eu-lab"
          ]
        },
        "performer": [
          {
            "display": "The Central European Lab"
          }
        ],
        "category": [
          {
            "coding": [
              {
                "system": "http://terminology.hl7.org/CodeSystem/observation-category",
                "code": "laboratory"
              }
            ]
          }
        ],
        "code": {
          "coding": [
            {
              "code": "5769-5",
              "system": "http://loinc.org",
              "display": "Bacteria [#/area] in Urine sediment by Microscopy high power field"
            }
          ],
          "text": "Bacteria [#/area] in Urine sediment by Microscopy high power field"
        },
        "text": {
          "status": "generated",
          "div": "<div xmlns=\"http://www.w3.org/1999/xhtml\"><table class=\"hl7__eu__lab__report\"><tr><th>Test</th><th>26-Dec-2017</th><th>Reference&#xA0;Range</th><th>Unit</th></tr><tr><td>Bacteria [#/area] in Urine sediment by Microscopy high power field</td></tr></table></div>"
        },
        "status": "final",
        "subject": {
          "reference": "urn:uuid:f72f82af-8d4d-4830-b00f-a0417ebddf60",
          "display": "Alessio Fanucci"
        },
        "effectiveDateTime": "2017-12-26T09:35:07Z",
        "specimen": {
          "reference": "urn:uuid:fbc711f3-fe18-4ec0-940c-ac49edae6fce"
        }
      }
    },
    {
      "fullUrl": "urn:uuid:0a1e3916-843e-4fed-9fd6-976934220f4f",
      "resource": {
        "resourceType": "Observation",
        "id": "0a1e3916-843e-4fed-9fd6-976934220f4f",
        "meta": {
          "profile": [
            "http://hl7.eu/fhir/laboratory/StructureDefinition/Observation-resultslab-eu-lab"
          ]
        },
        "performer": [
          {
            "display": "The Central European Lab"
          }
        ],
        "category": [
          {
            "coding": [
              {
                "system": "http://terminology.hl7.org/CodeSystem/observation-category",
                "code": "laboratory"
              }
            ]
          }
        ],
        "code": {
          "coding": [
            {
              "code": "630-4",
              "system": "http://loinc.org",
              "display": "Bacteria identified in Urine by Culture"
            }
          ],
          "text": "Bacteria identified in Urine by Culture"
        },
        "text": {
          "status": "generated",
          "div": "<div xmlns=\"http://www.w3.org/1999/xhtml\"><table class=\"hl7__eu__lab__report\"><tr><th>Test</th><th>26-Dec-2017</th><th>Reference&#xA0;Range</th><th>Unit</th></tr><tr><td>Bacteria identified in Urine by Culture</td></tr></table></div>"
        },
        "status": "final",
        "subject": {
          "reference": "urn:uuid:f72f82af-8d4d-4830-b00f-a0417ebddf60",
          "display": "Alessio Fanucci"
        },
        "effectiveDateTime": "2017-12-26T09:35:07Z",
        "specimen": {
          "reference": "urn:uuid:7443d3ad-12b8-4581-9cfc-866796edd55b"
        }
      }
    },
    {
      "fullUrl": "urn:uuid:258fdec2-75df-4b23-bca5-32e9582ba695",
      "resource": {
        "resourceType": "Device",
        "id": "258fdec2-75df-4b23-bca5-32e9582ba695",
        "deviceName": [
          {
            "name": "SYNDERAI Synthetic Generator",
            "type": "manufacturer-name"
          }
        ],
        "version": [
          {
            "value": "5.0"
          }
        ],
        "text": {
          "status": "generated",
          "div": "<div xmlns=\"http://www.w3.org/1999/xhtml\">SYNDERAI Synthetic Generator v5.0</div>"
        },
        "status": "active\"",
        "distinctIdentifier": "synderai-generator-50",
        "manufacturer": "SYNDERAI Project"
      }
    },
    {
      "fullUrl": "urn:uuid:c11d3480-f2ba-4379-ad6d-4f82ca5bee49",
      "resource": {
        "resourceType": "Provenance",
        "id": "c11d3480-f2ba-4379-ad6d-4f82ca5bee49",
        "target": [
          {
            "reference": "Patient/f72f82af-8d4d-4830-b00f-a0417ebddf60"
          },
          {
            "reference": "Bundle/6607c0dc-b1f0-45a7-ad3a-0e141064f714"
          },
          {
            "reference": "Composition/ab2c96d9-bab3-4c1e-a16c-17209881e562"
          },
          {
            "reference": "PractitionerRole/e3b0a578-32f0-41b4-a913-aba48978adfb"
          },
          {
            "reference": "Practitioner/96983317-4436-4168-95f2-89b0c9443a66"
          },
          {
            "reference": "PractitionerRole/5ec0d191-5f81-4ebd-93c3-b3bb9aac496a"
          },
          {
            "reference": "Organization/32c11c82-7073-49ef-bf66-b23c9552b260"
          }
        ],
        "activity": {
          "text": "Synthetic Example Data Generation"
        },
        "policy": [
          "https://synderai.net/synderai-synthetic-data-policy"
        ],
        "agent": [
          {
            "type": {
              "text": "author"
            },
            "who": {
              "reference": "Device/258fdec2-75df-4b23-bca5-32e9582ba695"
            }
          }
        ],
        "reason": [
          {
            "text": "Interoperability Testing and Training (non-clinical use)"
          }
        ],
        "text": {
          "status": "generated",
          "div": "<div xmlns=\"http://www.w3.org/1999/xhtml\">Provenance for SYNDERAI Synthetic Example Data Resource</div>"
        },
        "recorded": "2017-12-26T10:35:07Z"
      }
    },
    {
      "fullUrl": "urn:uuid:e3b0a578-32f0-41b4-a913-aba48978adfb",
      "resource": {
        "resourceType": "PractitionerRole",
        "id": "e3b0a578-32f0-41b4-a913-aba48978adfb",
        "meta": {
          "profile": [
            "http://hl7.eu/fhir/base/StructureDefinition/practitionerRole-eu"
          ]
        },
        "text": {
          "status": "generated",
          "div": "<div xmlns=\"http://www.w3.org/1999/xhtml\">Laboratory Role Id: e3b0a578-32f0-41b4-a913-aba48978adfb</div>"
        },
        "practitioner": {
          "reference": "urn:uuid:96983317-4436-4168-95f2-89b0c9443a66"
        }
      }
    },
    {
      "fullUrl": "urn:uuid:96983317-4436-4168-95f2-89b0c9443a66",
      "resource": {
        "resourceType": "Practitioner",
        "id": "96983317-4436-4168-95f2-89b0c9443a66",
        "meta": {
          "profile": [
            "http://hl7.eu/fhir/base/StructureDefinition/practitioner-eu"
          ]
        },
        "identifier": [
          {
            "assigner": {
              "display": "HL7 Europe"
            },
            "system": "urn:oid:2.16.840.1.113883.2.51.999",
            "value": "4c42ebae-cd39-4b55-b7f5-98e73f0ac05b"
          }
        ],
        "name": [
          {
            "prefix": [
              "dr"
            ],
            "given": [
              "Ex"
            ],
            "family": "Ample"
          }
        ],
        "address": [
          {
            "line": [
              "Laboratoire Central Europenne",
              "Boulevard du Jardin Botanique 32"
            ],
            "postalCode": "1000",
            "city": "Brussels",
            "country": "Belgium"
          }
        ],
        "text": {
          "status": "generated",
          "div": "<div xmlns=\"http://www.w3.org/1999/xhtml\">Laboratory: Laboratoire Central Europenne, 1000 Brussels, Belgium</div>"
        }
      }
    }
  ],
  "type": "document",
  "timestamp": "2017-12-26T10:35:07Z"
}
