{
  "resourceType": "Bundle",
  "id": "b807465e-5d7e-483a-a026-b4a0f002338a",
  "meta": {
    "profile": [
      "http://hl7.eu/fhir/laboratory/StructureDefinition/Bundle-eu-lab"
    ]
  },
  "identifier": {
    "assigner": {
      "display": "HL7 Europe"
    },
    "system": "urn:oid:2.16.840.1.113883.2.51.999",
    "value": "4572182c-89fb-4a55-9ff8-c7026c5f546d"
  },
  "entry": [
    {
      "fullUrl": "urn:uuid:19775ef6-28c6-46c5-912d-8036abbdd1ed",
      "resource": {
        "resourceType": "Composition",
        "id": "19775ef6-28c6-46c5-912d-8036abbdd1ed",
        "meta": {
          "profile": [
            "http://hl7.eu/fhir/laboratory/StructureDefinition/Composition-eu-lab"
          ]
        },
        "identifier": {
          "assigner": {
            "display": "HL7 Europe"
          },
          "system": "urn:oid:2.16.840.1.113883.2.51.999",
          "value": "71f0c94b-3803-422b-88c6-3dc24dec24e3"
        },
        "author": [
          {
            "reference": "urn:uuid:71de7820-a28a-458f-8453-317324c1052b"
          }
        ],
        "category": [
          {
            "coding": [
              {
                "code": "26436-6",
                "system": "http://loinc.org",
                "display": "Laboratory studies (set)"
              }
            ]
          }
        ],
        "type": {
          "coding": [
            {
              "code": "11502-2",
              "system": "http://loinc.org",
              "display": "Laboratory report"
            }
          ],
          "text": "Laboratory Report"
        },
        "section": [
          {
            "code": {
              "coding": [
                {
                  "code": "26436-6",
                  "system": "http://loinc.org",
                  "display": "Laboratory studies (set)"
                }
              ],
              "text": "Laboratory studies"
            },
            "section": [
              {
                "code": {
                  "coding": [
                    {
                      "code": "$18719-5",
                      "system": "http://loinc.org",
                      "display": "Chemistry studies (set)"
                    }
                  ],
                  "text": "Chemistry"
                },
                "entry": [
                  {
                    "reference": "urn:uuid:7a421f98-70b5-4d76-8fa4-b5a3e5651dfc"
                  },
                  {
                    "reference": "urn:uuid:53b6cdab-dd3b-483e-a071-31aeabb83cd3"
                  },
                  {
                    "reference": "urn:uuid:6ec564bd-fad1-4cf6-9dc2-1ad967ac9a65"
                  },
                  {
                    "reference": "urn:uuid:0d0b58b6-b43a-4d48-8528-173e0e02496f"
                  },
                  {
                    "reference": "urn:uuid:64d1027f-6e65-4060-a5d1-59aaceb1f9b5"
                  },
                  {
                    "reference": "urn:uuid:c361af4d-66e7-43eb-bdaf-fe2940ea5428"
                  },
                  {
                    "reference": "urn:uuid:9cc0e5c8-a4fc-4980-95ff-20989a783642"
                  },
                  {
                    "reference": "urn:uuid:f9d317d1-4fe3-4413-a874-9e83ccc7b2c2"
                  },
                  {
                    "reference": "urn:uuid:63e0ab19-8aec-4a08-85cf-38ca7583f85b"
                  },
                  {
                    "reference": "urn:uuid:38d0b532-ac5e-4f8b-b6ef-7a8fa35cf161"
                  },
                  {
                    "reference": "urn:uuid:1b1c382c-318d-40cf-b5df-16933b1b5935"
                  },
                  {
                    "reference": "urn:uuid:841303c4-b8cb-45aa-8607-487c6fbde12a"
                  },
                  {
                    "reference": "urn:uuid:f7e82a6f-5e59-4837-9ed4-aa0681f5b605"
                  },
                  {
                    "reference": "urn:uuid:73ac6764-e270-4580-b910-255ce2c658a6"
                  },
                  {
                    "reference": "urn:uuid:5555d0c5-886e-4f14-b59e-9c03df47deff"
                  },
                  {
                    "reference": "urn:uuid:d3e6cb47-8d0a-4ff9-b859-e539bbd748e5"
                  },
                  {
                    "reference": "urn:uuid:4995e5ee-f6fc-4817-b368-5980124a8d01"
                  },
                  {
                    "reference": "urn:uuid:32bba603-1b14-4a12-8229-536f81f5d9b1"
                  }
                ],
                "text": {
                  "status": "generated",
                  "div": "<div xmlns=\"http://www.w3.org/1999/xhtml\"><h3>Chemistry</h3><table class=\"hl7__eu__lab__report\"><thead><tr><th>Test</th><th>01-OCT-2019</th><th>Reference&#xA0;Range</th><th>Unit</th></tr></thead><tbody><tr><td>Glucose [Mass/volume] in Serum or Plasma</td><td>96.5</td><td>70 - 99</td><td>mg/dL</td></tr><tr><td>Urea nitrogen [Mass/volume] in Serum or Plasma</td><td>14.0</td><td>7 - 50</td><td>mg/dL</td></tr><tr><td>Creatinine [Mass/volume] in Serum or Plasma</td><td><strong>2.0 H</strong></td><td>0.6 - 1.1</td><td>mg/dL</td></tr><tr><td>Calcium [Mass/volume] in Serum or Plasma</td><td>9.2</td><td>8.6 - 10.4</td><td>mg/dL</td></tr><tr><td>Sodium [Moles/volume] in Serum or Plasma</td><td>141.3</td><td>135 - 145</td><td>mmol/L</td></tr><tr><td>Potassium [Moles/volume] in Serum or Plasma</td><td>4.5</td><td>3.5 - 5.1</td><td>mmol/L</td></tr><tr><td>Chloride [Moles/volume] in Serum or Plasma</td><td>107.8</td><td>98 - 108</td><td>mmol/L</td></tr><tr><td>Carbon dioxide, total [Moles/volume] in Serum or Plasma</td><td>28.6</td><td>22 - 32</td><td>mmol/L</td></tr><tr><td>Ketones [Presence] in Urine by Test strip</td><td>Urine ketone test = ++</td><td></td><td></td></tr><tr><td>Hemoglobin A1c/Hemoglobin.total in Blood</td><td><strong>3.2 L</strong></td><td>4 - 6.4</td><td>%</td></tr><tr><td>Glucose [Mass/volume] in Blood</td><td>96.5</td><td>70 - 100</td><td>mg/dL</td></tr><tr><td>Urea nitrogen [Mass/volume] in Blood</td><td>14.0</td><td>7 - 43</td><td>mg/dL</td></tr><tr><td>Creatinine [Mass/volume] in Blood</td><td><strong>3.7 H</strong></td><td>0.6 - 1.1</td><td>mg/dL</td></tr><tr><td>Calcium [Mass/volume] in Blood</td><td>9.2</td><td>8.5 - 10.5</td><td>mg/dL</td></tr><tr><td>Sodium [Moles/volume] in Blood</td><td>141.3</td><td>135 - 145</td><td>mmol/L</td></tr><tr><td>Potassium [Moles/volume] in Blood</td><td>4.5</td><td>3.5 - 5.1</td><td>mmol/L</td></tr><tr><td>Chloride [Moles/volume] in Blood</td><td>107.8</td><td>98 - 108</td><td>mmol/L</td></tr><tr><td>Carbon dioxide, total [Moles/volume] in Blood</td><td>28.6</td><td>22 - 29</td><td>mmol/L</td></tr></tbody></table></div>"
                },
                "title": "Chemistry"
              },
              {
                "code": {
                  "coding": [
                    {
                      "code": "$18729-4",
                      "system": "http://loinc.org",
                      "display": "Urinalysis studies (set)"
                    }
                  ],
                  "text": "Urinalysis"
                },
                "entry": [
                  {
                    "reference": "urn:uuid:263b3aca-b6e0-43a6-a0af-405c93977c0c"
                  },
                  {
                    "reference": "urn:uuid:afb565d7-6bb9-4eb4-b13e-2cd4f141fbef"
                  },
                  {
                    "reference": "urn:uuid:0bb3c54a-d3f7-4dec-9663-65f9e8359a0c"
                  },
                  {
                    "reference": "urn:uuid:d9c45b2a-de0e-44ca-928c-3ec6221f2173"
                  },
                  {
                    "reference": "urn:uuid:2a8986ed-840d-41ec-8ac9-9143c8451e39"
                  },
                  {
                    "reference": "urn:uuid:81eed4ab-9a4a-40b3-962a-413c272199ef"
                  },
                  {
                    "reference": "urn:uuid:4af11bf3-9cbd-451a-b8aa-c35c1c3ff185"
                  },
                  {
                    "reference": "urn:uuid:0fdfd214-872a-45aa-a6fb-817fb9b35d7e"
                  },
                  {
                    "reference": "urn:uuid:ba3604fd-e177-4fe2-ac7c-195e10a550aa"
                  },
                  {
                    "reference": "urn:uuid:808ab7b9-bfcb-4924-846c-533fafefaa94"
                  },
                  {
                    "reference": "urn:uuid:1e81f768-6d1f-4a4f-9b48-4b3891057271"
                  },
                  {
                    "reference": "urn:uuid:7e3992ef-30c3-44c4-91c0-5e730f8e32ae"
                  }
                ],
                "text": {
                  "status": "generated",
                  "div": "<div xmlns=\"http://www.w3.org/1999/xhtml\"><h3>Urinalysis</h3><table class=\"hl7__eu__lab__report\"><thead><tr><th>Test</th><th>01-OCT-2019</th><th>Reference&#xA0;Range</th><th>Unit</th></tr></thead><tbody><tr><td>Glucose [Mass/volume] in Urine by Test strip</td><td><strong>1.1 H</strong></td><td>0.8 - 0</td><td>mg/dL</td></tr><tr><td>Glucose [Presence] in Urine by Test strip</td><td>++</td><td></td><td></td></tr><tr><td>Bilirubin.total [Mass/volume] in Urine by Test strip</td><td>0.3</td><td>0 - 1</td><td>mg/dL</td></tr><tr><td>Bilirubin.total [Presence] in Urine by Test strip</td><td>Finding of bilirubin in urine</td><td></td><td></td></tr><tr><td>Ketones [Mass/volume] in Urine by Test strip</td><td>0.5</td><td>0 - 4</td><td>mg/dL</td></tr><tr><td>Specific gravity of Urine by Test strip</td><td><strong>1.0 L</strong></td><td>1.005 - 1.03</td><td>{nominal}</td></tr><tr><td>pH of Urine by Test strip</td><td>5.9</td><td>4.6 - 7</td><td>pH</td></tr><tr><td>Protein [Mass/volume] in Urine by Test strip</td><td><strong>325.9 H</strong></td><td>0 - 14</td><td>mg/dL</td></tr><tr><td>Protein [Presence] in Urine by Test strip</td><td>Urine protein test = ++</td><td></td><td></td></tr><tr><td>Nitrite [Presence] in Urine by Test strip</td><td>Urine nitrite negative</td><td></td><td></td></tr><tr><td>Hemoglobin [Presence] in Urine by Test strip</td><td>Urine blood test = negative</td><td></td><td></td></tr><tr><td>Leukocyte esterase [Presence] in Urine by Test strip</td><td>Urine leukocyte test negative</td><td></td><td></td></tr></tbody></table></div>"
                },
                "title": "Urinalysis"
              },
              {
                "code": {
                  "coding": [
                    {
                      "code": "$LP7846-1",
                      "system": "http://loinc.org",
                      "display": "Specimen information"
                    }
                  ],
                  "text": "Specimen information"
                },
                "entry": [
                  {
                    "reference": "urn:uuid:aa618a3a-293e-45bc-a78e-ffb82b7bab47"
                  },
                  {
                    "reference": "urn:uuid:13c667f7-84aa-48f9-a8cd-acfc441a1bcc"
                  },
                  {
                    "reference": "urn:uuid:f3d3272b-1ecd-47b0-a598-54fc911e444f"
                  },
                  {
                    "reference": "urn:uuid:4f3680fd-06e6-4db6-be11-e4a4df0e57d7"
                  }
                ],
                "text": {
                  "status": "generated",
                  "div": "<div xmlns=\"http://www.w3.org/1999/xhtml\"><h3>Specimen information</h3><table class=\"hl7__eu__lab__report\"><thead><tr><th>Test</th><th>01-OCT-2019</th><th>Specimen</th><th></th></tr></thead><tbody><tr><td>Appearance of Urine</td><td>Cloudy urine</td><td>Urine</td><td></td></tr><tr><td>Odor of Urine</td><td>Urine smell ammoniacal</td><td>Urine</td><td></td></tr><tr><td>Clarity of Urine</td><td>Translucent</td><td>Urine</td><td></td></tr><tr><td>Color of Urine</td><td>Brown color</td><td>Urine</td><td></td></tr></tbody></table></div>"
                },
                "title": "Specimen information"
              }
            ],
            "title": "Laboratory Report"
          },
          {
            "text": {
              "status": "generated",
              "div": "<div xmlns=\"http://www.w3.org/1999/xhtml\"><h3>Annotation</h3><table class=\"hl7__eu__lab__report\"><tr><th>Conclusion and Recommendations based on this report and previous findings known to us</th></tr><tr><td>The patient shows significantly elevated creatinine, marked proteinuria, glucosuria, and ketonuria, with low urine specific gravity and brown, cloudy urine. These findings suggest impaired renal function, likely chronic kidney disease with possible nephrotic features and tubular dysfunction. No evidence of urinary tract infection is present. Blood glucose and HbA1c are not elevated, so diabetes is unlikely. Recommend urgent nephrology evaluation and further workup for underlying renal pathology.</td></tr></table></div>"
            },
            "code": {
              "coding": [
                {
                  "system": "http://loinc.org",
                  "code": "48767-8",
                  "display": "Annotation comment"
                }
              ]
            },
            "title": "Annotation comment"
          }
        ],
        "status": "final",
        "subject": {
          "reference": "urn:uuid:fba45c76-b2ab-47b8-a061-27a75d12ab49",
          "display": "Meaghan Neary"
        },
        "date": "2019-10-01T00:11:04Z",
        "title": "Laboratory Report",
        "confidentiality": "N"
      }
    },
    {
      "fullUrl": "urn:uuid:27bea744-77e0-47ff-9384-26ebc9dab1b1",
      "resource": {
        "resourceType": "DiagnosticReport",
        "id": "27bea744-77e0-47ff-9384-26ebc9dab1b1",
        "meta": {
          "profile": [
            "http://hl7.eu/fhir/laboratory/StructureDefinition/DiagnosticReport-eu-lab"
          ]
        },
        "identifier": [
          {
            "assigner": {
              "display": "HL7 Europe"
            },
            "system": "urn:oid:2.16.840.1.113883.2.51.999",
            "value": "e3967690-ff5a-4278-b69b-1a5284d2a25d"
          }
        ],
        "extension": [
          {
            "url": "http://hl7.org/fhir/5.0/StructureDefinition/extension-DiagnosticReport.composition",
            "valueReference": {
              "reference": "urn:uuid:71f0c94b-3803-422b-88c6-3dc24dec24e3"
            }
          }
        ],
        "category": [
          {
            "coding": [
              {
                "code": "26436-6",
                "system": "http://loinc.org",
                "display": "Laboratory studies (set)"
              }
            ]
          }
        ],
        "specimen": [
          {
            "reference": "urn:uuid:5db66b55-161c-4260-a40b-c53ec875be73"
          },
          {
            "reference": "urn:uuid:dc7f3842-1e89-461e-9f49-e3a52081a544"
          },
          {
            "reference": "urn:uuid:3305f602-3da7-4879-899a-1734bbf6967e"
          }
        ],
        "result": [
          {
            "reference": "urn:uuid:7a421f98-70b5-4d76-8fa4-b5a3e5651dfc"
          },
          {
            "reference": "urn:uuid:53b6cdab-dd3b-483e-a071-31aeabb83cd3"
          },
          {
            "reference": "urn:uuid:6ec564bd-fad1-4cf6-9dc2-1ad967ac9a65"
          },
          {
            "reference": "urn:uuid:0d0b58b6-b43a-4d48-8528-173e0e02496f"
          },
          {
            "reference": "urn:uuid:64d1027f-6e65-4060-a5d1-59aaceb1f9b5"
          },
          {
            "reference": "urn:uuid:c361af4d-66e7-43eb-bdaf-fe2940ea5428"
          },
          {
            "reference": "urn:uuid:9cc0e5c8-a4fc-4980-95ff-20989a783642"
          },
          {
            "reference": "urn:uuid:f9d317d1-4fe3-4413-a874-9e83ccc7b2c2"
          },
          {
            "reference": "urn:uuid:aa618a3a-293e-45bc-a78e-ffb82b7bab47"
          },
          {
            "reference": "urn:uuid:13c667f7-84aa-48f9-a8cd-acfc441a1bcc"
          },
          {
            "reference": "urn:uuid:f3d3272b-1ecd-47b0-a598-54fc911e444f"
          },
          {
            "reference": "urn:uuid:4f3680fd-06e6-4db6-be11-e4a4df0e57d7"
          },
          {
            "reference": "urn:uuid:263b3aca-b6e0-43a6-a0af-405c93977c0c"
          },
          {
            "reference": "urn:uuid:afb565d7-6bb9-4eb4-b13e-2cd4f141fbef"
          },
          {
            "reference": "urn:uuid:0bb3c54a-d3f7-4dec-9663-65f9e8359a0c"
          },
          {
            "reference": "urn:uuid:d9c45b2a-de0e-44ca-928c-3ec6221f2173"
          },
          {
            "reference": "urn:uuid:2a8986ed-840d-41ec-8ac9-9143c8451e39"
          },
          {
            "reference": "urn:uuid:63e0ab19-8aec-4a08-85cf-38ca7583f85b"
          },
          {
            "reference": "urn:uuid:81eed4ab-9a4a-40b3-962a-413c272199ef"
          },
          {
            "reference": "urn:uuid:4af11bf3-9cbd-451a-b8aa-c35c1c3ff185"
          },
          {
            "reference": "urn:uuid:0fdfd214-872a-45aa-a6fb-817fb9b35d7e"
          },
          {
            "reference": "urn:uuid:ba3604fd-e177-4fe2-ac7c-195e10a550aa"
          },
          {
            "reference": "urn:uuid:808ab7b9-bfcb-4924-846c-533fafefaa94"
          },
          {
            "reference": "urn:uuid:1e81f768-6d1f-4a4f-9b48-4b3891057271"
          },
          {
            "reference": "urn:uuid:7e3992ef-30c3-44c4-91c0-5e730f8e32ae"
          },
          {
            "reference": "urn:uuid:38d0b532-ac5e-4f8b-b6ef-7a8fa35cf161"
          },
          {
            "reference": "urn:uuid:1b1c382c-318d-40cf-b5df-16933b1b5935"
          },
          {
            "reference": "urn:uuid:841303c4-b8cb-45aa-8607-487c6fbde12a"
          },
          {
            "reference": "urn:uuid:f7e82a6f-5e59-4837-9ed4-aa0681f5b605"
          },
          {
            "reference": "urn:uuid:73ac6764-e270-4580-b910-255ce2c658a6"
          },
          {
            "reference": "urn:uuid:5555d0c5-886e-4f14-b59e-9c03df47deff"
          },
          {
            "reference": "urn:uuid:d3e6cb47-8d0a-4ff9-b859-e539bbd748e5"
          },
          {
            "reference": "urn:uuid:4995e5ee-f6fc-4817-b368-5980124a8d01"
          },
          {
            "reference": "urn:uuid:32bba603-1b14-4a12-8229-536f81f5d9b1"
          }
        ],
        "status": "registered",
        "code": {
          "coding": [
            {
              "code": "11502-2",
              "system": "http://loinc.org",
              "display": "Laboratory report"
            }
          ]
        },
        "subject": {
          "reference": "urn:uuid:fba45c76-b2ab-47b8-a061-27a75d12ab49",
          "display": "Meaghan Neary"
        }
      }
    },
    {
      "fullUrl": "urn:uuid:fba45c76-b2ab-47b8-a061-27a75d12ab49",
      "resource": {
        "resourceType": "Patient",
        "id": "fba45c76-b2ab-47b8-a061-27a75d12ab49",
        "meta": {
          "security": [
            {
              "system": "http://terminology.hl7.org/CodeSystem/v3-ActReason",
              "code": "HTEST"
            },
            {
              "system": "http://terminology.hl7.org/CodeSystem/v3-ActReason",
              "code": "TRAIN"
            }
          ],
          "tag": [
            {
              "system": "https://synderai.net/fhir/CodeSystem/tags",
              "code": "synthetic",
              "display": "SYNDERAI Synthetic data"
            }
          ],
          "profile": [
            "http://hl7.eu/fhir/base/StructureDefinition/patient-eu-core"
          ]
        },
        "identifier": [
          {
            "type": {
              "coding": [
                {
                  "code": "PT",
                  "system": "http://terminology.hl7.org/CodeSystem/v2-0203"
                }
              ]
            },
            "system": "http://ec.europa.eu/identifier/eci",
            "value": "1586-567257-8"
          },
          {
            "type": {
              "coding": [
                {
                  "code": "MR",
                  "system": "http://terminology.hl7.org/CodeSystem/v2-0203"
                }
              ]
            },
            "system": "http://local.setting.eu/identifier",
            "value": "443e6379-f231-b364-3ccb-644740a1aa2a"
          }
        ],
        "name": [
          {
            "family": "Neary"
          },
          {
            "given": [
              "Meaghan"
            ]
          },
          {
            "text": "Meaghan Neary"
          }
        ],
        "address": [
          {
            "line": [
              "64 Linskey Street"
            ],
            "use": "home",
            "type": "physical",
            "postalCode": "D02",
            "city": "Dublin",
            "country": "Ireland"
          }
        ],
        "telecom": [
          {
            "system": "phone",
            "value": "001-967-573-0911x465"
          }
        ],
        "extension": [
          {
            "url": "http://hl7.org/fhir/StructureDefinition/patient-nationality",
            "valueCodeableConcept": {
              "coding": [
                {
                  "code": "IE",
                  "system": "http://hl7.org/fhir/ValueSet/country"
                }
              ]
            }
          }
        ],
        "text": {
          "status": "generated",
          "div": "<div xmlns=\"http://www.w3.org/1999/xhtml\"><table class=\"hl7__ips\"><tr><td>Meaghan Neary</td><td>female</td><td>19-Dec-1960</td></tr></table></div>"
        },
        "gender": "female",
        "birthDate": "1960-12-19"
      }
    },
    {
      "fullUrl": "urn:uuid:c55294a0-7691-412b-9c46-8095c9e3f3f4",
      "resource": {
        "resourceType": "ServiceRequest",
        "id": "c55294a0-7691-412b-9c46-8095c9e3f3f4",
        "meta": {
          "profile": [
            "http://hl7.eu/fhir/laboratory/StructureDefinition/ServiceRequest-eu-lab"
          ]
        },
        "identifier": [
          {
            "system": "http://example.org",
            "value": "b69c39ee-ba69-4663-81ba-70779adb2930"
          }
        ],
        "specimen": [
          {
            "reference": "urn:uuid:5db66b55-161c-4260-a40b-c53ec875be73"
          },
          {
            "reference": "urn:uuid:dc7f3842-1e89-461e-9f49-e3a52081a544"
          },
          {
            "reference": "urn:uuid:3305f602-3da7-4879-899a-1734bbf6967e"
          }
        ],
        "reasonCode": [
          {
            "coding": [
              {
                "code": "55822004",
                "system": "http://snomed.info/sct",
                "display": "Hyperlipidemia"
              }
            ]
          },
          {
            "coding": [
              {
                "code": "433144002",
                "system": "http://snomed.info/sct",
                "display": "Chronic kidney disease stage 3"
              }
            ]
          },
          {
            "coding": [
              {
                "code": "157141000119108",
                "system": "http://snomed.info/sct",
                "display": "Proteinuria due to type 2 diabetes mellitus"
              }
            ]
          },
          {
            "coding": [
              {
                "code": "431856006",
                "system": "http://snomed.info/sct",
                "display": "Chronic kidney disease stage 2"
              }
            ]
          },
          {
            "coding": [
              {
                "code": "90781000119102",
                "system": "http://snomed.info/sct",
                "display": "Microalbuminuria due to type 2 diabetes mellitus"
              }
            ]
          },
          {
            "coding": [
              {
                "code": "127013003",
                "system": "http://snomed.info/sct",
                "display": "Disorder of kidney due to diabetes mellitus"
              }
            ]
          },
          {
            "coding": [
              {
                "code": "431855005",
                "system": "http://snomed.info/sct",
                "display": "Chronic kidney disease stage 1"
              }
            ]
          },
          {
            "coding": [
              {
                "code": "237602007",
                "system": "http://snomed.info/sct",
                "display": "Metabolic syndrome X"
              }
            ]
          },
          {
            "coding": [
              {
                "code": "271737000",
                "system": "http://snomed.info/sct",
                "display": "Anemia"
              }
            ]
          },
          {
            "coding": [
              {
                "code": "15777000",
                "system": "http://snomed.info/sct",
                "display": "Prediabetes"
              }
            ]
          },
          {
            "coding": [
              {
                "code": "59621000",
                "system": "http://snomed.info/sct",
                "display": "Essential hypertension"
              }
            ]
          }
        ],
        "status": "active",
        "intent": "order",
        "code": {
          "coding": [
            {
              "code": "108252007",
              "system": "http://snomed.info/sct",
              "display": "Laboratory procedure"
            }
          ]
        },
        "subject": {
          "reference": "urn:uuid:fba45c76-b2ab-47b8-a061-27a75d12ab49",
          "display": "Meaghan Neary"
        },
        "requester": {
          "reference": "urn:uuid:6f6979e4-295f-452e-8414-eef62e1ae08a"
        }
      }
    },
    {
      "fullUrl": "urn:uuid:6f6979e4-295f-452e-8414-eef62e1ae08a",
      "resource": {
        "resourceType": "PractitionerRole",
        "id": "6f6979e4-295f-452e-8414-eef62e1ae08a",
        "meta": {
          "profile": [
            "http://hl7.eu/fhir/base/StructureDefinition/practitionerRole-eu"
          ]
        },
        "text": {
          "status": "generated",
          "div": "<div xmlns=\"http://www.w3.org/1999/xhtml\">Provider Role Id: 6f6979e4-295f-452e-8414-eef62e1ae08a</div>"
        },
        "organization": {
          "reference": "urn:uuid:15d367ef-81a7-4cbe-9247-1527577d3b79"
        }
      }
    },
    {
      "fullUrl": "urn:uuid:15d367ef-81a7-4cbe-9247-1527577d3b79",
      "resource": {
        "resourceType": "Organization",
        "id": "15d367ef-81a7-4cbe-9247-1527577d3b79",
        "meta": {
          "profile": [
            "http://hl7.eu/fhir/base/StructureDefinition/organization-eu"
          ]
        },
        "identifier": [
          {
            "assigner": {
              "display": "HL7 Europe"
            },
            "system": "urn:oid:2.16.840.1.113883.2.51.999",
            "value": "c4e186a3-7d16-420e-9eec-98eff40f4ff4"
          }
        ],
        "address": [
          {
            "line": [
              "Parnell Square West nan"
            ],
            "city": "Dublin",
            "postalCode": "D01",
            "country": "Ireland"
          }
        ],
        "text": {
          "status": "generated",
          "div": "<div xmlns=\"http://www.w3.org/1999/xhtml\">Provider Organization: Rotunda Hospital</div>"
        },
        "name": "Rotunda Hospital"
      }
    },
    {
      "fullUrl": "urn:uuid:5db66b55-161c-4260-a40b-c53ec875be73",
      "resource": {
        "resourceType": "Specimen",
        "id": "5db66b55-161c-4260-a40b-c53ec875be73",
        "meta": {
          "profile": [
            "http://hl7.eu/fhir/laboratory/StructureDefinition/Specimen-eu-lab"
          ]
        },
        "collection": {
          "collectedDateTime": "2019-09-30"
        },
        "text": {
          "status": "generated",
          "div": "<div xmlns=\"http://www.w3.org/1999/xhtml\"><table class=\"hl7__eu__lab__report\"><tr><th>Specimen</th><th>Collection Date</th></tr><tr><td>Acellular blood (serum or plasma) specimen</td><td><span class=\"nb\">30-Sep-2019</span></td></tr></table></div>"
        },
        "type": {
          "coding": [
            {
              "code": "122592007",
              "system": "http://snomed.info/sct",
              "display": "Acellular blood (serum or plasma) specimen"
            }
          ]
        }
      }
    },
    {
      "fullUrl": "urn:uuid:dc7f3842-1e89-461e-9f49-e3a52081a544",
      "resource": {
        "resourceType": "Specimen",
        "id": "dc7f3842-1e89-461e-9f49-e3a52081a544",
        "meta": {
          "profile": [
            "http://hl7.eu/fhir/laboratory/StructureDefinition/Specimen-eu-lab"
          ]
        },
        "collection": {
          "collectedDateTime": "2019-09-30"
        },
        "text": {
          "status": "generated",
          "div": "<div xmlns=\"http://www.w3.org/1999/xhtml\"><table class=\"hl7__eu__lab__report\"><tr><th>Specimen</th><th>Collection Date</th></tr><tr><td>Urine specimen</td><td><span class=\"nb\">30-Sep-2019</span></td></tr></table></div>"
        },
        "type": {
          "coding": [
            {
              "code": "122575003",
              "system": "http://snomed.info/sct",
              "display": "Urine specimen"
            }
          ]
        }
      }
    },
    {
      "fullUrl": "urn:uuid:3305f602-3da7-4879-899a-1734bbf6967e",
      "resource": {
        "resourceType": "Specimen",
        "id": "3305f602-3da7-4879-899a-1734bbf6967e",
        "meta": {
          "profile": [
            "http://hl7.eu/fhir/laboratory/StructureDefinition/Specimen-eu-lab"
          ]
        },
        "collection": {
          "collectedDateTime": "2019-09-30"
        },
        "text": {
          "status": "generated",
          "div": "<div xmlns=\"http://www.w3.org/1999/xhtml\"><table class=\"hl7__eu__lab__report\"><tr><th>Specimen</th><th>Collection Date</th></tr><tr><td>Whole blood specimen (specimen)</td><td><span class=\"nb\">30-Sep-2019</span></td></tr></table></div>"
        },
        "type": {
          "coding": [
            {
              "code": "258580003",
              "system": "http://snomed.info/sct",
              "display": "Whole blood specimen (specimen)"
            }
          ]
        }
      }
    },
    {
      "fullUrl": "urn:uuid:7a421f98-70b5-4d76-8fa4-b5a3e5651dfc",
      "resource": {
        "resourceType": "Observation",
        "id": "7a421f98-70b5-4d76-8fa4-b5a3e5651dfc",
        "meta": {
          "profile": [
            "http://hl7.eu/fhir/laboratory/StructureDefinition/Observation-resultslab-eu-lab"
          ]
        },
        "performer": [
          {
            "display": "The Central European Lab"
          }
        ],
        "category": [
          {
            "coding": [
              {
                "system": "http://terminology.hl7.org/CodeSystem/observation-category",
                "code": "laboratory"
              }
            ]
          }
        ],
        "code": {
          "coding": [
            {
              "code": "2345-7",
              "system": "http://loinc.org",
              "display": "Glucose [Mass/volume] in Serum or Plasma"
            }
          ],
          "text": "Glucose [Mass/volume] in Serum or Plasma"
        },
        "valueQuantity": {
          "system": "http://unitsofmeasure.org",
          "value": 96.5,
          "unit": "mg/dL",
          "code": "mg/dL"
        },
        "referenceRange": [
          {
            "low": {
              "value": 70,
              "code": "mg/dL",
              "system": "http://unitsofmeasure.org"
            }
          },
          {
            "high": {
              "value": 99,
              "code": "mg/dL",
              "system": "http://unitsofmeasure.org"
            }
          }
        ],
        "text": {
          "status": "generated",
          "div": "<div xmlns=\"http://www.w3.org/1999/xhtml\"><table class=\"hl7__eu__lab__report\"><tr><th>Test</th><th>01-Oct-2019</th><th>Reference&#xA0;Range</th><th>Unit</th></tr><tr><td>Glucose [Mass/volume] in Serum or Plasma</td><td>96.5</td><td>70 - 99</td><td></td><td>mg/dL</td></tr></table></div>"
        },
        "status": "final",
        "subject": {
          "reference": "urn:uuid:fba45c76-b2ab-47b8-a061-27a75d12ab49",
          "display": "Meaghan Neary"
        },
        "effectiveDateTime": "2019-09-30T22:11:04Z",
        "specimen": {
          "reference": "urn:uuid:5db66b55-161c-4260-a40b-c53ec875be73"
        }
      }
    },
    {
      "fullUrl": "urn:uuid:53b6cdab-dd3b-483e-a071-31aeabb83cd3",
      "resource": {
        "resourceType": "Observation",
        "id": "53b6cdab-dd3b-483e-a071-31aeabb83cd3",
        "meta": {
          "profile": [
            "http://hl7.eu/fhir/laboratory/StructureDefinition/Observation-resultslab-eu-lab"
          ]
        },
        "performer": [
          {
            "display": "The Central European Lab"
          }
        ],
        "category": [
          {
            "coding": [
              {
                "system": "http://terminology.hl7.org/CodeSystem/observation-category",
                "code": "laboratory"
              }
            ]
          }
        ],
        "code": {
          "coding": [
            {
              "code": "3094-0",
              "system": "http://loinc.org",
              "display": "Urea nitrogen [Mass/volume] in Serum or Plasma"
            }
          ],
          "text": "Urea nitrogen [Mass/volume] in Serum or Plasma"
        },
        "valueQuantity": {
          "system": "http://unitsofmeasure.org",
          "value": 14,
          "unit": "mg/dL",
          "code": "mg/dL"
        },
        "referenceRange": [
          {
            "low": {
              "value": 7,
              "code": "mg/dL",
              "system": "http://unitsofmeasure.org"
            }
          },
          {
            "high": {
              "value": 50,
              "code": "mg/dL",
              "system": "http://unitsofmeasure.org"
            }
          }
        ],
        "text": {
          "status": "generated",
          "div": "<div xmlns=\"http://www.w3.org/1999/xhtml\"><table class=\"hl7__eu__lab__report\"><tr><th>Test</th><th>01-Oct-2019</th><th>Reference&#xA0;Range</th><th>Unit</th></tr><tr><td>Urea nitrogen [Mass/volume] in Serum or Plasma</td><td>14.0</td><td>7 - 50</td><td></td><td>mg/dL</td></tr></table></div>"
        },
        "status": "final",
        "subject": {
          "reference": "urn:uuid:fba45c76-b2ab-47b8-a061-27a75d12ab49",
          "display": "Meaghan Neary"
        },
        "effectiveDateTime": "2019-09-30T22:11:04Z",
        "specimen": {
          "reference": "urn:uuid:5db66b55-161c-4260-a40b-c53ec875be73"
        }
      }
    },
    {
      "fullUrl": "urn:uuid:6ec564bd-fad1-4cf6-9dc2-1ad967ac9a65",
      "resource": {
        "resourceType": "Observation",
        "id": "6ec564bd-fad1-4cf6-9dc2-1ad967ac9a65",
        "meta": {
          "profile": [
            "http://hl7.eu/fhir/laboratory/StructureDefinition/Observation-resultslab-eu-lab"
          ]
        },
        "performer": [
          {
            "display": "The Central European Lab"
          }
        ],
        "category": [
          {
            "coding": [
              {
                "system": "http://terminology.hl7.org/CodeSystem/observation-category",
                "code": "laboratory"
              }
            ]
          }
        ],
        "code": {
          "coding": [
            {
              "code": "2160-0",
              "system": "http://loinc.org",
              "display": "Creatinine [Mass/volume] in Serum or Plasma"
            }
          ],
          "text": "Creatinine [Mass/volume] in Serum or Plasma"
        },
        "valueQuantity": {
          "system": "http://unitsofmeasure.org",
          "value": 2,
          "unit": "mg/dL",
          "code": "mg/dL"
        },
        "referenceRange": [
          {
            "low": {
              "value": 0.6,
              "code": "mg/dL",
              "system": "http://unitsofmeasure.org"
            }
          },
          {
            "high": {
              "value": 1.1,
              "code": "mg/dL",
              "system": "http://unitsofmeasure.org"
            }
          }
        ],
        "interpretation": [
          {
            "coding": [
              {
                "code": "H",
                "system": "http://terminology.hl7.org/CodeSystem/v3-ObservationInterpretation",
                "display": "High"
              }
            ]
          }
        ],
        "text": {
          "status": "generated",
          "div": "<div xmlns=\"http://www.w3.org/1999/xhtml\"><table class=\"hl7__eu__lab__report\"><tr><th>Test</th><th>01-Oct-2019</th><th>Reference&#xA0;Range</th><th>Unit</th></tr><tr><td>Creatinine [Mass/volume] in Serum or Plasma</td><td>2.0</td><td>0.6 - 1.1</td><td>H</td><td>mg/dL</td></tr></table></div>"
        },
        "status": "final",
        "subject": {
          "reference": "urn:uuid:fba45c76-b2ab-47b8-a061-27a75d12ab49",
          "display": "Meaghan Neary"
        },
        "effectiveDateTime": "2019-09-30T22:11:04Z",
        "specimen": {
          "reference": "urn:uuid:5db66b55-161c-4260-a40b-c53ec875be73"
        }
      }
    },
    {
      "fullUrl": "urn:uuid:0d0b58b6-b43a-4d48-8528-173e0e02496f",
      "resource": {
        "resourceType": "Observation",
        "id": "0d0b58b6-b43a-4d48-8528-173e0e02496f",
        "meta": {
          "profile": [
            "http://hl7.eu/fhir/laboratory/StructureDefinition/Observation-resultslab-eu-lab"
          ]
        },
        "performer": [
          {
            "display": "The Central European Lab"
          }
        ],
        "category": [
          {
            "coding": [
              {
                "system": "http://terminology.hl7.org/CodeSystem/observation-category",
                "code": "laboratory"
              }
            ]
          }
        ],
        "code": {
          "coding": [
            {
              "code": "17861-6",
              "system": "http://loinc.org",
              "display": "Calcium [Mass/volume] in Serum or Plasma"
            }
          ],
          "text": "Calcium [Mass/volume] in Serum or Plasma"
        },
        "valueQuantity": {
          "system": "http://unitsofmeasure.org",
          "value": 9.2,
          "unit": "mg/dL",
          "code": "mg/dL"
        },
        "referenceRange": [
          {
            "low": {
              "value": 8.6,
              "code": "mg/dL",
              "system": "http://unitsofmeasure.org"
            }
          },
          {
            "high": {
              "value": 10.4,
              "code": "mg/dL",
              "system": "http://unitsofmeasure.org"
            }
          }
        ],
        "text": {
          "status": "generated",
          "div": "<div xmlns=\"http://www.w3.org/1999/xhtml\"><table class=\"hl7__eu__lab__report\"><tr><th>Test</th><th>01-Oct-2019</th><th>Reference&#xA0;Range</th><th>Unit</th></tr><tr><td>Calcium [Mass/volume] in Serum or Plasma</td><td>9.2</td><td>8.6 - 10.4</td><td></td><td>mg/dL</td></tr></table></div>"
        },
        "status": "final",
        "subject": {
          "reference": "urn:uuid:fba45c76-b2ab-47b8-a061-27a75d12ab49",
          "display": "Meaghan Neary"
        },
        "effectiveDateTime": "2019-09-30T22:11:04Z",
        "specimen": {
          "reference": "urn:uuid:5db66b55-161c-4260-a40b-c53ec875be73"
        }
      }
    },
    {
      "fullUrl": "urn:uuid:64d1027f-6e65-4060-a5d1-59aaceb1f9b5",
      "resource": {
        "resourceType": "Observation",
        "id": "64d1027f-6e65-4060-a5d1-59aaceb1f9b5",
        "meta": {
          "profile": [
            "http://hl7.eu/fhir/laboratory/StructureDefinition/Observation-resultslab-eu-lab"
          ]
        },
        "performer": [
          {
            "display": "The Central European Lab"
          }
        ],
        "category": [
          {
            "coding": [
              {
                "system": "http://terminology.hl7.org/CodeSystem/observation-category",
                "code": "laboratory"
              }
            ]
          }
        ],
        "code": {
          "coding": [
            {
              "code": "2951-2",
              "system": "http://loinc.org",
              "display": "Sodium [Moles/volume] in Serum or Plasma"
            }
          ],
          "text": "Sodium [Moles/volume] in Serum or Plasma"
        },
        "valueQuantity": {
          "system": "http://unitsofmeasure.org",
          "value": 141.3,
          "unit": "mmol/L",
          "code": "mmol/L"
        },
        "referenceRange": [
          {
            "low": {
              "value": 135,
              "code": "mmol/L",
              "system": "http://unitsofmeasure.org"
            }
          },
          {
            "high": {
              "value": 145,
              "code": "mmol/L",
              "system": "http://unitsofmeasure.org"
            }
          }
        ],
        "text": {
          "status": "generated",
          "div": "<div xmlns=\"http://www.w3.org/1999/xhtml\"><table class=\"hl7__eu__lab__report\"><tr><th>Test</th><th>01-Oct-2019</th><th>Reference&#xA0;Range</th><th>Unit</th></tr><tr><td>Sodium [Moles/volume] in Serum or Plasma</td><td>141.3</td><td>135 - 145</td><td></td><td>mmol/L</td></tr></table></div>"
        },
        "status": "final",
        "subject": {
          "reference": "urn:uuid:fba45c76-b2ab-47b8-a061-27a75d12ab49",
          "display": "Meaghan Neary"
        },
        "effectiveDateTime": "2019-09-30T22:11:04Z",
        "specimen": {
          "reference": "urn:uuid:5db66b55-161c-4260-a40b-c53ec875be73"
        }
      }
    },
    {
      "fullUrl": "urn:uuid:c361af4d-66e7-43eb-bdaf-fe2940ea5428",
      "resource": {
        "resourceType": "Observation",
        "id": "c361af4d-66e7-43eb-bdaf-fe2940ea5428",
        "meta": {
          "profile": [
            "http://hl7.eu/fhir/laboratory/StructureDefinition/Observation-resultslab-eu-lab"
          ]
        },
        "performer": [
          {
            "display": "The Central European Lab"
          }
        ],
        "category": [
          {
            "coding": [
              {
                "system": "http://terminology.hl7.org/CodeSystem/observation-category",
                "code": "laboratory"
              }
            ]
          }
        ],
        "code": {
          "coding": [
            {
              "code": "2823-3",
              "system": "http://loinc.org",
              "display": "Potassium [Moles/volume] in Serum or Plasma"
            }
          ],
          "text": "Potassium [Moles/volume] in Serum or Plasma"
        },
        "valueQuantity": {
          "system": "http://unitsofmeasure.org",
          "value": 4.5,
          "unit": "mmol/L",
          "code": "mmol/L"
        },
        "referenceRange": [
          {
            "low": {
              "value": 3.5,
              "code": "mmol/L",
              "system": "http://unitsofmeasure.org"
            }
          },
          {
            "high": {
              "value": 5.1,
              "code": "mmol/L",
              "system": "http://unitsofmeasure.org"
            }
          }
        ],
        "text": {
          "status": "generated",
          "div": "<div xmlns=\"http://www.w3.org/1999/xhtml\"><table class=\"hl7__eu__lab__report\"><tr><th>Test</th><th>01-Oct-2019</th><th>Reference&#xA0;Range</th><th>Unit</th></tr><tr><td>Potassium [Moles/volume] in Serum or Plasma</td><td>4.5</td><td>3.5 - 5.1</td><td></td><td>mmol/L</td></tr></table></div>"
        },
        "status": "final",
        "subject": {
          "reference": "urn:uuid:fba45c76-b2ab-47b8-a061-27a75d12ab49",
          "display": "Meaghan Neary"
        },
        "effectiveDateTime": "2019-09-30T22:11:04Z",
        "specimen": {
          "reference": "urn:uuid:5db66b55-161c-4260-a40b-c53ec875be73"
        }
      }
    },
    {
      "fullUrl": "urn:uuid:9cc0e5c8-a4fc-4980-95ff-20989a783642",
      "resource": {
        "resourceType": "Observation",
        "id": "9cc0e5c8-a4fc-4980-95ff-20989a783642",
        "meta": {
          "profile": [
            "http://hl7.eu/fhir/laboratory/StructureDefinition/Observation-resultslab-eu-lab"
          ]
        },
        "performer": [
          {
            "display": "The Central European Lab"
          }
        ],
        "category": [
          {
            "coding": [
              {
                "system": "http://terminology.hl7.org/CodeSystem/observation-category",
                "code": "laboratory"
              }
            ]
          }
        ],
        "code": {
          "coding": [
            {
              "code": "2075-0",
              "system": "http://loinc.org",
              "display": "Chloride [Moles/volume] in Serum or Plasma"
            }
          ],
          "text": "Chloride [Moles/volume] in Serum or Plasma"
        },
        "valueQuantity": {
          "system": "http://unitsofmeasure.org",
          "value": 107.8,
          "unit": "mmol/L",
          "code": "mmol/L"
        },
        "referenceRange": [
          {
            "low": {
              "value": 98,
              "code": "mmol/L",
              "system": "http://unitsofmeasure.org"
            }
          },
          {
            "high": {
              "value": 108,
              "code": "mmol/L",
              "system": "http://unitsofmeasure.org"
            }
          }
        ],
        "text": {
          "status": "generated",
          "div": "<div xmlns=\"http://www.w3.org/1999/xhtml\"><table class=\"hl7__eu__lab__report\"><tr><th>Test</th><th>01-Oct-2019</th><th>Reference&#xA0;Range</th><th>Unit</th></tr><tr><td>Chloride [Moles/volume] in Serum or Plasma</td><td>107.8</td><td>98 - 108</td><td></td><td>mmol/L</td></tr></table></div>"
        },
        "status": "final",
        "subject": {
          "reference": "urn:uuid:fba45c76-b2ab-47b8-a061-27a75d12ab49",
          "display": "Meaghan Neary"
        },
        "effectiveDateTime": "2019-09-30T22:11:04Z",
        "specimen": {
          "reference": "urn:uuid:5db66b55-161c-4260-a40b-c53ec875be73"
        }
      }
    },
    {
      "fullUrl": "urn:uuid:f9d317d1-4fe3-4413-a874-9e83ccc7b2c2",
      "resource": {
        "resourceType": "Observation",
        "id": "f9d317d1-4fe3-4413-a874-9e83ccc7b2c2",
        "meta": {
          "profile": [
            "http://hl7.eu/fhir/laboratory/StructureDefinition/Observation-resultslab-eu-lab"
          ]
        },
        "performer": [
          {
            "display": "The Central European Lab"
          }
        ],
        "category": [
          {
            "coding": [
              {
                "system": "http://terminology.hl7.org/CodeSystem/observation-category",
                "code": "laboratory"
              }
            ]
          }
        ],
        "code": {
          "coding": [
            {
              "code": "2028-9",
              "system": "http://loinc.org",
              "display": "Carbon dioxide, total [Moles/volume] in Serum or Plasma"
            }
          ],
          "text": "Carbon dioxide, total [Moles/volume] in Serum or Plasma"
        },
        "valueQuantity": {
          "system": "http://unitsofmeasure.org",
          "value": 28.6,
          "unit": "mmol/L",
          "code": "mmol/L"
        },
        "referenceRange": [
          {
            "low": {
              "value": 22,
              "code": "mmol/L",
              "system": "http://unitsofmeasure.org"
            }
          },
          {
            "high": {
              "value": 32,
              "code": "mmol/L",
              "system": "http://unitsofmeasure.org"
            }
          }
        ],
        "text": {
          "status": "generated",
          "div": "<div xmlns=\"http://www.w3.org/1999/xhtml\"><table class=\"hl7__eu__lab__report\"><tr><th>Test</th><th>01-Oct-2019</th><th>Reference&#xA0;Range</th><th>Unit</th></tr><tr><td>Carbon dioxide, total [Moles/volume] in Serum or Plasma</td><td>28.6</td><td>22 - 32</td><td></td><td>mmol/L</td></tr></table></div>"
        },
        "status": "final",
        "subject": {
          "reference": "urn:uuid:fba45c76-b2ab-47b8-a061-27a75d12ab49",
          "display": "Meaghan Neary"
        },
        "effectiveDateTime": "2019-09-30T22:11:04Z",
        "specimen": {
          "reference": "urn:uuid:5db66b55-161c-4260-a40b-c53ec875be73"
        }
      }
    },
    {
      "fullUrl": "urn:uuid:aa618a3a-293e-45bc-a78e-ffb82b7bab47",
      "resource": {
        "resourceType": "Observation",
        "id": "aa618a3a-293e-45bc-a78e-ffb82b7bab47",
        "meta": {
          "profile": [
            "http://hl7.eu/fhir/laboratory/StructureDefinition/Observation-resultslab-eu-lab"
          ]
        },
        "performer": [
          {
            "display": "The Central European Lab"
          }
        ],
        "category": [
          {
            "coding": [
              {
                "system": "http://terminology.hl7.org/CodeSystem/observation-category",
                "code": "laboratory"
              }
            ]
          }
        ],
        "code": {
          "coding": [
            {
              "code": "5767-9",
              "system": "http://loinc.org",
              "display": "Appearance of Urine"
            }
          ],
          "text": "Appearance of Urine"
        },
        "text": {
          "status": "generated",
          "div": "<div xmlns=\"http://www.w3.org/1999/xhtml\"><table class=\"hl7__eu__lab__report\"><tr><th>Test</th><th>01-Oct-2019</th><th>Reference&#xA0;Range</th><th>Unit</th></tr><tr><td>Appearance of Urine</td></tr></table></div>"
        },
        "status": "final",
        "subject": {
          "reference": "urn:uuid:fba45c76-b2ab-47b8-a061-27a75d12ab49",
          "display": "Meaghan Neary"
        },
        "effectiveDateTime": "2019-09-30T22:11:04Z",
        "specimen": {
          "reference": "urn:uuid:dc7f3842-1e89-461e-9f49-e3a52081a544"
        }
      }
    },
    {
      "fullUrl": "urn:uuid:13c667f7-84aa-48f9-a8cd-acfc441a1bcc",
      "resource": {
        "resourceType": "Observation",
        "id": "13c667f7-84aa-48f9-a8cd-acfc441a1bcc",
        "meta": {
          "profile": [
            "http://hl7.eu/fhir/laboratory/StructureDefinition/Observation-resultslab-eu-lab"
          ]
        },
        "performer": [
          {
            "display": "The Central European Lab"
          }
        ],
        "category": [
          {
            "coding": [
              {
                "system": "http://terminology.hl7.org/CodeSystem/observation-category",
                "code": "laboratory"
              }
            ]
          }
        ],
        "code": {
          "coding": [
            {
              "code": "34533-0",
              "system": "http://loinc.org",
              "display": "Odor of Urine"
            }
          ],
          "text": "Odor of Urine"
        },
        "text": {
          "status": "generated",
          "div": "<div xmlns=\"http://www.w3.org/1999/xhtml\"><table class=\"hl7__eu__lab__report\"><tr><th>Test</th><th>01-Oct-2019</th><th>Reference&#xA0;Range</th><th>Unit</th></tr><tr><td>Odor of Urine</td></tr></table></div>"
        },
        "status": "final",
        "subject": {
          "reference": "urn:uuid:fba45c76-b2ab-47b8-a061-27a75d12ab49",
          "display": "Meaghan Neary"
        },
        "effectiveDateTime": "2019-09-30T22:11:04Z",
        "specimen": {
          "reference": "urn:uuid:dc7f3842-1e89-461e-9f49-e3a52081a544"
        }
      }
    },
    {
      "fullUrl": "urn:uuid:f3d3272b-1ecd-47b0-a598-54fc911e444f",
      "resource": {
        "resourceType": "Observation",
        "id": "f3d3272b-1ecd-47b0-a598-54fc911e444f",
        "meta": {
          "profile": [
            "http://hl7.eu/fhir/laboratory/StructureDefinition/Observation-resultslab-eu-lab"
          ]
        },
        "performer": [
          {
            "display": "The Central European Lab"
          }
        ],
        "category": [
          {
            "coding": [
              {
                "system": "http://terminology.hl7.org/CodeSystem/observation-category",
                "code": "laboratory"
              }
            ]
          }
        ],
        "code": {
          "coding": [
            {
              "code": "32167-9",
              "system": "http://loinc.org",
              "display": "Clarity of Urine"
            }
          ],
          "text": "Clarity of Urine"
        },
        "text": {
          "status": "generated",
          "div": "<div xmlns=\"http://www.w3.org/1999/xhtml\"><table class=\"hl7__eu__lab__report\"><tr><th>Test</th><th>01-Oct-2019</th><th>Reference&#xA0;Range</th><th>Unit</th></tr><tr><td>Clarity of Urine</td></tr></table></div>"
        },
        "status": "final",
        "subject": {
          "reference": "urn:uuid:fba45c76-b2ab-47b8-a061-27a75d12ab49",
          "display": "Meaghan Neary"
        },
        "effectiveDateTime": "2019-09-30T22:11:04Z",
        "specimen": {
          "reference": "urn:uuid:dc7f3842-1e89-461e-9f49-e3a52081a544"
        }
      }
    },
    {
      "fullUrl": "urn:uuid:4f3680fd-06e6-4db6-be11-e4a4df0e57d7",
      "resource": {
        "resourceType": "Observation",
        "id": "4f3680fd-06e6-4db6-be11-e4a4df0e57d7",
        "meta": {
          "profile": [
            "http://hl7.eu/fhir/laboratory/StructureDefinition/Observation-resultslab-eu-lab"
          ]
        },
        "performer": [
          {
            "display": "The Central European Lab"
          }
        ],
        "category": [
          {
            "coding": [
              {
                "system": "http://terminology.hl7.org/CodeSystem/observation-category",
                "code": "laboratory"
              }
            ]
          }
        ],
        "code": {
          "coding": [
            {
              "code": "5778-6",
              "system": "http://loinc.org",
              "display": "Color of Urine"
            }
          ],
          "text": "Color of Urine"
        },
        "text": {
          "status": "generated",
          "div": "<div xmlns=\"http://www.w3.org/1999/xhtml\"><table class=\"hl7__eu__lab__report\"><tr><th>Test</th><th>01-Oct-2019</th><th>Reference&#xA0;Range</th><th>Unit</th></tr><tr><td>Color of Urine</td></tr></table></div>"
        },
        "status": "final",
        "subject": {
          "reference": "urn:uuid:fba45c76-b2ab-47b8-a061-27a75d12ab49",
          "display": "Meaghan Neary"
        },
        "effectiveDateTime": "2019-09-30T22:11:04Z",
        "specimen": {
          "reference": "urn:uuid:dc7f3842-1e89-461e-9f49-e3a52081a544"
        }
      }
    },
    {
      "fullUrl": "urn:uuid:263b3aca-b6e0-43a6-a0af-405c93977c0c",
      "resource": {
        "resourceType": "Observation",
        "id": "263b3aca-b6e0-43a6-a0af-405c93977c0c",
        "meta": {
          "profile": [
            "http://hl7.eu/fhir/laboratory/StructureDefinition/Observation-resultslab-eu-lab"
          ]
        },
        "performer": [
          {
            "display": "The Central European Lab"
          }
        ],
        "category": [
          {
            "coding": [
              {
                "system": "http://terminology.hl7.org/CodeSystem/observation-category",
                "code": "laboratory"
              }
            ]
          }
        ],
        "code": {
          "coding": [
            {
              "code": "5792-7",
              "system": "http://loinc.org",
              "display": "Glucose [Mass/volume] in Urine by Test strip"
            }
          ],
          "text": "Glucose [Mass/volume] in Urine by Test strip"
        },
        "valueQuantity": {
          "system": "http://unitsofmeasure.org",
          "value": 1.1,
          "unit": "mg/dL",
          "code": "mg/dL"
        },
        "referenceRange": [
          {
            "low": {
              "value": 0.8,
              "code": "mg/dL",
              "system": "http://unitsofmeasure.org"
            }
          },
          {
            "high": {
              "value": 0,
              "code": "mg/dL",
              "system": "http://unitsofmeasure.org"
            }
          }
        ],
        "interpretation": [
          {
            "coding": [
              {
                "code": "H",
                "system": "http://terminology.hl7.org/CodeSystem/v3-ObservationInterpretation",
                "display": "High"
              }
            ]
          }
        ],
        "text": {
          "status": "generated",
          "div": "<div xmlns=\"http://www.w3.org/1999/xhtml\"><table class=\"hl7__eu__lab__report\"><tr><th>Test</th><th>01-Oct-2019</th><th>Reference&#xA0;Range</th><th>Unit</th></tr><tr><td>Glucose [Mass/volume] in Urine by Test strip</td><td>1.1</td><td>0.8 - 0</td><td>H</td><td>mg/dL</td></tr></table></div>"
        },
        "status": "final",
        "subject": {
          "reference": "urn:uuid:fba45c76-b2ab-47b8-a061-27a75d12ab49",
          "display": "Meaghan Neary"
        },
        "effectiveDateTime": "2019-09-30T22:11:04Z",
        "specimen": {
          "reference": "urn:uuid:dc7f3842-1e89-461e-9f49-e3a52081a544"
        }
      }
    },
    {
      "fullUrl": "urn:uuid:afb565d7-6bb9-4eb4-b13e-2cd4f141fbef",
      "resource": {
        "resourceType": "Observation",
        "id": "afb565d7-6bb9-4eb4-b13e-2cd4f141fbef",
        "meta": {
          "profile": [
            "http://hl7.eu/fhir/laboratory/StructureDefinition/Observation-resultslab-eu-lab"
          ]
        },
        "performer": [
          {
            "display": "The Central European Lab"
          }
        ],
        "category": [
          {
            "coding": [
              {
                "system": "http://terminology.hl7.org/CodeSystem/observation-category",
                "code": "laboratory"
              }
            ]
          }
        ],
        "code": {
          "coding": [
            {
              "code": "25428-4",
              "system": "http://loinc.org",
              "display": "Glucose [Presence] in Urine by Test strip"
            }
          ],
          "text": "Glucose [Presence] in Urine by Test strip"
        },
        "text": {
          "status": "generated",
          "div": "<div xmlns=\"http://www.w3.org/1999/xhtml\"><table class=\"hl7__eu__lab__report\"><tr><th>Test</th><th>01-Oct-2019</th><th>Reference&#xA0;Range</th><th>Unit</th></tr><tr><td>Glucose [Presence] in Urine by Test strip</td></tr></table></div>"
        },
        "status": "final",
        "subject": {
          "reference": "urn:uuid:fba45c76-b2ab-47b8-a061-27a75d12ab49",
          "display": "Meaghan Neary"
        },
        "effectiveDateTime": "2019-09-30T22:11:04Z",
        "specimen": {
          "reference": "urn:uuid:dc7f3842-1e89-461e-9f49-e3a52081a544"
        }
      }
    },
    {
      "fullUrl": "urn:uuid:0bb3c54a-d3f7-4dec-9663-65f9e8359a0c",
      "resource": {
        "resourceType": "Observation",
        "id": "0bb3c54a-d3f7-4dec-9663-65f9e8359a0c",
        "meta": {
          "profile": [
            "http://hl7.eu/fhir/laboratory/StructureDefinition/Observation-resultslab-eu-lab"
          ]
        },
        "performer": [
          {
            "display": "The Central European Lab"
          }
        ],
        "category": [
          {
            "coding": [
              {
                "system": "http://terminology.hl7.org/CodeSystem/observation-category",
                "code": "laboratory"
              }
            ]
          }
        ],
        "code": {
          "coding": [
            {
              "code": "20505-4",
              "system": "http://loinc.org",
              "display": "Bilirubin.total [Mass/volume] in Urine by Test strip"
            }
          ],
          "text": "Bilirubin.total [Mass/volume] in Urine by Test strip"
        },
        "valueQuantity": {
          "system": "http://unitsofmeasure.org",
          "value": 0.3,
          "unit": "mg/dL",
          "code": "mg/dL"
        },
        "referenceRange": [
          {
            "low": {
              "value": 0,
              "code": "mg/dL",
              "system": "http://unitsofmeasure.org"
            }
          },
          {
            "high": {
              "value": 1,
              "code": "mg/dL",
              "system": "http://unitsofmeasure.org"
            }
          }
        ],
        "text": {
          "status": "generated",
          "div": "<div xmlns=\"http://www.w3.org/1999/xhtml\"><table class=\"hl7__eu__lab__report\"><tr><th>Test</th><th>01-Oct-2019</th><th>Reference&#xA0;Range</th><th>Unit</th></tr><tr><td>Bilirubin.total [Mass/volume] in Urine by Test strip</td><td>0.3</td><td>0 - 1</td><td></td><td>mg/dL</td></tr></table></div>"
        },
        "status": "final",
        "subject": {
          "reference": "urn:uuid:fba45c76-b2ab-47b8-a061-27a75d12ab49",
          "display": "Meaghan Neary"
        },
        "effectiveDateTime": "2019-09-30T22:11:04Z",
        "specimen": {
          "reference": "urn:uuid:dc7f3842-1e89-461e-9f49-e3a52081a544"
        }
      }
    },
    {
      "fullUrl": "urn:uuid:d9c45b2a-de0e-44ca-928c-3ec6221f2173",
      "resource": {
        "resourceType": "Observation",
        "id": "d9c45b2a-de0e-44ca-928c-3ec6221f2173",
        "meta": {
          "profile": [
            "http://hl7.eu/fhir/laboratory/StructureDefinition/Observation-resultslab-eu-lab"
          ]
        },
        "performer": [
          {
            "display": "The Central European Lab"
          }
        ],
        "category": [
          {
            "coding": [
              {
                "system": "http://terminology.hl7.org/CodeSystem/observation-category",
                "code": "laboratory"
              }
            ]
          }
        ],
        "code": {
          "coding": [
            {
              "code": "5770-3",
              "system": "http://loinc.org",
              "display": "Bilirubin.total [Presence] in Urine by Test strip"
            }
          ],
          "text": "Bilirubin.total [Presence] in Urine by Test strip"
        },
        "text": {
          "status": "generated",
          "div": "<div xmlns=\"http://www.w3.org/1999/xhtml\"><table class=\"hl7__eu__lab__report\"><tr><th>Test</th><th>01-Oct-2019</th><th>Reference&#xA0;Range</th><th>Unit</th></tr><tr><td>Bilirubin.total [Presence] in Urine by Test strip</td></tr></table></div>"
        },
        "status": "final",
        "subject": {
          "reference": "urn:uuid:fba45c76-b2ab-47b8-a061-27a75d12ab49",
          "display": "Meaghan Neary"
        },
        "effectiveDateTime": "2019-09-30T22:11:04Z",
        "specimen": {
          "reference": "urn:uuid:dc7f3842-1e89-461e-9f49-e3a52081a544"
        }
      }
    },
    {
      "fullUrl": "urn:uuid:2a8986ed-840d-41ec-8ac9-9143c8451e39",
      "resource": {
        "resourceType": "Observation",
        "id": "2a8986ed-840d-41ec-8ac9-9143c8451e39",
        "meta": {
          "profile": [
            "http://hl7.eu/fhir/laboratory/StructureDefinition/Observation-resultslab-eu-lab"
          ]
        },
        "performer": [
          {
            "display": "The Central European Lab"
          }
        ],
        "category": [
          {
            "coding": [
              {
                "system": "http://terminology.hl7.org/CodeSystem/observation-category",
                "code": "laboratory"
              }
            ]
          }
        ],
        "code": {
          "coding": [
            {
              "code": "5797-6",
              "system": "http://loinc.org",
              "display": "Ketones [Mass/volume] in Urine by Test strip"
            }
          ],
          "text": "Ketones [Mass/volume] in Urine by Test strip"
        },
        "valueQuantity": {
          "system": "http://unitsofmeasure.org",
          "value": 0.5,
          "unit": "mg/dL",
          "code": "mg/dL"
        },
        "referenceRange": [
          {
            "low": {
              "value": 0,
              "code": "mg/dL",
              "system": "http://unitsofmeasure.org"
            }
          },
          {
            "high": {
              "value": 4,
              "code": "mg/dL",
              "system": "http://unitsofmeasure.org"
            }
          }
        ],
        "text": {
          "status": "generated",
          "div": "<div xmlns=\"http://www.w3.org/1999/xhtml\"><table class=\"hl7__eu__lab__report\"><tr><th>Test</th><th>01-Oct-2019</th><th>Reference&#xA0;Range</th><th>Unit</th></tr><tr><td>Ketones [Mass/volume] in Urine by Test strip</td><td>0.5</td><td>0 - 4</td><td></td><td>mg/dL</td></tr></table></div>"
        },
        "status": "final",
        "subject": {
          "reference": "urn:uuid:fba45c76-b2ab-47b8-a061-27a75d12ab49",
          "display": "Meaghan Neary"
        },
        "effectiveDateTime": "2019-09-30T22:11:04Z",
        "specimen": {
          "reference": "urn:uuid:dc7f3842-1e89-461e-9f49-e3a52081a544"
        }
      }
    },
    {
      "fullUrl": "urn:uuid:63e0ab19-8aec-4a08-85cf-38ca7583f85b",
      "resource": {
        "resourceType": "Observation",
        "id": "63e0ab19-8aec-4a08-85cf-38ca7583f85b",
        "meta": {
          "profile": [
            "http://hl7.eu/fhir/laboratory/StructureDefinition/Observation-resultslab-eu-lab"
          ]
        },
        "performer": [
          {
            "display": "The Central European Lab"
          }
        ],
        "category": [
          {
            "coding": [
              {
                "system": "http://terminology.hl7.org/CodeSystem/observation-category",
                "code": "laboratory"
              }
            ]
          }
        ],
        "code": {
          "coding": [
            {
              "code": "2514-8",
              "system": "http://loinc.org",
              "display": "Ketones [Presence] in Urine by Test strip"
            }
          ],
          "text": "Ketones [Presence] in Urine by Test strip"
        },
        "text": {
          "status": "generated",
          "div": "<div xmlns=\"http://www.w3.org/1999/xhtml\"><table class=\"hl7__eu__lab__report\"><tr><th>Test</th><th>01-Oct-2019</th><th>Reference&#xA0;Range</th><th>Unit</th></tr><tr><td>Ketones [Presence] in Urine by Test strip</td></tr></table></div>"
        },
        "status": "final",
        "subject": {
          "reference": "urn:uuid:fba45c76-b2ab-47b8-a061-27a75d12ab49",
          "display": "Meaghan Neary"
        },
        "effectiveDateTime": "2019-09-30T22:11:04Z",
        "specimen": {
          "reference": "urn:uuid:dc7f3842-1e89-461e-9f49-e3a52081a544"
        }
      }
    },
    {
      "fullUrl": "urn:uuid:81eed4ab-9a4a-40b3-962a-413c272199ef",
      "resource": {
        "resourceType": "Observation",
        "id": "81eed4ab-9a4a-40b3-962a-413c272199ef",
        "meta": {
          "profile": [
            "http://hl7.eu/fhir/laboratory/StructureDefinition/Observation-resultslab-eu-lab"
          ]
        },
        "performer": [
          {
            "display": "The Central European Lab"
          }
        ],
        "category": [
          {
            "coding": [
              {
                "system": "http://terminology.hl7.org/CodeSystem/observation-category",
                "code": "laboratory"
              }
            ]
          }
        ],
        "code": {
          "coding": [
            {
              "code": "5811-5",
              "system": "http://loinc.org",
              "display": "Specific gravity of Urine by Test strip"
            }
          ],
          "text": "Specific gravity of Urine by Test strip"
        },
        "valueQuantity": {
          "system": "http://unitsofmeasure.org",
          "value": 1,
          "unit": "{nominal}",
          "code": "{nominal}"
        },
        "referenceRange": [
          {
            "low": {
              "value": 1.005,
              "code": "g/mL",
              "system": "http://unitsofmeasure.org"
            }
          },
          {
            "high": {
              "value": 1.03,
              "code": "g/mL",
              "system": "http://unitsofmeasure.org"
            }
          }
        ],
        "interpretation": [
          {
            "coding": [
              {
                "code": "L",
                "system": "http://terminology.hl7.org/CodeSystem/v3-ObservationInterpretation",
                "display": "Low"
              }
            ]
          }
        ],
        "text": {
          "status": "generated",
          "div": "<div xmlns=\"http://www.w3.org/1999/xhtml\"><table class=\"hl7__eu__lab__report\"><tr><th>Test</th><th>01-Oct-2019</th><th>Reference&#xA0;Range</th><th>Unit</th></tr><tr><td>Specific gravity of Urine by Test strip</td><td>1.0</td><td>1.005 - 1.03</td><td>L</td><td>{nominal}</td></tr></table></div>"
        },
        "status": "final",
        "subject": {
          "reference": "urn:uuid:fba45c76-b2ab-47b8-a061-27a75d12ab49",
          "display": "Meaghan Neary"
        },
        "effectiveDateTime": "2019-09-30T22:11:04Z",
        "specimen": {
          "reference": "urn:uuid:dc7f3842-1e89-461e-9f49-e3a52081a544"
        }
      }
    },
    {
      "fullUrl": "urn:uuid:4af11bf3-9cbd-451a-b8aa-c35c1c3ff185",
      "resource": {
        "resourceType": "Observation",
        "id": "4af11bf3-9cbd-451a-b8aa-c35c1c3ff185",
        "meta": {
          "profile": [
            "http://hl7.eu/fhir/laboratory/StructureDefinition/Observation-resultslab-eu-lab"
          ]
        },
        "performer": [
          {
            "display": "The Central European Lab"
          }
        ],
        "category": [
          {
            "coding": [
              {
                "system": "http://terminology.hl7.org/CodeSystem/observation-category",
                "code": "laboratory"
              }
            ]
          }
        ],
        "code": {
          "coding": [
            {
              "code": "5803-2",
              "system": "http://loinc.org",
              "display": "pH of Urine by Test strip"
            }
          ],
          "text": "pH of Urine by Test strip"
        },
        "valueQuantity": {
          "system": "http://unitsofmeasure.org",
          "value": 5.9,
          "unit": "pH",
          "code": "pH"
        },
        "referenceRange": [
          {
            "low": {
              "value": 4.6,
              "code": "pH",
              "system": "http://unitsofmeasure.org"
            }
          },
          {
            "high": {
              "value": 7,
              "code": "pH",
              "system": "http://unitsofmeasure.org"
            }
          }
        ],
        "text": {
          "status": "generated",
          "div": "<div xmlns=\"http://www.w3.org/1999/xhtml\"><table class=\"hl7__eu__lab__report\"><tr><th>Test</th><th>01-Oct-2019</th><th>Reference&#xA0;Range</th><th>Unit</th></tr><tr><td>pH of Urine by Test strip</td><td>5.9</td><td>4.6 - 7</td><td></td><td>pH</td></tr></table></div>"
        },
        "status": "final",
        "subject": {
          "reference": "urn:uuid:fba45c76-b2ab-47b8-a061-27a75d12ab49",
          "display": "Meaghan Neary"
        },
        "effectiveDateTime": "2019-09-30T22:11:04Z",
        "specimen": {
          "reference": "urn:uuid:dc7f3842-1e89-461e-9f49-e3a52081a544"
        }
      }
    },
    {
      "fullUrl": "urn:uuid:0fdfd214-872a-45aa-a6fb-817fb9b35d7e",
      "resource": {
        "resourceType": "Observation",
        "id": "0fdfd214-872a-45aa-a6fb-817fb9b35d7e",
        "meta": {
          "profile": [
            "http://hl7.eu/fhir/laboratory/StructureDefinition/Observation-resultslab-eu-lab"
          ]
        },
        "performer": [
          {
            "display": "The Central European Lab"
          }
        ],
        "category": [
          {
            "coding": [
              {
                "system": "http://terminology.hl7.org/CodeSystem/observation-category",
                "code": "laboratory"
              }
            ]
          }
        ],
        "code": {
          "coding": [
            {
              "code": "5804-0",
              "system": "http://loinc.org",
              "display": "Protein [Mass/volume] in Urine by Test strip"
            }
          ],
          "text": "Protein [Mass/volume] in Urine by Test strip"
        },
        "valueQuantity": {
          "system": "http://unitsofmeasure.org",
          "value": 325.9,
          "unit": "mg/dL",
          "code": "mg/dL"
        },
        "referenceRange": [
          {
            "low": {
              "value": 0,
              "code": "mg/dL",
              "system": "http://unitsofmeasure.org"
            }
          },
          {
            "high": {
              "value": 14,
              "code": "mg/dL",
              "system": "http://unitsofmeasure.org"
            }
          }
        ],
        "interpretation": [
          {
            "coding": [
              {
                "code": "H",
                "system": "http://terminology.hl7.org/CodeSystem/v3-ObservationInterpretation",
                "display": "High"
              }
            ]
          }
        ],
        "text": {
          "status": "generated",
          "div": "<div xmlns=\"http://www.w3.org/1999/xhtml\"><table class=\"hl7__eu__lab__report\"><tr><th>Test</th><th>01-Oct-2019</th><th>Reference&#xA0;Range</th><th>Unit</th></tr><tr><td>Protein [Mass/volume] in Urine by Test strip</td><td>325.9</td><td>0 - 14</td><td>H</td><td>mg/dL</td></tr></table></div>"
        },
        "status": "final",
        "subject": {
          "reference": "urn:uuid:fba45c76-b2ab-47b8-a061-27a75d12ab49",
          "display": "Meaghan Neary"
        },
        "effectiveDateTime": "2019-09-30T22:11:04Z",
        "specimen": {
          "reference": "urn:uuid:dc7f3842-1e89-461e-9f49-e3a52081a544"
        }
      }
    },
    {
      "fullUrl": "urn:uuid:ba3604fd-e177-4fe2-ac7c-195e10a550aa",
      "resource": {
        "resourceType": "Observation",
        "id": "ba3604fd-e177-4fe2-ac7c-195e10a550aa",
        "meta": {
          "profile": [
            "http://hl7.eu/fhir/laboratory/StructureDefinition/Observation-resultslab-eu-lab"
          ]
        },
        "performer": [
          {
            "display": "The Central European Lab"
          }
        ],
        "category": [
          {
            "coding": [
              {
                "system": "http://terminology.hl7.org/CodeSystem/observation-category",
                "code": "laboratory"
              }
            ]
          }
        ],
        "code": {
          "coding": [
            {
              "code": "20454-5",
              "system": "http://loinc.org",
              "display": "Protein [Presence] in Urine by Test strip"
            }
          ],
          "text": "Protein [Presence] in Urine by Test strip"
        },
        "text": {
          "status": "generated",
          "div": "<div xmlns=\"http://www.w3.org/1999/xhtml\"><table class=\"hl7__eu__lab__report\"><tr><th>Test</th><th>01-Oct-2019</th><th>Reference&#xA0;Range</th><th>Unit</th></tr><tr><td>Protein [Presence] in Urine by Test strip</td></tr></table></div>"
        },
        "status": "final",
        "subject": {
          "reference": "urn:uuid:fba45c76-b2ab-47b8-a061-27a75d12ab49",
          "display": "Meaghan Neary"
        },
        "effectiveDateTime": "2019-09-30T22:11:04Z",
        "specimen": {
          "reference": "urn:uuid:dc7f3842-1e89-461e-9f49-e3a52081a544"
        }
      }
    },
    {
      "fullUrl": "urn:uuid:808ab7b9-bfcb-4924-846c-533fafefaa94",
      "resource": {
        "resourceType": "Observation",
        "id": "808ab7b9-bfcb-4924-846c-533fafefaa94",
        "meta": {
          "profile": [
            "http://hl7.eu/fhir/laboratory/StructureDefinition/Observation-resultslab-eu-lab"
          ]
        },
        "performer": [
          {
            "display": "The Central European Lab"
          }
        ],
        "category": [
          {
            "coding": [
              {
                "system": "http://terminology.hl7.org/CodeSystem/observation-category",
                "code": "laboratory"
              }
            ]
          }
        ],
        "code": {
          "coding": [
            {
              "code": "5802-4",
              "system": "http://loinc.org",
              "display": "Nitrite [Presence] in Urine by Test strip"
            }
          ],
          "text": "Nitrite [Presence] in Urine by Test strip"
        },
        "text": {
          "status": "generated",
          "div": "<div xmlns=\"http://www.w3.org/1999/xhtml\"><table class=\"hl7__eu__lab__report\"><tr><th>Test</th><th>01-Oct-2019</th><th>Reference&#xA0;Range</th><th>Unit</th></tr><tr><td>Nitrite [Presence] in Urine by Test strip</td></tr></table></div>"
        },
        "status": "final",
        "subject": {
          "reference": "urn:uuid:fba45c76-b2ab-47b8-a061-27a75d12ab49",
          "display": "Meaghan Neary"
        },
        "effectiveDateTime": "2019-09-30T22:11:04Z",
        "specimen": {
          "reference": "urn:uuid:dc7f3842-1e89-461e-9f49-e3a52081a544"
        }
      }
    },
    {
      "fullUrl": "urn:uuid:1e81f768-6d1f-4a4f-9b48-4b3891057271",
      "resource": {
        "resourceType": "Observation",
        "id": "1e81f768-6d1f-4a4f-9b48-4b3891057271",
        "meta": {
          "profile": [
            "http://hl7.eu/fhir/laboratory/StructureDefinition/Observation-resultslab-eu-lab"
          ]
        },
        "performer": [
          {
            "display": "The Central European Lab"
          }
        ],
        "category": [
          {
            "coding": [
              {
                "system": "http://terminology.hl7.org/CodeSystem/observation-category",
                "code": "laboratory"
              }
            ]
          }
        ],
        "code": {
          "coding": [
            {
              "code": "5794-3",
              "system": "http://loinc.org",
              "display": "Hemoglobin [Presence] in Urine by Test strip"
            }
          ],
          "text": "Hemoglobin [Presence] in Urine by Test strip"
        },
        "text": {
          "status": "generated",
          "div": "<div xmlns=\"http://www.w3.org/1999/xhtml\"><table class=\"hl7__eu__lab__report\"><tr><th>Test</th><th>01-Oct-2019</th><th>Reference&#xA0;Range</th><th>Unit</th></tr><tr><td>Hemoglobin [Presence] in Urine by Test strip</td></tr></table></div>"
        },
        "status": "final",
        "subject": {
          "reference": "urn:uuid:fba45c76-b2ab-47b8-a061-27a75d12ab49",
          "display": "Meaghan Neary"
        },
        "effectiveDateTime": "2019-09-30T22:11:04Z",
        "specimen": {
          "reference": "urn:uuid:dc7f3842-1e89-461e-9f49-e3a52081a544"
        }
      }
    },
    {
      "fullUrl": "urn:uuid:7e3992ef-30c3-44c4-91c0-5e730f8e32ae",
      "resource": {
        "resourceType": "Observation",
        "id": "7e3992ef-30c3-44c4-91c0-5e730f8e32ae",
        "meta": {
          "profile": [
            "http://hl7.eu/fhir/laboratory/StructureDefinition/Observation-resultslab-eu-lab"
          ]
        },
        "performer": [
          {
            "display": "The Central European Lab"
          }
        ],
        "category": [
          {
            "coding": [
              {
                "system": "http://terminology.hl7.org/CodeSystem/observation-category",
                "code": "laboratory"
              }
            ]
          }
        ],
        "code": {
          "coding": [
            {
              "code": "5799-2",
              "system": "http://loinc.org",
              "display": "Leukocyte esterase [Presence] in Urine by Test strip"
            }
          ],
          "text": "Leukocyte esterase [Presence] in Urine by Test strip"
        },
        "text": {
          "status": "generated",
          "div": "<div xmlns=\"http://www.w3.org/1999/xhtml\"><table class=\"hl7__eu__lab__report\"><tr><th>Test</th><th>01-Oct-2019</th><th>Reference&#xA0;Range</th><th>Unit</th></tr><tr><td>Leukocyte esterase [Presence] in Urine by Test strip</td></tr></table></div>"
        },
        "status": "final",
        "subject": {
          "reference": "urn:uuid:fba45c76-b2ab-47b8-a061-27a75d12ab49",
          "display": "Meaghan Neary"
        },
        "effectiveDateTime": "2019-09-30T22:11:04Z",
        "specimen": {
          "reference": "urn:uuid:dc7f3842-1e89-461e-9f49-e3a52081a544"
        }
      }
    },
    {
      "fullUrl": "urn:uuid:38d0b532-ac5e-4f8b-b6ef-7a8fa35cf161",
      "resource": {
        "resourceType": "Observation",
        "id": "38d0b532-ac5e-4f8b-b6ef-7a8fa35cf161",
        "meta": {
          "profile": [
            "http://hl7.eu/fhir/laboratory/StructureDefinition/Observation-resultslab-eu-lab"
          ]
        },
        "performer": [
          {
            "display": "The Central European Lab"
          }
        ],
        "category": [
          {
            "coding": [
              {
                "system": "http://terminology.hl7.org/CodeSystem/observation-category",
                "code": "laboratory"
              }
            ]
          }
        ],
        "code": {
          "coding": [
            {
              "code": "4548-4",
              "system": "http://loinc.org",
              "display": "Hemoglobin A1c/Hemoglobin.total in Blood"
            }
          ],
          "text": "Hemoglobin A1c/Hemoglobin.total in Blood"
        },
        "valueQuantity": {
          "system": "http://unitsofmeasure.org",
          "value": 3.2,
          "unit": "%",
          "code": "%"
        },
        "referenceRange": [
          {
            "low": {
              "value": 4,
              "code": "%",
              "system": "http://unitsofmeasure.org"
            }
          },
          {
            "high": {
              "value": 6.4,
              "code": "%",
              "system": "http://unitsofmeasure.org"
            }
          }
        ],
        "interpretation": [
          {
            "coding": [
              {
                "code": "L",
                "system": "http://terminology.hl7.org/CodeSystem/v3-ObservationInterpretation",
                "display": "Low"
              }
            ]
          }
        ],
        "text": {
          "status": "generated",
          "div": "<div xmlns=\"http://www.w3.org/1999/xhtml\"><table class=\"hl7__eu__lab__report\"><tr><th>Test</th><th>01-Oct-2019</th><th>Reference&#xA0;Range</th><th>Unit</th></tr><tr><td>Hemoglobin A1c/Hemoglobin.total in Blood</td><td>3.2</td><td>4 - 6.4</td><td>L</td><td>%</td></tr></table></div>"
        },
        "status": "final",
        "subject": {
          "reference": "urn:uuid:fba45c76-b2ab-47b8-a061-27a75d12ab49",
          "display": "Meaghan Neary"
        },
        "effectiveDateTime": "2019-09-30T22:11:04Z",
        "specimen": {
          "reference": "urn:uuid:3305f602-3da7-4879-899a-1734bbf6967e"
        }
      }
    },
    {
      "fullUrl": "urn:uuid:1b1c382c-318d-40cf-b5df-16933b1b5935",
      "resource": {
        "resourceType": "Observation",
        "id": "1b1c382c-318d-40cf-b5df-16933b1b5935",
        "meta": {
          "profile": [
            "http://hl7.eu/fhir/laboratory/StructureDefinition/Observation-resultslab-eu-lab"
          ]
        },
        "performer": [
          {
            "display": "The Central European Lab"
          }
        ],
        "category": [
          {
            "coding": [
              {
                "system": "http://terminology.hl7.org/CodeSystem/observation-category",
                "code": "laboratory"
              }
            ]
          }
        ],
        "code": {
          "coding": [
            {
              "code": "2339-0",
              "system": "http://loinc.org",
              "display": "Glucose [Mass/volume] in Blood"
            }
          ],
          "text": "Glucose [Mass/volume] in Blood"
        },
        "valueQuantity": {
          "system": "http://unitsofmeasure.org",
          "value": 96.5,
          "unit": "mg/dL",
          "code": "mg/dL"
        },
        "referenceRange": [
          {
            "low": {
              "value": 70,
              "code": "mg/dL",
              "system": "http://unitsofmeasure.org"
            }
          },
          {
            "high": {
              "value": 100,
              "code": "mg/dL",
              "system": "http://unitsofmeasure.org"
            }
          }
        ],
        "text": {
          "status": "generated",
          "div": "<div xmlns=\"http://www.w3.org/1999/xhtml\"><table class=\"hl7__eu__lab__report\"><tr><th>Test</th><th>01-Oct-2019</th><th>Reference&#xA0;Range</th><th>Unit</th></tr><tr><td>Glucose [Mass/volume] in Blood</td><td>96.5</td><td>70 - 100</td><td></td><td>mg/dL</td></tr></table></div>"
        },
        "status": "final",
        "subject": {
          "reference": "urn:uuid:fba45c76-b2ab-47b8-a061-27a75d12ab49",
          "display": "Meaghan Neary"
        },
        "effectiveDateTime": "2019-09-30T22:11:04Z",
        "specimen": {
          "reference": "urn:uuid:3305f602-3da7-4879-899a-1734bbf6967e"
        }
      }
    },
    {
      "fullUrl": "urn:uuid:841303c4-b8cb-45aa-8607-487c6fbde12a",
      "resource": {
        "resourceType": "Observation",
        "id": "841303c4-b8cb-45aa-8607-487c6fbde12a",
        "meta": {
          "profile": [
            "http://hl7.eu/fhir/laboratory/StructureDefinition/Observation-resultslab-eu-lab"
          ]
        },
        "performer": [
          {
            "display": "The Central European Lab"
          }
        ],
        "category": [
          {
            "coding": [
              {
                "system": "http://terminology.hl7.org/CodeSystem/observation-category",
                "code": "laboratory"
              }
            ]
          }
        ],
        "code": {
          "coding": [
            {
              "code": "6299-2",
              "system": "http://loinc.org",
              "display": "Urea nitrogen [Mass/volume] in Blood"
            }
          ],
          "text": "Urea nitrogen [Mass/volume] in Blood"
        },
        "valueQuantity": {
          "system": "http://unitsofmeasure.org",
          "value": 14,
          "unit": "mg/dL",
          "code": "mg/dL"
        },
        "referenceRange": [
          {
            "low": {
              "value": 7,
              "code": "mg/dL",
              "system": "http://unitsofmeasure.org"
            }
          },
          {
            "high": {
              "value": 43,
              "code": "mg/dL",
              "system": "http://unitsofmeasure.org"
            }
          }
        ],
        "text": {
          "status": "generated",
          "div": "<div xmlns=\"http://www.w3.org/1999/xhtml\"><table class=\"hl7__eu__lab__report\"><tr><th>Test</th><th>01-Oct-2019</th><th>Reference&#xA0;Range</th><th>Unit</th></tr><tr><td>Urea nitrogen [Mass/volume] in Blood</td><td>14.0</td><td>7 - 43</td><td></td><td>mg/dL</td></tr></table></div>"
        },
        "status": "final",
        "subject": {
          "reference": "urn:uuid:fba45c76-b2ab-47b8-a061-27a75d12ab49",
          "display": "Meaghan Neary"
        },
        "effectiveDateTime": "2019-09-30T22:11:04Z",
        "specimen": {
          "reference": "urn:uuid:3305f602-3da7-4879-899a-1734bbf6967e"
        }
      }
    },
    {
      "fullUrl": "urn:uuid:f7e82a6f-5e59-4837-9ed4-aa0681f5b605",
      "resource": {
        "resourceType": "Observation",
        "id": "f7e82a6f-5e59-4837-9ed4-aa0681f5b605",
        "meta": {
          "profile": [
            "http://hl7.eu/fhir/laboratory/StructureDefinition/Observation-resultslab-eu-lab"
          ]
        },
        "performer": [
          {
            "display": "The Central European Lab"
          }
        ],
        "category": [
          {
            "coding": [
              {
                "system": "http://terminology.hl7.org/CodeSystem/observation-category",
                "code": "laboratory"
              }
            ]
          }
        ],
        "code": {
          "coding": [
            {
              "code": "38483-4",
              "system": "http://loinc.org",
              "display": "Creatinine [Mass/volume] in Blood"
            }
          ],
          "text": "Creatinine [Mass/volume] in Blood"
        },
        "valueQuantity": {
          "system": "http://unitsofmeasure.org",
          "value": 3.7,
          "unit": "mg/dL",
          "code": "mg/dL"
        },
        "referenceRange": [
          {
            "low": {
              "value": 0.6,
              "code": "mg/dL",
              "system": "http://unitsofmeasure.org"
            }
          },
          {
            "high": {
              "value": 1.1,
              "code": "mg/dL",
              "system": "http://unitsofmeasure.org"
            }
          }
        ],
        "interpretation": [
          {
            "coding": [
              {
                "code": "H",
                "system": "http://terminology.hl7.org/CodeSystem/v3-ObservationInterpretation",
                "display": "High"
              }
            ]
          }
        ],
        "text": {
          "status": "generated",
          "div": "<div xmlns=\"http://www.w3.org/1999/xhtml\"><table class=\"hl7__eu__lab__report\"><tr><th>Test</th><th>01-Oct-2019</th><th>Reference&#xA0;Range</th><th>Unit</th></tr><tr><td>Creatinine [Mass/volume] in Blood</td><td>3.7</td><td>0.6 - 1.1</td><td>H</td><td>mg/dL</td></tr></table></div>"
        },
        "status": "final",
        "subject": {
          "reference": "urn:uuid:fba45c76-b2ab-47b8-a061-27a75d12ab49",
          "display": "Meaghan Neary"
        },
        "effectiveDateTime": "2019-09-30T22:11:04Z",
        "specimen": {
          "reference": "urn:uuid:3305f602-3da7-4879-899a-1734bbf6967e"
        }
      }
    },
    {
      "fullUrl": "urn:uuid:73ac6764-e270-4580-b910-255ce2c658a6",
      "resource": {
        "resourceType": "Observation",
        "id": "73ac6764-e270-4580-b910-255ce2c658a6",
        "meta": {
          "profile": [
            "http://hl7.eu/fhir/laboratory/StructureDefinition/Observation-resultslab-eu-lab"
          ]
        },
        "performer": [
          {
            "display": "The Central European Lab"
          }
        ],
        "category": [
          {
            "coding": [
              {
                "system": "http://terminology.hl7.org/CodeSystem/observation-category",
                "code": "laboratory"
              }
            ]
          }
        ],
        "code": {
          "coding": [
            {
              "code": "49765-1",
              "system": "http://loinc.org",
              "display": "Calcium [Mass/volume] in Blood"
            }
          ],
          "text": "Calcium [Mass/volume] in Blood"
        },
        "valueQuantity": {
          "system": "http://unitsofmeasure.org",
          "value": 9.2,
          "unit": "mg/dL",
          "code": "mg/dL"
        },
        "referenceRange": [
          {
            "low": {
              "value": 8.5,
              "code": "mg/dL",
              "system": "http://unitsofmeasure.org"
            }
          },
          {
            "high": {
              "value": 10.5,
              "code": "mg/dL",
              "system": "http://unitsofmeasure.org"
            }
          }
        ],
        "text": {
          "status": "generated",
          "div": "<div xmlns=\"http://www.w3.org/1999/xhtml\"><table class=\"hl7__eu__lab__report\"><tr><th>Test</th><th>01-Oct-2019</th><th>Reference&#xA0;Range</th><th>Unit</th></tr><tr><td>Calcium [Mass/volume] in Blood</td><td>9.2</td><td>8.5 - 10.5</td><td></td><td>mg/dL</td></tr></table></div>"
        },
        "status": "final",
        "subject": {
          "reference": "urn:uuid:fba45c76-b2ab-47b8-a061-27a75d12ab49",
          "display": "Meaghan Neary"
        },
        "effectiveDateTime": "2019-09-30T22:11:04Z",
        "specimen": {
          "reference": "urn:uuid:3305f602-3da7-4879-899a-1734bbf6967e"
        }
      }
    },
    {
      "fullUrl": "urn:uuid:5555d0c5-886e-4f14-b59e-9c03df47deff",
      "resource": {
        "resourceType": "Observation",
        "id": "5555d0c5-886e-4f14-b59e-9c03df47deff",
        "meta": {
          "profile": [
            "http://hl7.eu/fhir/laboratory/StructureDefinition/Observation-resultslab-eu-lab"
          ]
        },
        "performer": [
          {
            "display": "The Central European Lab"
          }
        ],
        "category": [
          {
            "coding": [
              {
                "system": "http://terminology.hl7.org/CodeSystem/observation-category",
                "code": "laboratory"
              }
            ]
          }
        ],
        "code": {
          "coding": [
            {
              "code": "2947-0",
              "system": "http://loinc.org",
              "display": "Sodium [Moles/volume] in Blood"
            }
          ],
          "text": "Sodium [Moles/volume] in Blood"
        },
        "valueQuantity": {
          "system": "http://unitsofmeasure.org",
          "value": 141.3,
          "unit": "mmol/L",
          "code": "mmol/L"
        },
        "referenceRange": [
          {
            "low": {
              "value": 135,
              "code": "mmol/L",
              "system": "http://unitsofmeasure.org"
            }
          },
          {
            "high": {
              "value": 145,
              "code": "mmol/L",
              "system": "http://unitsofmeasure.org"
            }
          }
        ],
        "text": {
          "status": "generated",
          "div": "<div xmlns=\"http://www.w3.org/1999/xhtml\"><table class=\"hl7__eu__lab__report\"><tr><th>Test</th><th>01-Oct-2019</th><th>Reference&#xA0;Range</th><th>Unit</th></tr><tr><td>Sodium [Moles/volume] in Blood</td><td>141.3</td><td>135 - 145</td><td></td><td>mmol/L</td></tr></table></div>"
        },
        "status": "final",
        "subject": {
          "reference": "urn:uuid:fba45c76-b2ab-47b8-a061-27a75d12ab49",
          "display": "Meaghan Neary"
        },
        "effectiveDateTime": "2019-09-30T22:11:04Z",
        "specimen": {
          "reference": "urn:uuid:3305f602-3da7-4879-899a-1734bbf6967e"
        }
      }
    },
    {
      "fullUrl": "urn:uuid:d3e6cb47-8d0a-4ff9-b859-e539bbd748e5",
      "resource": {
        "resourceType": "Observation",
        "id": "d3e6cb47-8d0a-4ff9-b859-e539bbd748e5",
        "meta": {
          "profile": [
            "http://hl7.eu/fhir/laboratory/StructureDefinition/Observation-resultslab-eu-lab"
          ]
        },
        "performer": [
          {
            "display": "The Central European Lab"
          }
        ],
        "category": [
          {
            "coding": [
              {
                "system": "http://terminology.hl7.org/CodeSystem/observation-category",
                "code": "laboratory"
              }
            ]
          }
        ],
        "code": {
          "coding": [
            {
              "code": "6298-4",
              "system": "http://loinc.org",
              "display": "Potassium [Moles/volume] in Blood"
            }
          ],
          "text": "Potassium [Moles/volume] in Blood"
        },
        "valueQuantity": {
          "system": "http://unitsofmeasure.org",
          "value": 4.5,
          "unit": "mmol/L",
          "code": "mmol/L"
        },
        "referenceRange": [
          {
            "low": {
              "value": 3.5,
              "code": "mmol/L",
              "system": "http://unitsofmeasure.org"
            }
          },
          {
            "high": {
              "value": 5.1,
              "code": "mmol/L",
              "system": "http://unitsofmeasure.org"
            }
          }
        ],
        "text": {
          "status": "generated",
          "div": "<div xmlns=\"http://www.w3.org/1999/xhtml\"><table class=\"hl7__eu__lab__report\"><tr><th>Test</th><th>01-Oct-2019</th><th>Reference&#xA0;Range</th><th>Unit</th></tr><tr><td>Potassium [Moles/volume] in Blood</td><td>4.5</td><td>3.5 - 5.1</td><td></td><td>mmol/L</td></tr></table></div>"
        },
        "status": "final",
        "subject": {
          "reference": "urn:uuid:fba45c76-b2ab-47b8-a061-27a75d12ab49",
          "display": "Meaghan Neary"
        },
        "effectiveDateTime": "2019-09-30T22:11:04Z",
        "specimen": {
          "reference": "urn:uuid:3305f602-3da7-4879-899a-1734bbf6967e"
        }
      }
    },
    {
      "fullUrl": "urn:uuid:4995e5ee-f6fc-4817-b368-5980124a8d01",
      "resource": {
        "resourceType": "Observation",
        "id": "4995e5ee-f6fc-4817-b368-5980124a8d01",
        "meta": {
          "profile": [
            "http://hl7.eu/fhir/laboratory/StructureDefinition/Observation-resultslab-eu-lab"
          ]
        },
        "performer": [
          {
            "display": "The Central European Lab"
          }
        ],
        "category": [
          {
            "coding": [
              {
                "system": "http://terminology.hl7.org/CodeSystem/observation-category",
                "code": "laboratory"
              }
            ]
          }
        ],
        "code": {
          "coding": [
            {
              "code": "2069-3",
              "system": "http://loinc.org",
              "display": "Chloride [Moles/volume] in Blood"
            }
          ],
          "text": "Chloride [Moles/volume] in Blood"
        },
        "valueQuantity": {
          "system": "http://unitsofmeasure.org",
          "value": 107.8,
          "unit": "mmol/L",
          "code": "mmol/L"
        },
        "referenceRange": [
          {
            "low": {
              "value": 98,
              "code": "mmol/L",
              "system": "http://unitsofmeasure.org"
            }
          },
          {
            "high": {
              "value": 108,
              "code": "mmol/L",
              "system": "http://unitsofmeasure.org"
            }
          }
        ],
        "text": {
          "status": "generated",
          "div": "<div xmlns=\"http://www.w3.org/1999/xhtml\"><table class=\"hl7__eu__lab__report\"><tr><th>Test</th><th>01-Oct-2019</th><th>Reference&#xA0;Range</th><th>Unit</th></tr><tr><td>Chloride [Moles/volume] in Blood</td><td>107.8</td><td>98 - 108</td><td></td><td>mmol/L</td></tr></table></div>"
        },
        "status": "final",
        "subject": {
          "reference": "urn:uuid:fba45c76-b2ab-47b8-a061-27a75d12ab49",
          "display": "Meaghan Neary"
        },
        "effectiveDateTime": "2019-09-30T22:11:04Z",
        "specimen": {
          "reference": "urn:uuid:3305f602-3da7-4879-899a-1734bbf6967e"
        }
      }
    },
    {
      "fullUrl": "urn:uuid:32bba603-1b14-4a12-8229-536f81f5d9b1",
      "resource": {
        "resourceType": "Observation",
        "id": "32bba603-1b14-4a12-8229-536f81f5d9b1",
        "meta": {
          "profile": [
            "http://hl7.eu/fhir/laboratory/StructureDefinition/Observation-resultslab-eu-lab"
          ]
        },
        "performer": [
          {
            "display": "The Central European Lab"
          }
        ],
        "category": [
          {
            "coding": [
              {
                "system": "http://terminology.hl7.org/CodeSystem/observation-category",
                "code": "laboratory"
              }
            ]
          }
        ],
        "code": {
          "coding": [
            {
              "code": "20565-8",
              "system": "http://loinc.org",
              "display": "Carbon dioxide, total [Moles/volume] in Blood"
            }
          ],
          "text": "Carbon dioxide, total [Moles/volume] in Blood"
        },
        "valueQuantity": {
          "system": "http://unitsofmeasure.org",
          "value": 28.6,
          "unit": "mmol/L",
          "code": "mmol/L"
        },
        "referenceRange": [
          {
            "low": {
              "value": 22,
              "code": "mmol/L",
              "system": "http://unitsofmeasure.org"
            }
          },
          {
            "high": {
              "value": 29,
              "code": "mmol/L",
              "system": "http://unitsofmeasure.org"
            }
          }
        ],
        "text": {
          "status": "generated",
          "div": "<div xmlns=\"http://www.w3.org/1999/xhtml\"><table class=\"hl7__eu__lab__report\"><tr><th>Test</th><th>01-Oct-2019</th><th>Reference&#xA0;Range</th><th>Unit</th></tr><tr><td>Carbon dioxide, total [Moles/volume] in Blood</td><td>28.6</td><td>22 - 29</td><td></td><td>mmol/L</td></tr></table></div>"
        },
        "status": "final",
        "subject": {
          "reference": "urn:uuid:fba45c76-b2ab-47b8-a061-27a75d12ab49",
          "display": "Meaghan Neary"
        },
        "effectiveDateTime": "2019-09-30T22:11:04Z",
        "specimen": {
          "reference": "urn:uuid:3305f602-3da7-4879-899a-1734bbf6967e"
        }
      }
    },
    {
      "fullUrl": "urn:uuid:64817c70-e1bb-4e7a-9eb3-4888d8c595e9",
      "resource": {
        "resourceType": "Device",
        "id": "64817c70-e1bb-4e7a-9eb3-4888d8c595e9",
        "deviceName": [
          {
            "name": "SYNDERAI Synthetic Generator",
            "type": "manufacturer-name"
          }
        ],
        "version": [
          {
            "value": "5.0"
          }
        ],
        "text": {
          "status": "generated",
          "div": "<div xmlns=\"http://www.w3.org/1999/xhtml\">SYNDERAI Synthetic Generator v5.0</div>"
        },
        "status": "active\"",
        "distinctIdentifier": "synderai-generator-50",
        "manufacturer": "SYNDERAI Project"
      }
    },
    {
      "fullUrl": "urn:uuid:69535c6e-1392-484b-a348-54b2c9822a62",
      "resource": {
        "resourceType": "Provenance",
        "id": "69535c6e-1392-484b-a348-54b2c9822a62",
        "target": [
          {
            "reference": "Patient/fba45c76-b2ab-47b8-a061-27a75d12ab49"
          },
          {
            "reference": "Bundle/b807465e-5d7e-483a-a026-b4a0f002338a"
          },
          {
            "reference": "Composition/19775ef6-28c6-46c5-912d-8036abbdd1ed"
          },
          {
            "reference": "PractitionerRole/71de7820-a28a-458f-8453-317324c1052b"
          },
          {
            "reference": "Practitioner/09842274-33d8-49be-9230-98bf9d6f19ed"
          },
          {
            "reference": "PractitionerRole/6f6979e4-295f-452e-8414-eef62e1ae08a"
          },
          {
            "reference": "Organization/15d367ef-81a7-4cbe-9247-1527577d3b79"
          }
        ],
        "activity": {
          "text": "Synthetic Example Data Generation"
        },
        "policy": [
          "https://synderai.net/synderai-synthetic-data-policy"
        ],
        "agent": [
          {
            "type": {
              "text": "author"
            },
            "who": {
              "reference": "Device/64817c70-e1bb-4e7a-9eb3-4888d8c595e9"
            }
          }
        ],
        "reason": [
          {
            "text": "Interoperability Testing and Training (non-clinical use)"
          }
        ],
        "text": {
          "status": "generated",
          "div": "<div xmlns=\"http://www.w3.org/1999/xhtml\">Provenance for SYNDERAI Synthetic Example Data Resource</div>"
        },
        "recorded": "2019-10-01T00:11:04Z"
      }
    },
    {
      "fullUrl": "urn:uuid:71de7820-a28a-458f-8453-317324c1052b",
      "resource": {
        "resourceType": "PractitionerRole",
        "id": "71de7820-a28a-458f-8453-317324c1052b",
        "meta": {
          "profile": [
            "http://hl7.eu/fhir/base/StructureDefinition/practitionerRole-eu"
          ]
        },
        "text": {
          "status": "generated",
          "div": "<div xmlns=\"http://www.w3.org/1999/xhtml\">Laboratory Role Id: 71de7820-a28a-458f-8453-317324c1052b</div>"
        },
        "practitioner": {
          "reference": "urn:uuid:09842274-33d8-49be-9230-98bf9d6f19ed"
        }
      }
    },
    {
      "fullUrl": "urn:uuid:09842274-33d8-49be-9230-98bf9d6f19ed",
      "resource": {
        "resourceType": "Practitioner",
        "id": "09842274-33d8-49be-9230-98bf9d6f19ed",
        "meta": {
          "profile": [
            "http://hl7.eu/fhir/base/StructureDefinition/practitioner-eu"
          ]
        },
        "identifier": [
          {
            "assigner": {
              "display": "HL7 Europe"
            },
            "system": "urn:oid:2.16.840.1.113883.2.51.999",
            "value": "032655a6-ee24-4ed5-bb5a-307b3f550ade"
          }
        ],
        "name": [
          {
            "prefix": [
              "dr"
            ],
            "given": [
              "Ex"
            ],
            "family": "Ample"
          }
        ],
        "address": [
          {
            "line": [
              "Laboratoire Central Européenne",
              "Boulevard du Jardin Botanique 32"
            ],
            "postalCode": "1000",
            "city": "Brussels",
            "country": "Belgium"
          }
        ],
        "text": {
          "status": "generated",
          "div": "<div xmlns=\"http://www.w3.org/1999/xhtml\">Laboratory: Laboratoire Central Européenne, 1000 Brussels, Belgium</div>"
        }
      }
    }
  ],
  "type": "document",
  "timestamp": "2019-10-01T00:11:04Z"
}
