{
  "resourceType": "Bundle",
  "id": "f57a2322-373f-4dd3-888e-dc64afc11d2e",
  "meta": {
    "profile": [
      "http://hl7.eu/fhir/laboratory/StructureDefinition/Bundle-eu-lab"
    ]
  },
  "identifier": {
    "assigner": {
      "display": "HL7 Europe"
    },
    "system": "urn:oid:2.16.840.1.113883.2.51.999",
    "value": "83a6a171-0921-48f9-bd3f-c8d72602d844"
  },
  "entry": [
    {
      "fullUrl": "urn:uuid:1772a10e-5faa-4677-b96e-2f1f74f08dfe",
      "resource": {
        "resourceType": "Composition",
        "id": "1772a10e-5faa-4677-b96e-2f1f74f08dfe",
        "meta": {
          "profile": [
            "http://hl7.eu/fhir/laboratory/StructureDefinition/Composition-eu-lab"
          ]
        },
        "identifier": {
          "assigner": {
            "display": "HL7 Europe"
          },
          "system": "urn:oid:2.16.840.1.113883.2.51.999",
          "value": "45361120-5f50-4758-9ec9-ff5c6fbb056e"
        },
        "author": [
          {
            "reference": "urn:uuid:760369fa-6bbf-48f0-8d77-2718fb80d949"
          }
        ],
        "category": [
          {
            "coding": [
              {
                "code": "26436-6",
                "system": "http://loinc.org",
                "display": "Laboratory studies (set)"
              }
            ]
          }
        ],
        "type": {
          "coding": [
            {
              "code": "11502-2",
              "system": "http://loinc.org",
              "display": "Laboratory report"
            }
          ],
          "text": "Laboratory Report"
        },
        "section": [
          {
            "code": {
              "coding": [
                {
                  "code": "26436-6",
                  "system": "http://loinc.org",
                  "display": "Laboratory studies (set)"
                }
              ],
              "text": "Laboratory studies"
            },
            "section": [
              {
                "code": {
                  "coding": [
                    {
                      "code": "$18719-5",
                      "system": "http://loinc.org",
                      "display": "Chemistry studies (set)"
                    }
                  ],
                  "text": "Chemistry"
                },
                "entry": [
                  {
                    "reference": "urn:uuid:eef70855-ff7e-4c9d-ab66-9ec461e08492"
                  },
                  {
                    "reference": "urn:uuid:c822b7ee-4ae9-4ea1-acd9-c8997e8294e9"
                  },
                  {
                    "reference": "urn:uuid:371ea3e7-b928-4353-a015-0e1208c1b3fb"
                  },
                  {
                    "reference": "urn:uuid:28bd62ad-10dc-4be9-a918-4fe85a96fa72"
                  },
                  {
                    "reference": "urn:uuid:772b94ca-f4f6-4ca9-bf98-9d76e7bc83f7"
                  },
                  {
                    "reference": "urn:uuid:8ac16cd8-cc46-4796-b814-be01392aba25"
                  },
                  {
                    "reference": "urn:uuid:312efbaf-6a40-4f34-a9ac-6adf782a4c83"
                  },
                  {
                    "reference": "urn:uuid:c4d645d2-e2a0-490b-89eb-f82fca7ab062"
                  },
                  {
                    "reference": "urn:uuid:2e8bb64e-4f74-4542-951e-62a299671ae2"
                  },
                  {
                    "reference": "urn:uuid:020a9666-9644-4176-9282-acff23f48d2d"
                  }
                ],
                "text": {
                  "status": "generated",
                  "div": "<div xmlns=\"http://www.w3.org/1999/xhtml\"><h3>Chemistry</h3><table class=\"hl7__eu__lab__report\"><thead><tr><th>Test</th><th>22-AUG-2017</th><th>Reference&#xA0;Range</th><th>Unit</th></tr></thead><tbody><tr><td>Glucose [Mass/volume] in Serum or Plasma</td><td>79.6</td><td>70 - 99</td><td>mg/dL</td></tr><tr><td>Urea nitrogen [Mass/volume] in Serum or Plasma</td><td>11.4</td><td>7 - 50</td><td>mg/dL</td></tr><tr><td>Creatinine [Mass/volume] in Serum or Plasma</td><td><strong>1.8 H</strong></td><td>0.6 - 1.1</td><td>mg/dL</td></tr><tr><td>Calcium [Mass/volume] in Serum or Plasma</td><td>9.7</td><td>8.6 - 10.4</td><td>mg/dL</td></tr><tr><td>Sodium [Moles/volume] in Serum or Plasma</td><td>140.4</td><td>135 - 145</td><td>mmol/L</td></tr><tr><td>Potassium [Moles/volume] in Serum or Plasma</td><td>5.0</td><td>3.5 - 5.1</td><td>mmol/L</td></tr><tr><td>Chloride [Moles/volume] in Serum or Plasma</td><td>107.3</td><td>98 - 108</td><td>mmol/L</td></tr><tr><td>Carbon dioxide, total [Moles/volume] in Serum or Plasma</td><td>28.2</td><td>22 - 32</td><td>mmol/L</td></tr><tr><td>Ketones [Presence] in Urine by Test strip</td><td>Urine ketone test = +</td><td></td><td></td></tr><tr><td>Hemoglobin A1c/Hemoglobin.total in Blood</td><td><strong>3.4 L</strong></td><td>4 - 6.4</td><td>%</td></tr></tbody></table></div>"
                },
                "title": "Chemistry"
              },
              {
                "code": {
                  "coding": [
                    {
                      "code": "$18729-4",
                      "system": "http://loinc.org",
                      "display": "Urinalysis studies (set)"
                    }
                  ],
                  "text": "Urinalysis"
                },
                "entry": [
                  {
                    "reference": "urn:uuid:374e18d8-64bf-4d28-8ebe-61ae36b558f1"
                  },
                  {
                    "reference": "urn:uuid:d4b9a337-f7fa-41b2-91f4-9eabd399a147"
                  },
                  {
                    "reference": "urn:uuid:a50b4636-dcf6-40cf-873f-6ab25fa008e6"
                  },
                  {
                    "reference": "urn:uuid:176b7866-46a4-447d-90c8-71fac2c105f5"
                  },
                  {
                    "reference": "urn:uuid:33c3775d-e7db-43c4-9249-92e1399f8d89"
                  },
                  {
                    "reference": "urn:uuid:3f26bc05-350f-404e-9e74-ee98a41f4b89"
                  },
                  {
                    "reference": "urn:uuid:e77f043a-f210-4627-a9a4-f5d099914e06"
                  },
                  {
                    "reference": "urn:uuid:e332933e-601e-42f5-bef9-16aac0473d05"
                  },
                  {
                    "reference": "urn:uuid:f0494788-f7f1-406d-9b6e-daff72cc345b"
                  },
                  {
                    "reference": "urn:uuid:871ef3a4-1b48-4dd2-afae-d403bdb49ac6"
                  },
                  {
                    "reference": "urn:uuid:f7313600-42d8-4e37-bdda-2d384743205a"
                  },
                  {
                    "reference": "urn:uuid:8141b206-0781-409a-8b8a-38d4c82fb9e5"
                  }
                ],
                "text": {
                  "status": "generated",
                  "div": "<div xmlns=\"http://www.w3.org/1999/xhtml\"><h3>Urinalysis</h3><table class=\"hl7__eu__lab__report\"><thead><tr><th>Test</th><th>22-AUG-2017</th><th>Reference&#xA0;Range</th><th>Unit</th></tr></thead><tbody><tr><td>Glucose [Mass/volume] in Urine by Test strip</td><td><strong>1.0 H</strong></td><td>0.8 - 0</td><td>mg/dL</td></tr><tr><td>Glucose [Presence] in Urine by Test strip</td><td>++</td><td></td><td></td></tr><tr><td>Bilirubin.total [Mass/volume] in Urine by Test strip</td><td>0.5</td><td>0 - 1</td><td>mg/dL</td></tr><tr><td>Bilirubin.total [Presence] in Urine by Test strip</td><td>Finding of bilirubin in urine</td><td></td><td></td></tr><tr><td>Ketones [Mass/volume] in Urine by Test strip</td><td>2.9</td><td>0 - 4</td><td>mg/dL</td></tr><tr><td>Specific gravity of Urine by Test strip</td><td><strong>1.0 L</strong></td><td>1.005 - 1.03</td><td>{nominal}</td></tr><tr><td>pH of Urine by Test strip</td><td>5.5</td><td>4.6 - 7</td><td>pH</td></tr><tr><td>Protein [Mass/volume] in Urine by Test strip</td><td><strong>183.0 H</strong></td><td>0 - 14</td><td>mg/dL</td></tr><tr><td>Protein [Presence] in Urine by Test strip</td><td>Urine protein test = ++</td><td></td><td></td></tr><tr><td>Nitrite [Presence] in Urine by Test strip</td><td>Urine nitrite negative</td><td></td><td></td></tr><tr><td>Hemoglobin [Presence] in Urine by Test strip</td><td>Urine blood test = negative</td><td></td><td></td></tr><tr><td>Leukocyte esterase [Presence] in Urine by Test strip</td><td>Urine leukocyte test negative</td><td></td><td></td></tr></tbody></table></div>"
                },
                "title": "Urinalysis"
              },
              {
                "code": {
                  "coding": [
                    {
                      "code": "$LP7846-1",
                      "system": "http://loinc.org",
                      "display": "Specimen information"
                    }
                  ],
                  "text": "Specimen information"
                },
                "entry": [
                  {
                    "reference": "urn:uuid:9b478596-d2fa-4bd4-8a23-d7857ebfcc67"
                  },
                  {
                    "reference": "urn:uuid:fad24848-1310-4e50-8ee9-42b6a92d76ff"
                  },
                  {
                    "reference": "urn:uuid:054a1d14-51f6-4cd7-b812-e3bea1908e6e"
                  },
                  {
                    "reference": "urn:uuid:c987d454-2475-46d2-a91c-b1d9fc43ade6"
                  }
                ],
                "text": {
                  "status": "generated",
                  "div": "<div xmlns=\"http://www.w3.org/1999/xhtml\"><h3>Specimen information</h3><table class=\"hl7__eu__lab__report\"><thead><tr><th>Test</th><th>22-AUG-2017</th><th>Specimen</th><th></th></tr></thead><tbody><tr><td>Appearance of Urine</td><td>Cloudy urine</td><td>Urine</td><td></td></tr><tr><td>Odor of Urine</td><td>Urine smell ammoniacal</td><td>Urine</td><td></td></tr><tr><td>Clarity of Urine</td><td>Translucent</td><td>Urine</td><td></td></tr><tr><td>Color of Urine</td><td>Brown color</td><td>Urine</td><td></td></tr></tbody></table></div>"
                },
                "title": "Specimen information"
              }
            ],
            "title": "Laboratory Report"
          },
          {
            "text": {
              "status": "generated",
              "div": "<div xmlns=\"http://www.w3.org/1999/xhtml\"><h3>Annotation</h3><table class=\"hl7__eu__lab__report\"><tr><th>Conclusion and Recommendations based on this report and previous findings known to us</th></tr><tr><td>The patient shows elevated serum creatinine, indicating possible renal impairment. Urinalysis reveals significant proteinuria, glucosuria, ketonuria, low specific gravity, and abnormal urine appearance (cloudy, brown, ammoniacal), suggesting renal dysfunction, possibly with tubular involvement. Blood glucose and HbA1c are not elevated, making diabetes less likely. No evidence of urinary tract infection. Recommend further nephrological evaluation and assessment for underlying renal pathology.</td></tr></table></div>"
            },
            "code": {
              "coding": [
                {
                  "system": "http://loinc.org",
                  "code": "48767-8",
                  "display": "Annotation comment"
                }
              ]
            },
            "title": "Annotation comment"
          }
        ],
        "status": "final",
        "subject": {
          "reference": "urn:uuid:5561df60-64e8-4399-b6ca-20d5d92eda25",
          "display": "Meaghan Neary"
        },
        "date": "2017-08-22T00:11:04Z",
        "title": "Laboratory Report",
        "confidentiality": "N"
      }
    },
    {
      "fullUrl": "urn:uuid:58f2b075-3a9e-42af-b480-abbc5a0140e4",
      "resource": {
        "resourceType": "DiagnosticReport",
        "id": "58f2b075-3a9e-42af-b480-abbc5a0140e4",
        "meta": {
          "profile": [
            "http://hl7.eu/fhir/laboratory/StructureDefinition/DiagnosticReport-eu-lab"
          ]
        },
        "identifier": [
          {
            "assigner": {
              "display": "HL7 Europe"
            },
            "system": "urn:oid:2.16.840.1.113883.2.51.999",
            "value": "6b8e8757-696b-4031-98be-7c30f23593ae"
          }
        ],
        "extension": [
          {
            "url": "http://hl7.org/fhir/5.0/StructureDefinition/extension-DiagnosticReport.composition",
            "valueReference": {
              "reference": "urn:uuid:45361120-5f50-4758-9ec9-ff5c6fbb056e"
            }
          }
        ],
        "category": [
          {
            "coding": [
              {
                "code": "26436-6",
                "system": "http://loinc.org",
                "display": "Laboratory studies (set)"
              }
            ]
          }
        ],
        "specimen": [
          {
            "reference": "urn:uuid:08d22d67-1f8d-40e7-9e6d-440680ab5ce5"
          },
          {
            "reference": "urn:uuid:304be379-bdc5-4fc3-99f0-db9cee16b099"
          },
          {
            "reference": "urn:uuid:2d55abc6-2aad-4610-8431-47eaabb1ebad"
          }
        ],
        "result": [
          {
            "reference": "urn:uuid:eef70855-ff7e-4c9d-ab66-9ec461e08492"
          },
          {
            "reference": "urn:uuid:c822b7ee-4ae9-4ea1-acd9-c8997e8294e9"
          },
          {
            "reference": "urn:uuid:371ea3e7-b928-4353-a015-0e1208c1b3fb"
          },
          {
            "reference": "urn:uuid:28bd62ad-10dc-4be9-a918-4fe85a96fa72"
          },
          {
            "reference": "urn:uuid:772b94ca-f4f6-4ca9-bf98-9d76e7bc83f7"
          },
          {
            "reference": "urn:uuid:8ac16cd8-cc46-4796-b814-be01392aba25"
          },
          {
            "reference": "urn:uuid:312efbaf-6a40-4f34-a9ac-6adf782a4c83"
          },
          {
            "reference": "urn:uuid:c4d645d2-e2a0-490b-89eb-f82fca7ab062"
          },
          {
            "reference": "urn:uuid:9b478596-d2fa-4bd4-8a23-d7857ebfcc67"
          },
          {
            "reference": "urn:uuid:fad24848-1310-4e50-8ee9-42b6a92d76ff"
          },
          {
            "reference": "urn:uuid:054a1d14-51f6-4cd7-b812-e3bea1908e6e"
          },
          {
            "reference": "urn:uuid:c987d454-2475-46d2-a91c-b1d9fc43ade6"
          },
          {
            "reference": "urn:uuid:374e18d8-64bf-4d28-8ebe-61ae36b558f1"
          },
          {
            "reference": "urn:uuid:d4b9a337-f7fa-41b2-91f4-9eabd399a147"
          },
          {
            "reference": "urn:uuid:a50b4636-dcf6-40cf-873f-6ab25fa008e6"
          },
          {
            "reference": "urn:uuid:176b7866-46a4-447d-90c8-71fac2c105f5"
          },
          {
            "reference": "urn:uuid:33c3775d-e7db-43c4-9249-92e1399f8d89"
          },
          {
            "reference": "urn:uuid:2e8bb64e-4f74-4542-951e-62a299671ae2"
          },
          {
            "reference": "urn:uuid:3f26bc05-350f-404e-9e74-ee98a41f4b89"
          },
          {
            "reference": "urn:uuid:e77f043a-f210-4627-a9a4-f5d099914e06"
          },
          {
            "reference": "urn:uuid:e332933e-601e-42f5-bef9-16aac0473d05"
          },
          {
            "reference": "urn:uuid:f0494788-f7f1-406d-9b6e-daff72cc345b"
          },
          {
            "reference": "urn:uuid:871ef3a4-1b48-4dd2-afae-d403bdb49ac6"
          },
          {
            "reference": "urn:uuid:f7313600-42d8-4e37-bdda-2d384743205a"
          },
          {
            "reference": "urn:uuid:8141b206-0781-409a-8b8a-38d4c82fb9e5"
          },
          {
            "reference": "urn:uuid:020a9666-9644-4176-9282-acff23f48d2d"
          }
        ],
        "status": "registered",
        "code": {
          "coding": [
            {
              "code": "11502-2",
              "system": "http://loinc.org",
              "display": "Laboratory report"
            }
          ]
        },
        "subject": {
          "reference": "urn:uuid:5561df60-64e8-4399-b6ca-20d5d92eda25",
          "display": "Meaghan Neary"
        }
      }
    },
    {
      "fullUrl": "urn:uuid:5561df60-64e8-4399-b6ca-20d5d92eda25",
      "resource": {
        "resourceType": "Patient",
        "id": "5561df60-64e8-4399-b6ca-20d5d92eda25",
        "meta": {
          "security": [
            {
              "system": "http://terminology.hl7.org/CodeSystem/v3-ActReason",
              "code": "HTEST"
            },
            {
              "system": "http://terminology.hl7.org/CodeSystem/v3-ActReason",
              "code": "TRAIN"
            }
          ],
          "tag": [
            {
              "system": "https://synderai.net/fhir/CodeSystem/tags",
              "code": "synthetic",
              "display": "SYNDERAI Synthetic data"
            }
          ],
          "profile": [
            "http://hl7.eu/fhir/base/StructureDefinition/patient-eu-core"
          ]
        },
        "identifier": [
          {
            "type": {
              "coding": [
                {
                  "code": "PT",
                  "system": "http://terminology.hl7.org/CodeSystem/v2-0203"
                }
              ]
            },
            "system": "http://ec.europa.eu/identifier/eci",
            "value": "1586-567257-8"
          },
          {
            "type": {
              "coding": [
                {
                  "code": "MR",
                  "system": "http://terminology.hl7.org/CodeSystem/v2-0203"
                }
              ]
            },
            "system": "http://local.setting.eu/identifier",
            "value": "443e6379-f231-b364-3ccb-644740a1aa2a"
          }
        ],
        "name": [
          {
            "family": "Neary"
          },
          {
            "given": [
              "Meaghan"
            ]
          },
          {
            "text": "Meaghan Neary"
          }
        ],
        "address": [
          {
            "line": [
              "64 Linskey Street"
            ],
            "use": "home",
            "type": "physical",
            "postalCode": "D02",
            "city": "Dublin",
            "country": "Ireland"
          }
        ],
        "telecom": [
          {
            "system": "phone",
            "value": "001-967-573-0911x465"
          }
        ],
        "extension": [
          {
            "url": "http://hl7.org/fhir/StructureDefinition/patient-nationality",
            "valueCodeableConcept": {
              "coding": [
                {
                  "code": "IE",
                  "system": "http://hl7.org/fhir/ValueSet/country"
                }
              ]
            }
          }
        ],
        "text": {
          "status": "generated",
          "div": "<div xmlns=\"http://www.w3.org/1999/xhtml\"><table class=\"hl7__ips\"><tr><td>Meaghan Neary</td><td>female</td><td>19-Dec-1960</td></tr></table></div>"
        },
        "gender": "female",
        "birthDate": "1960-12-19"
      }
    },
    {
      "fullUrl": "urn:uuid:ad516b5f-5a2b-45dc-8179-ee05064e92e5",
      "resource": {
        "resourceType": "ServiceRequest",
        "id": "ad516b5f-5a2b-45dc-8179-ee05064e92e5",
        "meta": {
          "profile": [
            "http://hl7.eu/fhir/laboratory/StructureDefinition/ServiceRequest-eu-lab"
          ]
        },
        "identifier": [
          {
            "system": "http://example.org",
            "value": "13e66566-2a9b-4725-aebb-d7b9fa0a0c6c"
          }
        ],
        "specimen": [
          {
            "reference": "urn:uuid:08d22d67-1f8d-40e7-9e6d-440680ab5ce5"
          },
          {
            "reference": "urn:uuid:304be379-bdc5-4fc3-99f0-db9cee16b099"
          },
          {
            "reference": "urn:uuid:2d55abc6-2aad-4610-8431-47eaabb1ebad"
          }
        ],
        "reasonCode": [
          {
            "coding": [
              {
                "code": "55822004",
                "system": "http://snomed.info/sct",
                "display": "Hyperlipidemia"
              }
            ]
          },
          {
            "coding": [
              {
                "code": "433144002",
                "system": "http://snomed.info/sct",
                "display": "Chronic kidney disease stage 3"
              }
            ]
          },
          {
            "coding": [
              {
                "code": "157141000119108",
                "system": "http://snomed.info/sct",
                "display": "Proteinuria due to type 2 diabetes mellitus"
              }
            ]
          },
          {
            "coding": [
              {
                "code": "431856006",
                "system": "http://snomed.info/sct",
                "display": "Chronic kidney disease stage 2"
              }
            ]
          },
          {
            "coding": [
              {
                "code": "90781000119102",
                "system": "http://snomed.info/sct",
                "display": "Microalbuminuria due to type 2 diabetes mellitus"
              }
            ]
          },
          {
            "coding": [
              {
                "code": "127013003",
                "system": "http://snomed.info/sct",
                "display": "Disorder of kidney due to diabetes mellitus"
              }
            ]
          },
          {
            "coding": [
              {
                "code": "431855005",
                "system": "http://snomed.info/sct",
                "display": "Chronic kidney disease stage 1"
              }
            ]
          },
          {
            "coding": [
              {
                "code": "237602007",
                "system": "http://snomed.info/sct",
                "display": "Metabolic syndrome X"
              }
            ]
          },
          {
            "coding": [
              {
                "code": "271737000",
                "system": "http://snomed.info/sct",
                "display": "Anemia"
              }
            ]
          },
          {
            "coding": [
              {
                "code": "15777000",
                "system": "http://snomed.info/sct",
                "display": "Prediabetes"
              }
            ]
          },
          {
            "coding": [
              {
                "code": "59621000",
                "system": "http://snomed.info/sct",
                "display": "Essential hypertension"
              }
            ]
          }
        ],
        "status": "active",
        "intent": "order",
        "code": {
          "coding": [
            {
              "code": "108252007",
              "system": "http://snomed.info/sct",
              "display": "Laboratory procedure"
            }
          ]
        },
        "subject": {
          "reference": "urn:uuid:5561df60-64e8-4399-b6ca-20d5d92eda25",
          "display": "Meaghan Neary"
        },
        "requester": {
          "reference": "urn:uuid:f3557730-cae2-44ba-92d4-7c7aabb33ab1"
        }
      }
    },
    {
      "fullUrl": "urn:uuid:f3557730-cae2-44ba-92d4-7c7aabb33ab1",
      "resource": {
        "resourceType": "PractitionerRole",
        "id": "f3557730-cae2-44ba-92d4-7c7aabb33ab1",
        "meta": {
          "profile": [
            "http://hl7.eu/fhir/base/StructureDefinition/practitionerRole-eu"
          ]
        },
        "text": {
          "status": "generated",
          "div": "<div xmlns=\"http://www.w3.org/1999/xhtml\">Provider Role Id: f3557730-cae2-44ba-92d4-7c7aabb33ab1</div>"
        },
        "organization": {
          "reference": "urn:uuid:520a1884-4a2a-491d-abd4-f25e774f98bc"
        }
      }
    },
    {
      "fullUrl": "urn:uuid:520a1884-4a2a-491d-abd4-f25e774f98bc",
      "resource": {
        "resourceType": "Organization",
        "id": "520a1884-4a2a-491d-abd4-f25e774f98bc",
        "meta": {
          "profile": [
            "http://hl7.eu/fhir/base/StructureDefinition/organization-eu"
          ]
        },
        "identifier": [
          {
            "assigner": {
              "display": "HL7 Europe"
            },
            "system": "urn:oid:2.16.840.1.113883.2.51.999",
            "value": "ca2bf16c-3f18-451c-9159-698737c47cf6"
          }
        ],
        "address": [
          {
            "line": [
              "Parnell Square West nan"
            ],
            "city": "Dublin",
            "postalCode": "D01",
            "country": "Ireland"
          }
        ],
        "text": {
          "status": "generated",
          "div": "<div xmlns=\"http://www.w3.org/1999/xhtml\">Provider Organization: Rotunda Hospital</div>"
        },
        "name": "Rotunda Hospital"
      }
    },
    {
      "fullUrl": "urn:uuid:08d22d67-1f8d-40e7-9e6d-440680ab5ce5",
      "resource": {
        "resourceType": "Specimen",
        "id": "08d22d67-1f8d-40e7-9e6d-440680ab5ce5",
        "meta": {
          "profile": [
            "http://hl7.eu/fhir/laboratory/StructureDefinition/Specimen-eu-lab"
          ]
        },
        "collection": {
          "collectedDateTime": "2017-08-21"
        },
        "text": {
          "status": "generated",
          "div": "<div xmlns=\"http://www.w3.org/1999/xhtml\"><table class=\"hl7__eu__lab__report\"><tr><th>Specimen</th><th>Collection Date</th></tr><tr><td>Acellular blood (serum or plasma) specimen</td><td><span class=\"nb\">21-Aug-2017</span></td></tr></table></div>"
        },
        "type": {
          "coding": [
            {
              "code": "122592007",
              "system": "http://snomed.info/sct",
              "display": "Acellular blood (serum or plasma) specimen"
            }
          ]
        }
      }
    },
    {
      "fullUrl": "urn:uuid:304be379-bdc5-4fc3-99f0-db9cee16b099",
      "resource": {
        "resourceType": "Specimen",
        "id": "304be379-bdc5-4fc3-99f0-db9cee16b099",
        "meta": {
          "profile": [
            "http://hl7.eu/fhir/laboratory/StructureDefinition/Specimen-eu-lab"
          ]
        },
        "collection": {
          "collectedDateTime": "2017-08-21"
        },
        "text": {
          "status": "generated",
          "div": "<div xmlns=\"http://www.w3.org/1999/xhtml\"><table class=\"hl7__eu__lab__report\"><tr><th>Specimen</th><th>Collection Date</th></tr><tr><td>Urine specimen</td><td><span class=\"nb\">21-Aug-2017</span></td></tr></table></div>"
        },
        "type": {
          "coding": [
            {
              "code": "122575003",
              "system": "http://snomed.info/sct",
              "display": "Urine specimen"
            }
          ]
        }
      }
    },
    {
      "fullUrl": "urn:uuid:2d55abc6-2aad-4610-8431-47eaabb1ebad",
      "resource": {
        "resourceType": "Specimen",
        "id": "2d55abc6-2aad-4610-8431-47eaabb1ebad",
        "meta": {
          "profile": [
            "http://hl7.eu/fhir/laboratory/StructureDefinition/Specimen-eu-lab"
          ]
        },
        "collection": {
          "collectedDateTime": "2017-08-21"
        },
        "text": {
          "status": "generated",
          "div": "<div xmlns=\"http://www.w3.org/1999/xhtml\"><table class=\"hl7__eu__lab__report\"><tr><th>Specimen</th><th>Collection Date</th></tr><tr><td>Whole blood specimen (specimen)</td><td><span class=\"nb\">21-Aug-2017</span></td></tr></table></div>"
        },
        "type": {
          "coding": [
            {
              "code": "258580003",
              "system": "http://snomed.info/sct",
              "display": "Whole blood specimen (specimen)"
            }
          ]
        }
      }
    },
    {
      "fullUrl": "urn:uuid:eef70855-ff7e-4c9d-ab66-9ec461e08492",
      "resource": {
        "resourceType": "Observation",
        "id": "eef70855-ff7e-4c9d-ab66-9ec461e08492",
        "meta": {
          "profile": [
            "http://hl7.eu/fhir/laboratory/StructureDefinition/Observation-resultslab-eu-lab"
          ]
        },
        "performer": [
          {
            "display": "The Central European Lab"
          }
        ],
        "category": [
          {
            "coding": [
              {
                "system": "http://terminology.hl7.org/CodeSystem/observation-category",
                "code": "laboratory"
              }
            ]
          }
        ],
        "code": {
          "coding": [
            {
              "code": "2345-7",
              "system": "http://loinc.org",
              "display": "Glucose [Mass/volume] in Serum or Plasma"
            }
          ],
          "text": "Glucose [Mass/volume] in Serum or Plasma"
        },
        "valueQuantity": {
          "system": "http://unitsofmeasure.org",
          "value": 79.6,
          "unit": "mg/dL",
          "code": "mg/dL"
        },
        "referenceRange": [
          {
            "low": {
              "value": 70,
              "code": "mg/dL",
              "system": "http://unitsofmeasure.org"
            }
          },
          {
            "high": {
              "value": 99,
              "code": "mg/dL",
              "system": "http://unitsofmeasure.org"
            }
          }
        ],
        "text": {
          "status": "generated",
          "div": "<div xmlns=\"http://www.w3.org/1999/xhtml\"><table class=\"hl7__eu__lab__report\"><tr><th>Test</th><th>22-Aug-2017</th><th>Reference&#xA0;Range</th><th>Unit</th></tr><tr><td>Glucose [Mass/volume] in Serum or Plasma</td><td>79.6</td><td>70 - 99</td><td></td><td>mg/dL</td></tr></table></div>"
        },
        "status": "final",
        "subject": {
          "reference": "urn:uuid:5561df60-64e8-4399-b6ca-20d5d92eda25",
          "display": "Meaghan Neary"
        },
        "effectiveDateTime": "2017-08-21T22:11:04Z",
        "specimen": {
          "reference": "urn:uuid:08d22d67-1f8d-40e7-9e6d-440680ab5ce5"
        }
      }
    },
    {
      "fullUrl": "urn:uuid:c822b7ee-4ae9-4ea1-acd9-c8997e8294e9",
      "resource": {
        "resourceType": "Observation",
        "id": "c822b7ee-4ae9-4ea1-acd9-c8997e8294e9",
        "meta": {
          "profile": [
            "http://hl7.eu/fhir/laboratory/StructureDefinition/Observation-resultslab-eu-lab"
          ]
        },
        "performer": [
          {
            "display": "The Central European Lab"
          }
        ],
        "category": [
          {
            "coding": [
              {
                "system": "http://terminology.hl7.org/CodeSystem/observation-category",
                "code": "laboratory"
              }
            ]
          }
        ],
        "code": {
          "coding": [
            {
              "code": "3094-0",
              "system": "http://loinc.org",
              "display": "Urea nitrogen [Mass/volume] in Serum or Plasma"
            }
          ],
          "text": "Urea nitrogen [Mass/volume] in Serum or Plasma"
        },
        "valueQuantity": {
          "system": "http://unitsofmeasure.org",
          "value": 11.4,
          "unit": "mg/dL",
          "code": "mg/dL"
        },
        "referenceRange": [
          {
            "low": {
              "value": 7,
              "code": "mg/dL",
              "system": "http://unitsofmeasure.org"
            }
          },
          {
            "high": {
              "value": 50,
              "code": "mg/dL",
              "system": "http://unitsofmeasure.org"
            }
          }
        ],
        "text": {
          "status": "generated",
          "div": "<div xmlns=\"http://www.w3.org/1999/xhtml\"><table class=\"hl7__eu__lab__report\"><tr><th>Test</th><th>22-Aug-2017</th><th>Reference&#xA0;Range</th><th>Unit</th></tr><tr><td>Urea nitrogen [Mass/volume] in Serum or Plasma</td><td>11.4</td><td>7 - 50</td><td></td><td>mg/dL</td></tr></table></div>"
        },
        "status": "final",
        "subject": {
          "reference": "urn:uuid:5561df60-64e8-4399-b6ca-20d5d92eda25",
          "display": "Meaghan Neary"
        },
        "effectiveDateTime": "2017-08-21T22:11:04Z",
        "specimen": {
          "reference": "urn:uuid:08d22d67-1f8d-40e7-9e6d-440680ab5ce5"
        }
      }
    },
    {
      "fullUrl": "urn:uuid:371ea3e7-b928-4353-a015-0e1208c1b3fb",
      "resource": {
        "resourceType": "Observation",
        "id": "371ea3e7-b928-4353-a015-0e1208c1b3fb",
        "meta": {
          "profile": [
            "http://hl7.eu/fhir/laboratory/StructureDefinition/Observation-resultslab-eu-lab"
          ]
        },
        "performer": [
          {
            "display": "The Central European Lab"
          }
        ],
        "category": [
          {
            "coding": [
              {
                "system": "http://terminology.hl7.org/CodeSystem/observation-category",
                "code": "laboratory"
              }
            ]
          }
        ],
        "code": {
          "coding": [
            {
              "code": "2160-0",
              "system": "http://loinc.org",
              "display": "Creatinine [Mass/volume] in Serum or Plasma"
            }
          ],
          "text": "Creatinine [Mass/volume] in Serum or Plasma"
        },
        "valueQuantity": {
          "system": "http://unitsofmeasure.org",
          "value": 1.8,
          "unit": "mg/dL",
          "code": "mg/dL"
        },
        "referenceRange": [
          {
            "low": {
              "value": 0.6,
              "code": "mg/dL",
              "system": "http://unitsofmeasure.org"
            }
          },
          {
            "high": {
              "value": 1.1,
              "code": "mg/dL",
              "system": "http://unitsofmeasure.org"
            }
          }
        ],
        "interpretation": [
          {
            "coding": [
              {
                "code": "H",
                "system": "http://terminology.hl7.org/CodeSystem/v3-ObservationInterpretation",
                "display": "High"
              }
            ]
          }
        ],
        "text": {
          "status": "generated",
          "div": "<div xmlns=\"http://www.w3.org/1999/xhtml\"><table class=\"hl7__eu__lab__report\"><tr><th>Test</th><th>22-Aug-2017</th><th>Reference&#xA0;Range</th><th>Unit</th></tr><tr><td>Creatinine [Mass/volume] in Serum or Plasma</td><td>1.8</td><td>0.6 - 1.1</td><td>H</td><td>mg/dL</td></tr></table></div>"
        },
        "status": "final",
        "subject": {
          "reference": "urn:uuid:5561df60-64e8-4399-b6ca-20d5d92eda25",
          "display": "Meaghan Neary"
        },
        "effectiveDateTime": "2017-08-21T22:11:04Z",
        "specimen": {
          "reference": "urn:uuid:08d22d67-1f8d-40e7-9e6d-440680ab5ce5"
        }
      }
    },
    {
      "fullUrl": "urn:uuid:28bd62ad-10dc-4be9-a918-4fe85a96fa72",
      "resource": {
        "resourceType": "Observation",
        "id": "28bd62ad-10dc-4be9-a918-4fe85a96fa72",
        "meta": {
          "profile": [
            "http://hl7.eu/fhir/laboratory/StructureDefinition/Observation-resultslab-eu-lab"
          ]
        },
        "performer": [
          {
            "display": "The Central European Lab"
          }
        ],
        "category": [
          {
            "coding": [
              {
                "system": "http://terminology.hl7.org/CodeSystem/observation-category",
                "code": "laboratory"
              }
            ]
          }
        ],
        "code": {
          "coding": [
            {
              "code": "17861-6",
              "system": "http://loinc.org",
              "display": "Calcium [Mass/volume] in Serum or Plasma"
            }
          ],
          "text": "Calcium [Mass/volume] in Serum or Plasma"
        },
        "valueQuantity": {
          "system": "http://unitsofmeasure.org",
          "value": 9.7,
          "unit": "mg/dL",
          "code": "mg/dL"
        },
        "referenceRange": [
          {
            "low": {
              "value": 8.6,
              "code": "mg/dL",
              "system": "http://unitsofmeasure.org"
            }
          },
          {
            "high": {
              "value": 10.4,
              "code": "mg/dL",
              "system": "http://unitsofmeasure.org"
            }
          }
        ],
        "text": {
          "status": "generated",
          "div": "<div xmlns=\"http://www.w3.org/1999/xhtml\"><table class=\"hl7__eu__lab__report\"><tr><th>Test</th><th>22-Aug-2017</th><th>Reference&#xA0;Range</th><th>Unit</th></tr><tr><td>Calcium [Mass/volume] in Serum or Plasma</td><td>9.7</td><td>8.6 - 10.4</td><td></td><td>mg/dL</td></tr></table></div>"
        },
        "status": "final",
        "subject": {
          "reference": "urn:uuid:5561df60-64e8-4399-b6ca-20d5d92eda25",
          "display": "Meaghan Neary"
        },
        "effectiveDateTime": "2017-08-21T22:11:04Z",
        "specimen": {
          "reference": "urn:uuid:08d22d67-1f8d-40e7-9e6d-440680ab5ce5"
        }
      }
    },
    {
      "fullUrl": "urn:uuid:772b94ca-f4f6-4ca9-bf98-9d76e7bc83f7",
      "resource": {
        "resourceType": "Observation",
        "id": "772b94ca-f4f6-4ca9-bf98-9d76e7bc83f7",
        "meta": {
          "profile": [
            "http://hl7.eu/fhir/laboratory/StructureDefinition/Observation-resultslab-eu-lab"
          ]
        },
        "performer": [
          {
            "display": "The Central European Lab"
          }
        ],
        "category": [
          {
            "coding": [
              {
                "system": "http://terminology.hl7.org/CodeSystem/observation-category",
                "code": "laboratory"
              }
            ]
          }
        ],
        "code": {
          "coding": [
            {
              "code": "2951-2",
              "system": "http://loinc.org",
              "display": "Sodium [Moles/volume] in Serum or Plasma"
            }
          ],
          "text": "Sodium [Moles/volume] in Serum or Plasma"
        },
        "valueQuantity": {
          "system": "http://unitsofmeasure.org",
          "value": 140.4,
          "unit": "mmol/L",
          "code": "mmol/L"
        },
        "referenceRange": [
          {
            "low": {
              "value": 135,
              "code": "mmol/L",
              "system": "http://unitsofmeasure.org"
            }
          },
          {
            "high": {
              "value": 145,
              "code": "mmol/L",
              "system": "http://unitsofmeasure.org"
            }
          }
        ],
        "text": {
          "status": "generated",
          "div": "<div xmlns=\"http://www.w3.org/1999/xhtml\"><table class=\"hl7__eu__lab__report\"><tr><th>Test</th><th>22-Aug-2017</th><th>Reference&#xA0;Range</th><th>Unit</th></tr><tr><td>Sodium [Moles/volume] in Serum or Plasma</td><td>140.4</td><td>135 - 145</td><td></td><td>mmol/L</td></tr></table></div>"
        },
        "status": "final",
        "subject": {
          "reference": "urn:uuid:5561df60-64e8-4399-b6ca-20d5d92eda25",
          "display": "Meaghan Neary"
        },
        "effectiveDateTime": "2017-08-21T22:11:04Z",
        "specimen": {
          "reference": "urn:uuid:08d22d67-1f8d-40e7-9e6d-440680ab5ce5"
        }
      }
    },
    {
      "fullUrl": "urn:uuid:8ac16cd8-cc46-4796-b814-be01392aba25",
      "resource": {
        "resourceType": "Observation",
        "id": "8ac16cd8-cc46-4796-b814-be01392aba25",
        "meta": {
          "profile": [
            "http://hl7.eu/fhir/laboratory/StructureDefinition/Observation-resultslab-eu-lab"
          ]
        },
        "performer": [
          {
            "display": "The Central European Lab"
          }
        ],
        "category": [
          {
            "coding": [
              {
                "system": "http://terminology.hl7.org/CodeSystem/observation-category",
                "code": "laboratory"
              }
            ]
          }
        ],
        "code": {
          "coding": [
            {
              "code": "2823-3",
              "system": "http://loinc.org",
              "display": "Potassium [Moles/volume] in Serum or Plasma"
            }
          ],
          "text": "Potassium [Moles/volume] in Serum or Plasma"
        },
        "valueQuantity": {
          "system": "http://unitsofmeasure.org",
          "value": 5,
          "unit": "mmol/L",
          "code": "mmol/L"
        },
        "referenceRange": [
          {
            "low": {
              "value": 3.5,
              "code": "mmol/L",
              "system": "http://unitsofmeasure.org"
            }
          },
          {
            "high": {
              "value": 5.1,
              "code": "mmol/L",
              "system": "http://unitsofmeasure.org"
            }
          }
        ],
        "text": {
          "status": "generated",
          "div": "<div xmlns=\"http://www.w3.org/1999/xhtml\"><table class=\"hl7__eu__lab__report\"><tr><th>Test</th><th>22-Aug-2017</th><th>Reference&#xA0;Range</th><th>Unit</th></tr><tr><td>Potassium [Moles/volume] in Serum or Plasma</td><td>5.0</td><td>3.5 - 5.1</td><td></td><td>mmol/L</td></tr></table></div>"
        },
        "status": "final",
        "subject": {
          "reference": "urn:uuid:5561df60-64e8-4399-b6ca-20d5d92eda25",
          "display": "Meaghan Neary"
        },
        "effectiveDateTime": "2017-08-21T22:11:04Z",
        "specimen": {
          "reference": "urn:uuid:08d22d67-1f8d-40e7-9e6d-440680ab5ce5"
        }
      }
    },
    {
      "fullUrl": "urn:uuid:312efbaf-6a40-4f34-a9ac-6adf782a4c83",
      "resource": {
        "resourceType": "Observation",
        "id": "312efbaf-6a40-4f34-a9ac-6adf782a4c83",
        "meta": {
          "profile": [
            "http://hl7.eu/fhir/laboratory/StructureDefinition/Observation-resultslab-eu-lab"
          ]
        },
        "performer": [
          {
            "display": "The Central European Lab"
          }
        ],
        "category": [
          {
            "coding": [
              {
                "system": "http://terminology.hl7.org/CodeSystem/observation-category",
                "code": "laboratory"
              }
            ]
          }
        ],
        "code": {
          "coding": [
            {
              "code": "2075-0",
              "system": "http://loinc.org",
              "display": "Chloride [Moles/volume] in Serum or Plasma"
            }
          ],
          "text": "Chloride [Moles/volume] in Serum or Plasma"
        },
        "valueQuantity": {
          "system": "http://unitsofmeasure.org",
          "value": 107.3,
          "unit": "mmol/L",
          "code": "mmol/L"
        },
        "referenceRange": [
          {
            "low": {
              "value": 98,
              "code": "mmol/L",
              "system": "http://unitsofmeasure.org"
            }
          },
          {
            "high": {
              "value": 108,
              "code": "mmol/L",
              "system": "http://unitsofmeasure.org"
            }
          }
        ],
        "text": {
          "status": "generated",
          "div": "<div xmlns=\"http://www.w3.org/1999/xhtml\"><table class=\"hl7__eu__lab__report\"><tr><th>Test</th><th>22-Aug-2017</th><th>Reference&#xA0;Range</th><th>Unit</th></tr><tr><td>Chloride [Moles/volume] in Serum or Plasma</td><td>107.3</td><td>98 - 108</td><td></td><td>mmol/L</td></tr></table></div>"
        },
        "status": "final",
        "subject": {
          "reference": "urn:uuid:5561df60-64e8-4399-b6ca-20d5d92eda25",
          "display": "Meaghan Neary"
        },
        "effectiveDateTime": "2017-08-21T22:11:04Z",
        "specimen": {
          "reference": "urn:uuid:08d22d67-1f8d-40e7-9e6d-440680ab5ce5"
        }
      }
    },
    {
      "fullUrl": "urn:uuid:c4d645d2-e2a0-490b-89eb-f82fca7ab062",
      "resource": {
        "resourceType": "Observation",
        "id": "c4d645d2-e2a0-490b-89eb-f82fca7ab062",
        "meta": {
          "profile": [
            "http://hl7.eu/fhir/laboratory/StructureDefinition/Observation-resultslab-eu-lab"
          ]
        },
        "performer": [
          {
            "display": "The Central European Lab"
          }
        ],
        "category": [
          {
            "coding": [
              {
                "system": "http://terminology.hl7.org/CodeSystem/observation-category",
                "code": "laboratory"
              }
            ]
          }
        ],
        "code": {
          "coding": [
            {
              "code": "2028-9",
              "system": "http://loinc.org",
              "display": "Carbon dioxide, total [Moles/volume] in Serum or Plasma"
            }
          ],
          "text": "Carbon dioxide, total [Moles/volume] in Serum or Plasma"
        },
        "valueQuantity": {
          "system": "http://unitsofmeasure.org",
          "value": 28.2,
          "unit": "mmol/L",
          "code": "mmol/L"
        },
        "referenceRange": [
          {
            "low": {
              "value": 22,
              "code": "mmol/L",
              "system": "http://unitsofmeasure.org"
            }
          },
          {
            "high": {
              "value": 32,
              "code": "mmol/L",
              "system": "http://unitsofmeasure.org"
            }
          }
        ],
        "text": {
          "status": "generated",
          "div": "<div xmlns=\"http://www.w3.org/1999/xhtml\"><table class=\"hl7__eu__lab__report\"><tr><th>Test</th><th>22-Aug-2017</th><th>Reference&#xA0;Range</th><th>Unit</th></tr><tr><td>Carbon dioxide, total [Moles/volume] in Serum or Plasma</td><td>28.2</td><td>22 - 32</td><td></td><td>mmol/L</td></tr></table></div>"
        },
        "status": "final",
        "subject": {
          "reference": "urn:uuid:5561df60-64e8-4399-b6ca-20d5d92eda25",
          "display": "Meaghan Neary"
        },
        "effectiveDateTime": "2017-08-21T22:11:04Z",
        "specimen": {
          "reference": "urn:uuid:08d22d67-1f8d-40e7-9e6d-440680ab5ce5"
        }
      }
    },
    {
      "fullUrl": "urn:uuid:9b478596-d2fa-4bd4-8a23-d7857ebfcc67",
      "resource": {
        "resourceType": "Observation",
        "id": "9b478596-d2fa-4bd4-8a23-d7857ebfcc67",
        "meta": {
          "profile": [
            "http://hl7.eu/fhir/laboratory/StructureDefinition/Observation-resultslab-eu-lab"
          ]
        },
        "performer": [
          {
            "display": "The Central European Lab"
          }
        ],
        "category": [
          {
            "coding": [
              {
                "system": "http://terminology.hl7.org/CodeSystem/observation-category",
                "code": "laboratory"
              }
            ]
          }
        ],
        "code": {
          "coding": [
            {
              "code": "5767-9",
              "system": "http://loinc.org",
              "display": "Appearance of Urine"
            }
          ],
          "text": "Appearance of Urine"
        },
        "text": {
          "status": "generated",
          "div": "<div xmlns=\"http://www.w3.org/1999/xhtml\"><table class=\"hl7__eu__lab__report\"><tr><th>Test</th><th>22-Aug-2017</th><th>Reference&#xA0;Range</th><th>Unit</th></tr><tr><td>Appearance of Urine</td></tr></table></div>"
        },
        "status": "final",
        "subject": {
          "reference": "urn:uuid:5561df60-64e8-4399-b6ca-20d5d92eda25",
          "display": "Meaghan Neary"
        },
        "effectiveDateTime": "2017-08-21T22:11:04Z",
        "specimen": {
          "reference": "urn:uuid:304be379-bdc5-4fc3-99f0-db9cee16b099"
        }
      }
    },
    {
      "fullUrl": "urn:uuid:fad24848-1310-4e50-8ee9-42b6a92d76ff",
      "resource": {
        "resourceType": "Observation",
        "id": "fad24848-1310-4e50-8ee9-42b6a92d76ff",
        "meta": {
          "profile": [
            "http://hl7.eu/fhir/laboratory/StructureDefinition/Observation-resultslab-eu-lab"
          ]
        },
        "performer": [
          {
            "display": "The Central European Lab"
          }
        ],
        "category": [
          {
            "coding": [
              {
                "system": "http://terminology.hl7.org/CodeSystem/observation-category",
                "code": "laboratory"
              }
            ]
          }
        ],
        "code": {
          "coding": [
            {
              "code": "34533-0",
              "system": "http://loinc.org",
              "display": "Odor of Urine"
            }
          ],
          "text": "Odor of Urine"
        },
        "text": {
          "status": "generated",
          "div": "<div xmlns=\"http://www.w3.org/1999/xhtml\"><table class=\"hl7__eu__lab__report\"><tr><th>Test</th><th>22-Aug-2017</th><th>Reference&#xA0;Range</th><th>Unit</th></tr><tr><td>Odor of Urine</td></tr></table></div>"
        },
        "status": "final",
        "subject": {
          "reference": "urn:uuid:5561df60-64e8-4399-b6ca-20d5d92eda25",
          "display": "Meaghan Neary"
        },
        "effectiveDateTime": "2017-08-21T22:11:04Z",
        "specimen": {
          "reference": "urn:uuid:304be379-bdc5-4fc3-99f0-db9cee16b099"
        }
      }
    },
    {
      "fullUrl": "urn:uuid:054a1d14-51f6-4cd7-b812-e3bea1908e6e",
      "resource": {
        "resourceType": "Observation",
        "id": "054a1d14-51f6-4cd7-b812-e3bea1908e6e",
        "meta": {
          "profile": [
            "http://hl7.eu/fhir/laboratory/StructureDefinition/Observation-resultslab-eu-lab"
          ]
        },
        "performer": [
          {
            "display": "The Central European Lab"
          }
        ],
        "category": [
          {
            "coding": [
              {
                "system": "http://terminology.hl7.org/CodeSystem/observation-category",
                "code": "laboratory"
              }
            ]
          }
        ],
        "code": {
          "coding": [
            {
              "code": "32167-9",
              "system": "http://loinc.org",
              "display": "Clarity of Urine"
            }
          ],
          "text": "Clarity of Urine"
        },
        "text": {
          "status": "generated",
          "div": "<div xmlns=\"http://www.w3.org/1999/xhtml\"><table class=\"hl7__eu__lab__report\"><tr><th>Test</th><th>22-Aug-2017</th><th>Reference&#xA0;Range</th><th>Unit</th></tr><tr><td>Clarity of Urine</td></tr></table></div>"
        },
        "status": "final",
        "subject": {
          "reference": "urn:uuid:5561df60-64e8-4399-b6ca-20d5d92eda25",
          "display": "Meaghan Neary"
        },
        "effectiveDateTime": "2017-08-21T22:11:04Z",
        "specimen": {
          "reference": "urn:uuid:304be379-bdc5-4fc3-99f0-db9cee16b099"
        }
      }
    },
    {
      "fullUrl": "urn:uuid:c987d454-2475-46d2-a91c-b1d9fc43ade6",
      "resource": {
        "resourceType": "Observation",
        "id": "c987d454-2475-46d2-a91c-b1d9fc43ade6",
        "meta": {
          "profile": [
            "http://hl7.eu/fhir/laboratory/StructureDefinition/Observation-resultslab-eu-lab"
          ]
        },
        "performer": [
          {
            "display": "The Central European Lab"
          }
        ],
        "category": [
          {
            "coding": [
              {
                "system": "http://terminology.hl7.org/CodeSystem/observation-category",
                "code": "laboratory"
              }
            ]
          }
        ],
        "code": {
          "coding": [
            {
              "code": "5778-6",
              "system": "http://loinc.org",
              "display": "Color of Urine"
            }
          ],
          "text": "Color of Urine"
        },
        "text": {
          "status": "generated",
          "div": "<div xmlns=\"http://www.w3.org/1999/xhtml\"><table class=\"hl7__eu__lab__report\"><tr><th>Test</th><th>22-Aug-2017</th><th>Reference&#xA0;Range</th><th>Unit</th></tr><tr><td>Color of Urine</td></tr></table></div>"
        },
        "status": "final",
        "subject": {
          "reference": "urn:uuid:5561df60-64e8-4399-b6ca-20d5d92eda25",
          "display": "Meaghan Neary"
        },
        "effectiveDateTime": "2017-08-21T22:11:04Z",
        "specimen": {
          "reference": "urn:uuid:304be379-bdc5-4fc3-99f0-db9cee16b099"
        }
      }
    },
    {
      "fullUrl": "urn:uuid:374e18d8-64bf-4d28-8ebe-61ae36b558f1",
      "resource": {
        "resourceType": "Observation",
        "id": "374e18d8-64bf-4d28-8ebe-61ae36b558f1",
        "meta": {
          "profile": [
            "http://hl7.eu/fhir/laboratory/StructureDefinition/Observation-resultslab-eu-lab"
          ]
        },
        "performer": [
          {
            "display": "The Central European Lab"
          }
        ],
        "category": [
          {
            "coding": [
              {
                "system": "http://terminology.hl7.org/CodeSystem/observation-category",
                "code": "laboratory"
              }
            ]
          }
        ],
        "code": {
          "coding": [
            {
              "code": "5792-7",
              "system": "http://loinc.org",
              "display": "Glucose [Mass/volume] in Urine by Test strip"
            }
          ],
          "text": "Glucose [Mass/volume] in Urine by Test strip"
        },
        "valueQuantity": {
          "system": "http://unitsofmeasure.org",
          "value": 1,
          "unit": "mg/dL",
          "code": "mg/dL"
        },
        "referenceRange": [
          {
            "low": {
              "value": 0.8,
              "code": "mg/dL",
              "system": "http://unitsofmeasure.org"
            }
          },
          {
            "high": {
              "value": 0,
              "code": "mg/dL",
              "system": "http://unitsofmeasure.org"
            }
          }
        ],
        "interpretation": [
          {
            "coding": [
              {
                "code": "H",
                "system": "http://terminology.hl7.org/CodeSystem/v3-ObservationInterpretation",
                "display": "High"
              }
            ]
          }
        ],
        "text": {
          "status": "generated",
          "div": "<div xmlns=\"http://www.w3.org/1999/xhtml\"><table class=\"hl7__eu__lab__report\"><tr><th>Test</th><th>22-Aug-2017</th><th>Reference&#xA0;Range</th><th>Unit</th></tr><tr><td>Glucose [Mass/volume] in Urine by Test strip</td><td>1.0</td><td>0.8 - 0</td><td>H</td><td>mg/dL</td></tr></table></div>"
        },
        "status": "final",
        "subject": {
          "reference": "urn:uuid:5561df60-64e8-4399-b6ca-20d5d92eda25",
          "display": "Meaghan Neary"
        },
        "effectiveDateTime": "2017-08-21T22:11:04Z",
        "specimen": {
          "reference": "urn:uuid:304be379-bdc5-4fc3-99f0-db9cee16b099"
        }
      }
    },
    {
      "fullUrl": "urn:uuid:d4b9a337-f7fa-41b2-91f4-9eabd399a147",
      "resource": {
        "resourceType": "Observation",
        "id": "d4b9a337-f7fa-41b2-91f4-9eabd399a147",
        "meta": {
          "profile": [
            "http://hl7.eu/fhir/laboratory/StructureDefinition/Observation-resultslab-eu-lab"
          ]
        },
        "performer": [
          {
            "display": "The Central European Lab"
          }
        ],
        "category": [
          {
            "coding": [
              {
                "system": "http://terminology.hl7.org/CodeSystem/observation-category",
                "code": "laboratory"
              }
            ]
          }
        ],
        "code": {
          "coding": [
            {
              "code": "25428-4",
              "system": "http://loinc.org",
              "display": "Glucose [Presence] in Urine by Test strip"
            }
          ],
          "text": "Glucose [Presence] in Urine by Test strip"
        },
        "text": {
          "status": "generated",
          "div": "<div xmlns=\"http://www.w3.org/1999/xhtml\"><table class=\"hl7__eu__lab__report\"><tr><th>Test</th><th>22-Aug-2017</th><th>Reference&#xA0;Range</th><th>Unit</th></tr><tr><td>Glucose [Presence] in Urine by Test strip</td></tr></table></div>"
        },
        "status": "final",
        "subject": {
          "reference": "urn:uuid:5561df60-64e8-4399-b6ca-20d5d92eda25",
          "display": "Meaghan Neary"
        },
        "effectiveDateTime": "2017-08-21T22:11:04Z",
        "specimen": {
          "reference": "urn:uuid:304be379-bdc5-4fc3-99f0-db9cee16b099"
        }
      }
    },
    {
      "fullUrl": "urn:uuid:a50b4636-dcf6-40cf-873f-6ab25fa008e6",
      "resource": {
        "resourceType": "Observation",
        "id": "a50b4636-dcf6-40cf-873f-6ab25fa008e6",
        "meta": {
          "profile": [
            "http://hl7.eu/fhir/laboratory/StructureDefinition/Observation-resultslab-eu-lab"
          ]
        },
        "performer": [
          {
            "display": "The Central European Lab"
          }
        ],
        "category": [
          {
            "coding": [
              {
                "system": "http://terminology.hl7.org/CodeSystem/observation-category",
                "code": "laboratory"
              }
            ]
          }
        ],
        "code": {
          "coding": [
            {
              "code": "20505-4",
              "system": "http://loinc.org",
              "display": "Bilirubin.total [Mass/volume] in Urine by Test strip"
            }
          ],
          "text": "Bilirubin.total [Mass/volume] in Urine by Test strip"
        },
        "valueQuantity": {
          "system": "http://unitsofmeasure.org",
          "value": 0.5,
          "unit": "mg/dL",
          "code": "mg/dL"
        },
        "referenceRange": [
          {
            "low": {
              "value": 0,
              "code": "mg/dL",
              "system": "http://unitsofmeasure.org"
            }
          },
          {
            "high": {
              "value": 1,
              "code": "mg/dL",
              "system": "http://unitsofmeasure.org"
            }
          }
        ],
        "text": {
          "status": "generated",
          "div": "<div xmlns=\"http://www.w3.org/1999/xhtml\"><table class=\"hl7__eu__lab__report\"><tr><th>Test</th><th>22-Aug-2017</th><th>Reference&#xA0;Range</th><th>Unit</th></tr><tr><td>Bilirubin.total [Mass/volume] in Urine by Test strip</td><td>0.5</td><td>0 - 1</td><td></td><td>mg/dL</td></tr></table></div>"
        },
        "status": "final",
        "subject": {
          "reference": "urn:uuid:5561df60-64e8-4399-b6ca-20d5d92eda25",
          "display": "Meaghan Neary"
        },
        "effectiveDateTime": "2017-08-21T22:11:04Z",
        "specimen": {
          "reference": "urn:uuid:304be379-bdc5-4fc3-99f0-db9cee16b099"
        }
      }
    },
    {
      "fullUrl": "urn:uuid:176b7866-46a4-447d-90c8-71fac2c105f5",
      "resource": {
        "resourceType": "Observation",
        "id": "176b7866-46a4-447d-90c8-71fac2c105f5",
        "meta": {
          "profile": [
            "http://hl7.eu/fhir/laboratory/StructureDefinition/Observation-resultslab-eu-lab"
          ]
        },
        "performer": [
          {
            "display": "The Central European Lab"
          }
        ],
        "category": [
          {
            "coding": [
              {
                "system": "http://terminology.hl7.org/CodeSystem/observation-category",
                "code": "laboratory"
              }
            ]
          }
        ],
        "code": {
          "coding": [
            {
              "code": "5770-3",
              "system": "http://loinc.org",
              "display": "Bilirubin.total [Presence] in Urine by Test strip"
            }
          ],
          "text": "Bilirubin.total [Presence] in Urine by Test strip"
        },
        "text": {
          "status": "generated",
          "div": "<div xmlns=\"http://www.w3.org/1999/xhtml\"><table class=\"hl7__eu__lab__report\"><tr><th>Test</th><th>22-Aug-2017</th><th>Reference&#xA0;Range</th><th>Unit</th></tr><tr><td>Bilirubin.total [Presence] in Urine by Test strip</td></tr></table></div>"
        },
        "status": "final",
        "subject": {
          "reference": "urn:uuid:5561df60-64e8-4399-b6ca-20d5d92eda25",
          "display": "Meaghan Neary"
        },
        "effectiveDateTime": "2017-08-21T22:11:04Z",
        "specimen": {
          "reference": "urn:uuid:304be379-bdc5-4fc3-99f0-db9cee16b099"
        }
      }
    },
    {
      "fullUrl": "urn:uuid:33c3775d-e7db-43c4-9249-92e1399f8d89",
      "resource": {
        "resourceType": "Observation",
        "id": "33c3775d-e7db-43c4-9249-92e1399f8d89",
        "meta": {
          "profile": [
            "http://hl7.eu/fhir/laboratory/StructureDefinition/Observation-resultslab-eu-lab"
          ]
        },
        "performer": [
          {
            "display": "The Central European Lab"
          }
        ],
        "category": [
          {
            "coding": [
              {
                "system": "http://terminology.hl7.org/CodeSystem/observation-category",
                "code": "laboratory"
              }
            ]
          }
        ],
        "code": {
          "coding": [
            {
              "code": "5797-6",
              "system": "http://loinc.org",
              "display": "Ketones [Mass/volume] in Urine by Test strip"
            }
          ],
          "text": "Ketones [Mass/volume] in Urine by Test strip"
        },
        "valueQuantity": {
          "system": "http://unitsofmeasure.org",
          "value": 2.9,
          "unit": "mg/dL",
          "code": "mg/dL"
        },
        "referenceRange": [
          {
            "low": {
              "value": 0,
              "code": "mg/dL",
              "system": "http://unitsofmeasure.org"
            }
          },
          {
            "high": {
              "value": 4,
              "code": "mg/dL",
              "system": "http://unitsofmeasure.org"
            }
          }
        ],
        "text": {
          "status": "generated",
          "div": "<div xmlns=\"http://www.w3.org/1999/xhtml\"><table class=\"hl7__eu__lab__report\"><tr><th>Test</th><th>22-Aug-2017</th><th>Reference&#xA0;Range</th><th>Unit</th></tr><tr><td>Ketones [Mass/volume] in Urine by Test strip</td><td>2.9</td><td>0 - 4</td><td></td><td>mg/dL</td></tr></table></div>"
        },
        "status": "final",
        "subject": {
          "reference": "urn:uuid:5561df60-64e8-4399-b6ca-20d5d92eda25",
          "display": "Meaghan Neary"
        },
        "effectiveDateTime": "2017-08-21T22:11:04Z",
        "specimen": {
          "reference": "urn:uuid:304be379-bdc5-4fc3-99f0-db9cee16b099"
        }
      }
    },
    {
      "fullUrl": "urn:uuid:2e8bb64e-4f74-4542-951e-62a299671ae2",
      "resource": {
        "resourceType": "Observation",
        "id": "2e8bb64e-4f74-4542-951e-62a299671ae2",
        "meta": {
          "profile": [
            "http://hl7.eu/fhir/laboratory/StructureDefinition/Observation-resultslab-eu-lab"
          ]
        },
        "performer": [
          {
            "display": "The Central European Lab"
          }
        ],
        "category": [
          {
            "coding": [
              {
                "system": "http://terminology.hl7.org/CodeSystem/observation-category",
                "code": "laboratory"
              }
            ]
          }
        ],
        "code": {
          "coding": [
            {
              "code": "2514-8",
              "system": "http://loinc.org",
              "display": "Ketones [Presence] in Urine by Test strip"
            }
          ],
          "text": "Ketones [Presence] in Urine by Test strip"
        },
        "text": {
          "status": "generated",
          "div": "<div xmlns=\"http://www.w3.org/1999/xhtml\"><table class=\"hl7__eu__lab__report\"><tr><th>Test</th><th>22-Aug-2017</th><th>Reference&#xA0;Range</th><th>Unit</th></tr><tr><td>Ketones [Presence] in Urine by Test strip</td></tr></table></div>"
        },
        "status": "final",
        "subject": {
          "reference": "urn:uuid:5561df60-64e8-4399-b6ca-20d5d92eda25",
          "display": "Meaghan Neary"
        },
        "effectiveDateTime": "2017-08-21T22:11:04Z",
        "specimen": {
          "reference": "urn:uuid:304be379-bdc5-4fc3-99f0-db9cee16b099"
        }
      }
    },
    {
      "fullUrl": "urn:uuid:3f26bc05-350f-404e-9e74-ee98a41f4b89",
      "resource": {
        "resourceType": "Observation",
        "id": "3f26bc05-350f-404e-9e74-ee98a41f4b89",
        "meta": {
          "profile": [
            "http://hl7.eu/fhir/laboratory/StructureDefinition/Observation-resultslab-eu-lab"
          ]
        },
        "performer": [
          {
            "display": "The Central European Lab"
          }
        ],
        "category": [
          {
            "coding": [
              {
                "system": "http://terminology.hl7.org/CodeSystem/observation-category",
                "code": "laboratory"
              }
            ]
          }
        ],
        "code": {
          "coding": [
            {
              "code": "5811-5",
              "system": "http://loinc.org",
              "display": "Specific gravity of Urine by Test strip"
            }
          ],
          "text": "Specific gravity of Urine by Test strip"
        },
        "valueQuantity": {
          "system": "http://unitsofmeasure.org",
          "value": 1,
          "unit": "{nominal}",
          "code": "{nominal}"
        },
        "referenceRange": [
          {
            "low": {
              "value": 1.005,
              "code": "g/mL",
              "system": "http://unitsofmeasure.org"
            }
          },
          {
            "high": {
              "value": 1.03,
              "code": "g/mL",
              "system": "http://unitsofmeasure.org"
            }
          }
        ],
        "interpretation": [
          {
            "coding": [
              {
                "code": "L",
                "system": "http://terminology.hl7.org/CodeSystem/v3-ObservationInterpretation",
                "display": "Low"
              }
            ]
          }
        ],
        "text": {
          "status": "generated",
          "div": "<div xmlns=\"http://www.w3.org/1999/xhtml\"><table class=\"hl7__eu__lab__report\"><tr><th>Test</th><th>22-Aug-2017</th><th>Reference&#xA0;Range</th><th>Unit</th></tr><tr><td>Specific gravity of Urine by Test strip</td><td>1.0</td><td>1.005 - 1.03</td><td>L</td><td>{nominal}</td></tr></table></div>"
        },
        "status": "final",
        "subject": {
          "reference": "urn:uuid:5561df60-64e8-4399-b6ca-20d5d92eda25",
          "display": "Meaghan Neary"
        },
        "effectiveDateTime": "2017-08-21T22:11:04Z",
        "specimen": {
          "reference": "urn:uuid:304be379-bdc5-4fc3-99f0-db9cee16b099"
        }
      }
    },
    {
      "fullUrl": "urn:uuid:e77f043a-f210-4627-a9a4-f5d099914e06",
      "resource": {
        "resourceType": "Observation",
        "id": "e77f043a-f210-4627-a9a4-f5d099914e06",
        "meta": {
          "profile": [
            "http://hl7.eu/fhir/laboratory/StructureDefinition/Observation-resultslab-eu-lab"
          ]
        },
        "performer": [
          {
            "display": "The Central European Lab"
          }
        ],
        "category": [
          {
            "coding": [
              {
                "system": "http://terminology.hl7.org/CodeSystem/observation-category",
                "code": "laboratory"
              }
            ]
          }
        ],
        "code": {
          "coding": [
            {
              "code": "5803-2",
              "system": "http://loinc.org",
              "display": "pH of Urine by Test strip"
            }
          ],
          "text": "pH of Urine by Test strip"
        },
        "valueQuantity": {
          "system": "http://unitsofmeasure.org",
          "value": 5.5,
          "unit": "pH",
          "code": "pH"
        },
        "referenceRange": [
          {
            "low": {
              "value": 4.6,
              "code": "pH",
              "system": "http://unitsofmeasure.org"
            }
          },
          {
            "high": {
              "value": 7,
              "code": "pH",
              "system": "http://unitsofmeasure.org"
            }
          }
        ],
        "text": {
          "status": "generated",
          "div": "<div xmlns=\"http://www.w3.org/1999/xhtml\"><table class=\"hl7__eu__lab__report\"><tr><th>Test</th><th>22-Aug-2017</th><th>Reference&#xA0;Range</th><th>Unit</th></tr><tr><td>pH of Urine by Test strip</td><td>5.5</td><td>4.6 - 7</td><td></td><td>pH</td></tr></table></div>"
        },
        "status": "final",
        "subject": {
          "reference": "urn:uuid:5561df60-64e8-4399-b6ca-20d5d92eda25",
          "display": "Meaghan Neary"
        },
        "effectiveDateTime": "2017-08-21T22:11:04Z",
        "specimen": {
          "reference": "urn:uuid:304be379-bdc5-4fc3-99f0-db9cee16b099"
        }
      }
    },
    {
      "fullUrl": "urn:uuid:e332933e-601e-42f5-bef9-16aac0473d05",
      "resource": {
        "resourceType": "Observation",
        "id": "e332933e-601e-42f5-bef9-16aac0473d05",
        "meta": {
          "profile": [
            "http://hl7.eu/fhir/laboratory/StructureDefinition/Observation-resultslab-eu-lab"
          ]
        },
        "performer": [
          {
            "display": "The Central European Lab"
          }
        ],
        "category": [
          {
            "coding": [
              {
                "system": "http://terminology.hl7.org/CodeSystem/observation-category",
                "code": "laboratory"
              }
            ]
          }
        ],
        "code": {
          "coding": [
            {
              "code": "5804-0",
              "system": "http://loinc.org",
              "display": "Protein [Mass/volume] in Urine by Test strip"
            }
          ],
          "text": "Protein [Mass/volume] in Urine by Test strip"
        },
        "valueQuantity": {
          "system": "http://unitsofmeasure.org",
          "value": 183,
          "unit": "mg/dL",
          "code": "mg/dL"
        },
        "referenceRange": [
          {
            "low": {
              "value": 0,
              "code": "mg/dL",
              "system": "http://unitsofmeasure.org"
            }
          },
          {
            "high": {
              "value": 14,
              "code": "mg/dL",
              "system": "http://unitsofmeasure.org"
            }
          }
        ],
        "interpretation": [
          {
            "coding": [
              {
                "code": "H",
                "system": "http://terminology.hl7.org/CodeSystem/v3-ObservationInterpretation",
                "display": "High"
              }
            ]
          }
        ],
        "text": {
          "status": "generated",
          "div": "<div xmlns=\"http://www.w3.org/1999/xhtml\"><table class=\"hl7__eu__lab__report\"><tr><th>Test</th><th>22-Aug-2017</th><th>Reference&#xA0;Range</th><th>Unit</th></tr><tr><td>Protein [Mass/volume] in Urine by Test strip</td><td>183.0</td><td>0 - 14</td><td>H</td><td>mg/dL</td></tr></table></div>"
        },
        "status": "final",
        "subject": {
          "reference": "urn:uuid:5561df60-64e8-4399-b6ca-20d5d92eda25",
          "display": "Meaghan Neary"
        },
        "effectiveDateTime": "2017-08-21T22:11:04Z",
        "specimen": {
          "reference": "urn:uuid:304be379-bdc5-4fc3-99f0-db9cee16b099"
        }
      }
    },
    {
      "fullUrl": "urn:uuid:f0494788-f7f1-406d-9b6e-daff72cc345b",
      "resource": {
        "resourceType": "Observation",
        "id": "f0494788-f7f1-406d-9b6e-daff72cc345b",
        "meta": {
          "profile": [
            "http://hl7.eu/fhir/laboratory/StructureDefinition/Observation-resultslab-eu-lab"
          ]
        },
        "performer": [
          {
            "display": "The Central European Lab"
          }
        ],
        "category": [
          {
            "coding": [
              {
                "system": "http://terminology.hl7.org/CodeSystem/observation-category",
                "code": "laboratory"
              }
            ]
          }
        ],
        "code": {
          "coding": [
            {
              "code": "20454-5",
              "system": "http://loinc.org",
              "display": "Protein [Presence] in Urine by Test strip"
            }
          ],
          "text": "Protein [Presence] in Urine by Test strip"
        },
        "text": {
          "status": "generated",
          "div": "<div xmlns=\"http://www.w3.org/1999/xhtml\"><table class=\"hl7__eu__lab__report\"><tr><th>Test</th><th>22-Aug-2017</th><th>Reference&#xA0;Range</th><th>Unit</th></tr><tr><td>Protein [Presence] in Urine by Test strip</td></tr></table></div>"
        },
        "status": "final",
        "subject": {
          "reference": "urn:uuid:5561df60-64e8-4399-b6ca-20d5d92eda25",
          "display": "Meaghan Neary"
        },
        "effectiveDateTime": "2017-08-21T22:11:04Z",
        "specimen": {
          "reference": "urn:uuid:304be379-bdc5-4fc3-99f0-db9cee16b099"
        }
      }
    },
    {
      "fullUrl": "urn:uuid:871ef3a4-1b48-4dd2-afae-d403bdb49ac6",
      "resource": {
        "resourceType": "Observation",
        "id": "871ef3a4-1b48-4dd2-afae-d403bdb49ac6",
        "meta": {
          "profile": [
            "http://hl7.eu/fhir/laboratory/StructureDefinition/Observation-resultslab-eu-lab"
          ]
        },
        "performer": [
          {
            "display": "The Central European Lab"
          }
        ],
        "category": [
          {
            "coding": [
              {
                "system": "http://terminology.hl7.org/CodeSystem/observation-category",
                "code": "laboratory"
              }
            ]
          }
        ],
        "code": {
          "coding": [
            {
              "code": "5802-4",
              "system": "http://loinc.org",
              "display": "Nitrite [Presence] in Urine by Test strip"
            }
          ],
          "text": "Nitrite [Presence] in Urine by Test strip"
        },
        "text": {
          "status": "generated",
          "div": "<div xmlns=\"http://www.w3.org/1999/xhtml\"><table class=\"hl7__eu__lab__report\"><tr><th>Test</th><th>22-Aug-2017</th><th>Reference&#xA0;Range</th><th>Unit</th></tr><tr><td>Nitrite [Presence] in Urine by Test strip</td></tr></table></div>"
        },
        "status": "final",
        "subject": {
          "reference": "urn:uuid:5561df60-64e8-4399-b6ca-20d5d92eda25",
          "display": "Meaghan Neary"
        },
        "effectiveDateTime": "2017-08-21T22:11:04Z",
        "specimen": {
          "reference": "urn:uuid:304be379-bdc5-4fc3-99f0-db9cee16b099"
        }
      }
    },
    {
      "fullUrl": "urn:uuid:f7313600-42d8-4e37-bdda-2d384743205a",
      "resource": {
        "resourceType": "Observation",
        "id": "f7313600-42d8-4e37-bdda-2d384743205a",
        "meta": {
          "profile": [
            "http://hl7.eu/fhir/laboratory/StructureDefinition/Observation-resultslab-eu-lab"
          ]
        },
        "performer": [
          {
            "display": "The Central European Lab"
          }
        ],
        "category": [
          {
            "coding": [
              {
                "system": "http://terminology.hl7.org/CodeSystem/observation-category",
                "code": "laboratory"
              }
            ]
          }
        ],
        "code": {
          "coding": [
            {
              "code": "5794-3",
              "system": "http://loinc.org",
              "display": "Hemoglobin [Presence] in Urine by Test strip"
            }
          ],
          "text": "Hemoglobin [Presence] in Urine by Test strip"
        },
        "text": {
          "status": "generated",
          "div": "<div xmlns=\"http://www.w3.org/1999/xhtml\"><table class=\"hl7__eu__lab__report\"><tr><th>Test</th><th>22-Aug-2017</th><th>Reference&#xA0;Range</th><th>Unit</th></tr><tr><td>Hemoglobin [Presence] in Urine by Test strip</td></tr></table></div>"
        },
        "status": "final",
        "subject": {
          "reference": "urn:uuid:5561df60-64e8-4399-b6ca-20d5d92eda25",
          "display": "Meaghan Neary"
        },
        "effectiveDateTime": "2017-08-21T22:11:04Z",
        "specimen": {
          "reference": "urn:uuid:304be379-bdc5-4fc3-99f0-db9cee16b099"
        }
      }
    },
    {
      "fullUrl": "urn:uuid:8141b206-0781-409a-8b8a-38d4c82fb9e5",
      "resource": {
        "resourceType": "Observation",
        "id": "8141b206-0781-409a-8b8a-38d4c82fb9e5",
        "meta": {
          "profile": [
            "http://hl7.eu/fhir/laboratory/StructureDefinition/Observation-resultslab-eu-lab"
          ]
        },
        "performer": [
          {
            "display": "The Central European Lab"
          }
        ],
        "category": [
          {
            "coding": [
              {
                "system": "http://terminology.hl7.org/CodeSystem/observation-category",
                "code": "laboratory"
              }
            ]
          }
        ],
        "code": {
          "coding": [
            {
              "code": "5799-2",
              "system": "http://loinc.org",
              "display": "Leukocyte esterase [Presence] in Urine by Test strip"
            }
          ],
          "text": "Leukocyte esterase [Presence] in Urine by Test strip"
        },
        "text": {
          "status": "generated",
          "div": "<div xmlns=\"http://www.w3.org/1999/xhtml\"><table class=\"hl7__eu__lab__report\"><tr><th>Test</th><th>22-Aug-2017</th><th>Reference&#xA0;Range</th><th>Unit</th></tr><tr><td>Leukocyte esterase [Presence] in Urine by Test strip</td></tr></table></div>"
        },
        "status": "final",
        "subject": {
          "reference": "urn:uuid:5561df60-64e8-4399-b6ca-20d5d92eda25",
          "display": "Meaghan Neary"
        },
        "effectiveDateTime": "2017-08-21T22:11:04Z",
        "specimen": {
          "reference": "urn:uuid:304be379-bdc5-4fc3-99f0-db9cee16b099"
        }
      }
    },
    {
      "fullUrl": "urn:uuid:020a9666-9644-4176-9282-acff23f48d2d",
      "resource": {
        "resourceType": "Observation",
        "id": "020a9666-9644-4176-9282-acff23f48d2d",
        "meta": {
          "profile": [
            "http://hl7.eu/fhir/laboratory/StructureDefinition/Observation-resultslab-eu-lab"
          ]
        },
        "performer": [
          {
            "display": "The Central European Lab"
          }
        ],
        "category": [
          {
            "coding": [
              {
                "system": "http://terminology.hl7.org/CodeSystem/observation-category",
                "code": "laboratory"
              }
            ]
          }
        ],
        "code": {
          "coding": [
            {
              "code": "4548-4",
              "system": "http://loinc.org",
              "display": "Hemoglobin A1c/Hemoglobin.total in Blood"
            }
          ],
          "text": "Hemoglobin A1c/Hemoglobin.total in Blood"
        },
        "valueQuantity": {
          "system": "http://unitsofmeasure.org",
          "value": 3.4,
          "unit": "%",
          "code": "%"
        },
        "referenceRange": [
          {
            "low": {
              "value": 4,
              "code": "%",
              "system": "http://unitsofmeasure.org"
            }
          },
          {
            "high": {
              "value": 6.4,
              "code": "%",
              "system": "http://unitsofmeasure.org"
            }
          }
        ],
        "interpretation": [
          {
            "coding": [
              {
                "code": "L",
                "system": "http://terminology.hl7.org/CodeSystem/v3-ObservationInterpretation",
                "display": "Low"
              }
            ]
          }
        ],
        "text": {
          "status": "generated",
          "div": "<div xmlns=\"http://www.w3.org/1999/xhtml\"><table class=\"hl7__eu__lab__report\"><tr><th>Test</th><th>22-Aug-2017</th><th>Reference&#xA0;Range</th><th>Unit</th></tr><tr><td>Hemoglobin A1c/Hemoglobin.total in Blood</td><td>3.4</td><td>4 - 6.4</td><td>L</td><td>%</td></tr></table></div>"
        },
        "status": "final",
        "subject": {
          "reference": "urn:uuid:5561df60-64e8-4399-b6ca-20d5d92eda25",
          "display": "Meaghan Neary"
        },
        "effectiveDateTime": "2017-08-21T22:11:04Z",
        "specimen": {
          "reference": "urn:uuid:2d55abc6-2aad-4610-8431-47eaabb1ebad"
        }
      }
    },
    {
      "fullUrl": "urn:uuid:a33dfc17-d9c7-4135-8fe7-d880fa6a73e5",
      "resource": {
        "resourceType": "Device",
        "id": "a33dfc17-d9c7-4135-8fe7-d880fa6a73e5",
        "deviceName": [
          {
            "name": "SYNDERAI Synthetic Generator",
            "type": "manufacturer-name"
          }
        ],
        "version": [
          {
            "value": "5.0"
          }
        ],
        "text": {
          "status": "generated",
          "div": "<div xmlns=\"http://www.w3.org/1999/xhtml\">SYNDERAI Synthetic Generator v5.0</div>"
        },
        "status": "active\"",
        "distinctIdentifier": "synderai-generator-50",
        "manufacturer": "SYNDERAI Project"
      }
    },
    {
      "fullUrl": "urn:uuid:6b7ebb8f-c7ad-4294-918a-a707728ffbb6",
      "resource": {
        "resourceType": "Provenance",
        "id": "6b7ebb8f-c7ad-4294-918a-a707728ffbb6",
        "target": [
          {
            "reference": "Patient/5561df60-64e8-4399-b6ca-20d5d92eda25"
          },
          {
            "reference": "Bundle/f57a2322-373f-4dd3-888e-dc64afc11d2e"
          },
          {
            "reference": "Composition/1772a10e-5faa-4677-b96e-2f1f74f08dfe"
          },
          {
            "reference": "PractitionerRole/760369fa-6bbf-48f0-8d77-2718fb80d949"
          },
          {
            "reference": "Practitioner/401c81d7-2aed-41db-b09f-699b114d95da"
          },
          {
            "reference": "PractitionerRole/f3557730-cae2-44ba-92d4-7c7aabb33ab1"
          },
          {
            "reference": "Organization/520a1884-4a2a-491d-abd4-f25e774f98bc"
          }
        ],
        "activity": {
          "text": "Synthetic Example Data Generation"
        },
        "policy": [
          "https://synderai.net/synderai-synthetic-data-policy"
        ],
        "agent": [
          {
            "type": {
              "text": "author"
            },
            "who": {
              "reference": "Device/a33dfc17-d9c7-4135-8fe7-d880fa6a73e5"
            }
          }
        ],
        "reason": [
          {
            "text": "Interoperability Testing and Training (non-clinical use)"
          }
        ],
        "text": {
          "status": "generated",
          "div": "<div xmlns=\"http://www.w3.org/1999/xhtml\">Provenance for SYNDERAI Synthetic Example Data Resource</div>"
        },
        "recorded": "2017-08-22T00:11:04Z"
      }
    },
    {
      "fullUrl": "urn:uuid:760369fa-6bbf-48f0-8d77-2718fb80d949",
      "resource": {
        "resourceType": "PractitionerRole",
        "id": "760369fa-6bbf-48f0-8d77-2718fb80d949",
        "meta": {
          "profile": [
            "http://hl7.eu/fhir/base/StructureDefinition/practitionerRole-eu"
          ]
        },
        "text": {
          "status": "generated",
          "div": "<div xmlns=\"http://www.w3.org/1999/xhtml\">Laboratory Role Id: 760369fa-6bbf-48f0-8d77-2718fb80d949</div>"
        },
        "practitioner": {
          "reference": "urn:uuid:401c81d7-2aed-41db-b09f-699b114d95da"
        }
      }
    },
    {
      "fullUrl": "urn:uuid:401c81d7-2aed-41db-b09f-699b114d95da",
      "resource": {
        "resourceType": "Practitioner",
        "id": "401c81d7-2aed-41db-b09f-699b114d95da",
        "meta": {
          "profile": [
            "http://hl7.eu/fhir/base/StructureDefinition/practitioner-eu"
          ]
        },
        "identifier": [
          {
            "assigner": {
              "display": "HL7 Europe"
            },
            "system": "urn:oid:2.16.840.1.113883.2.51.999",
            "value": "9522a810-c881-4b35-926c-80e25149ac7c"
          }
        ],
        "name": [
          {
            "prefix": [
              "dr"
            ],
            "given": [
              "Ex"
            ],
            "family": "Ample"
          }
        ],
        "address": [
          {
            "line": [
              "Laboratoire Central Europenne",
              "Boulevard du Jardin Botanique 32"
            ],
            "postalCode": "1000",
            "city": "Brussels",
            "country": "Belgium"
          }
        ],
        "text": {
          "status": "generated",
          "div": "<div xmlns=\"http://www.w3.org/1999/xhtml\">Laboratory: Laboratoire Central Europenne, 1000 Brussels, Belgium</div>"
        }
      }
    }
  ],
  "type": "document",
  "timestamp": "2017-08-22T00:11:04Z"
}
