{
  "resourceType": "Bundle",
  "id": "0b22b9fe-7274-49f3-89aa-9183c7510a88",
  "meta": {
    "profile": [
      "http://hl7.eu/fhir/laboratory/StructureDefinition/Bundle-eu-lab"
    ]
  },
  "identifier": {
    "assigner": {
      "display": "HL7 Europe"
    },
    "system": "urn:oid:2.16.840.1.113883.2.51.999",
    "value": "7ebbbbce-c3ad-4e9e-b674-724772a203ce"
  },
  "entry": [
    {
      "fullUrl": "urn:uuid:a961575a-dcb4-4626-b8af-96e9538fbf74",
      "resource": {
        "resourceType": "Composition",
        "id": "a961575a-dcb4-4626-b8af-96e9538fbf74",
        "meta": {
          "profile": [
            "http://hl7.eu/fhir/laboratory/StructureDefinition/Composition-eu-lab"
          ]
        },
        "identifier": {
          "assigner": {
            "display": "HL7 Europe"
          },
          "system": "urn:oid:2.16.840.1.113883.2.51.999",
          "value": "b1680291-76b9-44cc-ac77-7cb347c45fb1"
        },
        "author": [
          {
            "reference": "urn:uuid:b1995924-4136-44c4-bec2-ceb8c10ff00f"
          }
        ],
        "category": [
          {
            "coding": [
              {
                "code": "26436-6",
                "system": "http://loinc.org",
                "display": "Laboratory studies (set)"
              }
            ]
          }
        ],
        "type": {
          "coding": [
            {
              "code": "11502-2",
              "system": "http://loinc.org",
              "display": "Laboratory report"
            }
          ],
          "text": "Laboratory Report"
        },
        "section": [
          {
            "code": {
              "coding": [
                {
                  "code": "26436-6",
                  "system": "http://loinc.org",
                  "display": "Laboratory studies (set)"
                }
              ],
              "text": "Laboratory studies"
            },
            "section": [
              {
                "code": {
                  "coding": [
                    {
                      "code": "$18719-5",
                      "system": "http://loinc.org",
                      "display": "Chemistry studies (set)"
                    }
                  ],
                  "text": "Chemistry"
                },
                "entry": [
                  {
                    "reference": "urn:uuid:1855624f-9fd7-4f8c-9f74-67f7b9d798eb"
                  },
                  {
                    "reference": "urn:uuid:ec73b0ad-762a-4d5d-bc90-74a71136509d"
                  },
                  {
                    "reference": "urn:uuid:6bf10e89-fd21-42bd-89b5-fc3f28005c12"
                  },
                  {
                    "reference": "urn:uuid:35ca2b13-4605-4249-8a03-405d5774cbe4"
                  },
                  {
                    "reference": "urn:uuid:aa582b08-08c7-47e9-b2a8-682d515a3cc5"
                  },
                  {
                    "reference": "urn:uuid:2be773ef-406d-4775-9484-2970bf6563d4"
                  },
                  {
                    "reference": "urn:uuid:7be9be36-da3f-41b7-b1d2-1484e663ba1b"
                  },
                  {
                    "reference": "urn:uuid:364cb3ec-f137-4554-a8ac-dee04f4d0bba"
                  },
                  {
                    "reference": "urn:uuid:89d03d16-1611-4556-b07f-ec3da86b003e"
                  },
                  {
                    "reference": "urn:uuid:571fd47a-767e-4b31-a0d8-01d75b048db6"
                  },
                  {
                    "reference": "urn:uuid:0f2edc63-5e38-4673-a8cc-d8bb249d73a1"
                  },
                  {
                    "reference": "urn:uuid:9798022c-9caf-40d6-8228-becc3ccad911"
                  },
                  {
                    "reference": "urn:uuid:6f27acc2-800d-47d0-8bc7-16fce2461d30"
                  },
                  {
                    "reference": "urn:uuid:a227b7a8-8cb9-4f7a-8605-3599891cbdf7"
                  },
                  {
                    "reference": "urn:uuid:d3935c04-5cab-46ba-bfc5-b62a945277de"
                  },
                  {
                    "reference": "urn:uuid:58c0f220-c498-4210-a97c-2129185f2147"
                  },
                  {
                    "reference": "urn:uuid:16cfa51e-5cab-4d0d-9e3d-32bca08e5c98"
                  },
                  {
                    "reference": "urn:uuid:f2fd67af-b0c0-47ff-a2db-2c5974584d64"
                  },
                  {
                    "reference": "urn:uuid:83aef9f6-ebca-43df-ab47-c47834987da1"
                  }
                ],
                "text": {
                  "status": "generated",
                  "div": "<div xmlns=\"http://www.w3.org/1999/xhtml\"><h3>Chemistry</h3><table class=\"hl7__eu__lab__report\"><thead><tr><th>Test</th><th>15-OCT-2015</th><th>Reference&#xA0;Range</th><th>Unit</th></tr></thead><tbody><tr><td>Glucose [Mass/volume] in Blood</td><td>78.4</td><td>70 - 140</td><td>mg/dL</td></tr><tr><td>Urea nitrogen [Mass/volume] in Blood</td><td>17.2</td><td>7 - 25</td><td>mg/dL</td></tr><tr><td>Creatinine [Mass/volume] in Blood</td><td><strong>2.8 H</strong></td><td>0.6 - 1.1</td><td>mg/dL</td></tr><tr><td>Calcium [Mass/volume] in Blood</td><td>10.1</td><td>8.6 - 10.4</td><td>mg/dL</td></tr><tr><td>Sodium [Moles/volume] in Blood</td><td>138.2</td><td>135 - 145</td><td>mmol/L</td></tr><tr><td>Potassium [Moles/volume] in Blood</td><td>4.9</td><td>3.5 - 5.3</td><td>mmol/L</td></tr><tr><td>Chloride [Moles/volume] in Blood</td><td><strong>108.5 H</strong></td><td>98 - 108</td><td>mmol/L</td></tr><tr><td>Carbon dioxide, total [Moles/volume] in Blood</td><td>27.0</td><td>22 - 32</td><td>mmol/L</td></tr><tr><td>Protein [Mass/volume] in Serum or Plasma</td><td>7.3</td><td>6.6 - 8.3</td><td>g/dL</td></tr><tr><td>Albumin [Mass/volume] in Serum or Plasma</td><td>5.1</td><td>3.5 - 5.5</td><td>g/dL</td></tr><tr><td>Globulin [Mass/volume] in Serum by calculation</td><td>2.9</td><td>2.2 - 3.7</td><td>g/L</td></tr><tr><td>Bilirubin.total [Mass/volume] in Serum or Plasma</td><td>0.4</td><td>0.3 - 1.2</td><td>mg/dL</td></tr><tr><td>Alkaline phosphatase [Enzymatic activity/volume] in Serum or Plasma</td><td>66.9</td><td>40 - 130</td><td>U/L</td></tr><tr><td>Alanine aminotransferase [Enzymatic activity/volume] in Serum or Plasma</td><td>47.4</td><td>7 - 55</td><td>U/L</td></tr><tr><td>Aspartate aminotransferase [Enzymatic activity/volume] in Serum or Plasma</td><td>36.9</td><td>10 - 40</td><td>U/L</td></tr><tr><td>Cholesterol [Mass/volume] in Serum or Plasma</td><td>164.8</td><td>125 - 200</td><td>mg/dL</td></tr><tr><td>Triglyceride [Mass/volume] in Serum or Plasma</td><td>110.1</td><td>10 - 175</td><td>mg/dL</td></tr><tr><td>Cholesterol in LDL [Mass/volume] in Serum or Plasma by Direct assay</td><td>96.7</td><td>0 - 130</td><td>mg/dL</td></tr><tr><td>Cholesterol in HDL [Mass/volume] in Serum or Plasma</td><td>53.5</td><td>50 - 100</td><td>mg/dL</td></tr></tbody></table></div>"
                },
                "title": "Chemistry"
              }
            ],
            "title": "Laboratory Report"
          },
          {
            "text": {
              "status": "generated",
              "div": "<div xmlns=\"http://www.w3.org/1999/xhtml\"><h3>Annotation</h3><table class=\"hl7__eu__lab__report\"><tr><th>Conclusion and Recommendations based on this report and previous findings known to us</th></tr><tr><td>Renal function is impaired as indicated by elevated creatinine; mild hyperchloremia is also present. Other parameters, including glucose, electrolytes, liver enzymes, proteins, and lipid profile, are within normal limits. Findings suggest chronic kidney dysfunction; clinical correlation and further nephrological evaluation are recommended.</td></tr></table></div>"
            },
            "code": {
              "coding": [
                {
                  "system": "http://loinc.org",
                  "code": "48767-8",
                  "display": "Annotation comment"
                }
              ]
            },
            "title": "Annotation comment"
          }
        ],
        "status": "final",
        "subject": {
          "reference": "urn:uuid:14446ef8-60c9-4a66-9ea3-8523a72c331c",
          "display": "Ludmila Vávrová"
        },
        "date": "2015-10-15T05:51:38Z",
        "title": "Laboratory Report",
        "confidentiality": "N"
      }
    },
    {
      "fullUrl": "urn:uuid:a2bd8a76-adbe-4b4a-a556-e0da67b64b80",
      "resource": {
        "resourceType": "DiagnosticReport",
        "id": "a2bd8a76-adbe-4b4a-a556-e0da67b64b80",
        "meta": {
          "profile": [
            "http://hl7.eu/fhir/laboratory/StructureDefinition/DiagnosticReport-eu-lab"
          ]
        },
        "identifier": [
          {
            "assigner": {
              "display": "HL7 Europe"
            },
            "system": "urn:oid:2.16.840.1.113883.2.51.999",
            "value": "3f209afd-e4dc-4661-951c-ed6f17a1dabf"
          }
        ],
        "extension": [
          {
            "url": "http://hl7.org/fhir/5.0/StructureDefinition/extension-DiagnosticReport.composition",
            "valueReference": {
              "reference": "urn:uuid:b1680291-76b9-44cc-ac77-7cb347c45fb1"
            }
          }
        ],
        "category": [
          {
            "coding": [
              {
                "code": "26436-6",
                "system": "http://loinc.org",
                "display": "Laboratory studies (set)"
              }
            ]
          }
        ],
        "specimen": [
          {
            "reference": "urn:uuid:69a7e0a8-cf64-4eb5-a67d-ae8fa46fa2f1"
          },
          {
            "reference": "urn:uuid:6227e6c1-9f3b-4624-b7bb-211e0a703411"
          },
          {
            "reference": "urn:uuid:dce51d23-aa71-48f2-95eb-b96f58b26f3f"
          }
        ],
        "result": [
          {
            "reference": "urn:uuid:1855624f-9fd7-4f8c-9f74-67f7b9d798eb"
          },
          {
            "reference": "urn:uuid:ec73b0ad-762a-4d5d-bc90-74a71136509d"
          },
          {
            "reference": "urn:uuid:6bf10e89-fd21-42bd-89b5-fc3f28005c12"
          },
          {
            "reference": "urn:uuid:35ca2b13-4605-4249-8a03-405d5774cbe4"
          },
          {
            "reference": "urn:uuid:aa582b08-08c7-47e9-b2a8-682d515a3cc5"
          },
          {
            "reference": "urn:uuid:2be773ef-406d-4775-9484-2970bf6563d4"
          },
          {
            "reference": "urn:uuid:7be9be36-da3f-41b7-b1d2-1484e663ba1b"
          },
          {
            "reference": "urn:uuid:364cb3ec-f137-4554-a8ac-dee04f4d0bba"
          },
          {
            "reference": "urn:uuid:89d03d16-1611-4556-b07f-ec3da86b003e"
          },
          {
            "reference": "urn:uuid:571fd47a-767e-4b31-a0d8-01d75b048db6"
          },
          {
            "reference": "urn:uuid:0f2edc63-5e38-4673-a8cc-d8bb249d73a1"
          },
          {
            "reference": "urn:uuid:9798022c-9caf-40d6-8228-becc3ccad911"
          },
          {
            "reference": "urn:uuid:6f27acc2-800d-47d0-8bc7-16fce2461d30"
          },
          {
            "reference": "urn:uuid:a227b7a8-8cb9-4f7a-8605-3599891cbdf7"
          },
          {
            "reference": "urn:uuid:d3935c04-5cab-46ba-bfc5-b62a945277de"
          },
          {
            "reference": "urn:uuid:58c0f220-c498-4210-a97c-2129185f2147"
          },
          {
            "reference": "urn:uuid:16cfa51e-5cab-4d0d-9e3d-32bca08e5c98"
          },
          {
            "reference": "urn:uuid:f2fd67af-b0c0-47ff-a2db-2c5974584d64"
          },
          {
            "reference": "urn:uuid:83aef9f6-ebca-43df-ab47-c47834987da1"
          }
        ],
        "status": "registered",
        "code": {
          "coding": [
            {
              "code": "11502-2",
              "system": "http://loinc.org",
              "display": "Laboratory report"
            }
          ]
        },
        "subject": {
          "reference": "urn:uuid:14446ef8-60c9-4a66-9ea3-8523a72c331c",
          "display": "Ludmila Vávrová"
        }
      }
    },
    {
      "fullUrl": "urn:uuid:14446ef8-60c9-4a66-9ea3-8523a72c331c",
      "resource": {
        "resourceType": "Patient",
        "id": "14446ef8-60c9-4a66-9ea3-8523a72c331c",
        "meta": {
          "security": [
            {
              "system": "http://terminology.hl7.org/CodeSystem/v3-ActReason",
              "code": "HTEST"
            },
            {
              "system": "http://terminology.hl7.org/CodeSystem/v3-ActReason",
              "code": "TRAIN"
            }
          ],
          "tag": [
            {
              "system": "https://synderai.net/fhir/CodeSystem/tags",
              "code": "synthetic",
              "display": "SYNDERAI Synthetic data"
            }
          ],
          "profile": [
            "http://hl7.eu/fhir/base/StructureDefinition/patient-eu-core"
          ]
        },
        "identifier": [
          {
            "type": {
              "coding": [
                {
                  "code": "PT",
                  "system": "http://terminology.hl7.org/CodeSystem/v2-0203"
                }
              ]
            },
            "system": "http://ec.europa.eu/identifier/eci",
            "value": "1992-540676-1"
          },
          {
            "type": {
              "coding": [
                {
                  "code": "MR",
                  "system": "http://terminology.hl7.org/CodeSystem/v2-0203"
                }
              ]
            },
            "system": "http://local.setting.eu/identifier",
            "value": "7c533aae-6e7f-89aa-dfdc-8ff900a5990b"
          }
        ],
        "name": [
          {
            "family": "Vávrová"
          },
          {
            "given": [
              "Ludmila"
            ]
          },
          {
            "text": "Ludmila Vávrová"
          }
        ],
        "address": [
          {
            "line": [
              "Šárovo Kolo 116"
            ],
            "use": "home",
            "type": "physical",
            "postalCode": "29471",
            "city": "Bakov nad Jizerou",
            "country": "Czechia"
          }
        ],
        "telecom": [
          {
            "system": "phone",
            "value": "00420 607 610 889"
          }
        ],
        "extension": [
          {
            "url": "http://hl7.org/fhir/StructureDefinition/patient-nationality",
            "valueCodeableConcept": {
              "coding": [
                {
                  "code": "CZ",
                  "system": "http://hl7.org/fhir/ValueSet/country"
                }
              ]
            }
          }
        ],
        "text": {
          "status": "generated",
          "div": "<div xmlns=\"http://www.w3.org/1999/xhtml\"><table class=\"hl7__ips\"><tr><td>Ludmila Vávrová</td><td>female</td><td>08-Aug-1940</td></tr></table></div>"
        },
        "gender": "female",
        "birthDate": "1940-08-08"
      }
    },
    {
      "fullUrl": "urn:uuid:0ea127be-8b8d-4df0-a42c-b2c43fc097d7",
      "resource": {
        "resourceType": "ServiceRequest",
        "id": "0ea127be-8b8d-4df0-a42c-b2c43fc097d7",
        "meta": {
          "profile": [
            "http://hl7.eu/fhir/laboratory/StructureDefinition/ServiceRequest-eu-lab"
          ]
        },
        "identifier": [
          {
            "system": "http://example.org",
            "value": "f99f374c-bcb6-4458-a1df-52d4087bc7d7"
          }
        ],
        "specimen": [
          {
            "reference": "urn:uuid:69a7e0a8-cf64-4eb5-a67d-ae8fa46fa2f1"
          },
          {
            "reference": "urn:uuid:6227e6c1-9f3b-4624-b7bb-211e0a703411"
          },
          {
            "reference": "urn:uuid:dce51d23-aa71-48f2-95eb-b96f58b26f3f"
          }
        ],
        "reasonCode": [
          {
            "coding": [
              {
                "code": "414545008",
                "system": "http://snomed.info/sct",
                "display": "Ischemic heart disease"
              }
            ]
          },
          {
            "coding": [
              {
                "code": "64859006",
                "system": "http://snomed.info/sct",
                "display": "Osteoporosis"
              }
            ]
          },
          {
            "coding": [
              {
                "code": "6525002",
                "system": "http://snomed.info/sct",
                "display": "Dependent drug abuse"
              }
            ]
          },
          {
            "coding": [
              {
                "code": "55822004",
                "system": "http://snomed.info/sct",
                "display": "Hyperlipidemia"
              }
            ]
          },
          {
            "coding": [
              {
                "code": "124171000119105",
                "system": "http://snomed.info/sct",
                "display": "Chronic intractable migraine without aura"
              }
            ]
          },
          {
            "coding": [
              {
                "code": "196416002",
                "system": "http://snomed.info/sct",
                "display": "Impacted molars"
              }
            ]
          },
          {
            "coding": [
              {
                "code": "239872002",
                "system": "http://snomed.info/sct",
                "display": "Osteoarthritis of hip"
              }
            ]
          },
          {
            "coding": [
              {
                "code": "40055000",
                "system": "http://snomed.info/sct",
                "display": "Chronic sinusitis"
              }
            ]
          }
        ],
        "status": "active",
        "intent": "order",
        "code": {
          "coding": [
            {
              "code": "108252007",
              "system": "http://snomed.info/sct",
              "display": "Laboratory procedure"
            }
          ]
        },
        "subject": {
          "reference": "urn:uuid:14446ef8-60c9-4a66-9ea3-8523a72c331c",
          "display": "Ludmila Vávrová"
        },
        "requester": {
          "reference": "urn:uuid:d4bd9dd2-b576-42de-aa79-a1aaca537c66"
        }
      }
    },
    {
      "fullUrl": "urn:uuid:d4bd9dd2-b576-42de-aa79-a1aaca537c66",
      "resource": {
        "resourceType": "PractitionerRole",
        "id": "d4bd9dd2-b576-42de-aa79-a1aaca537c66",
        "meta": {
          "profile": [
            "http://hl7.eu/fhir/base/StructureDefinition/practitionerRole-eu"
          ]
        },
        "text": {
          "status": "generated",
          "div": "<div xmlns=\"http://www.w3.org/1999/xhtml\">Provider Role Id: d4bd9dd2-b576-42de-aa79-a1aaca537c66</div>"
        },
        "organization": {
          "reference": "urn:uuid:6a2846f7-3fe0-4b93-81c9-95810c3b83f1"
        }
      }
    },
    {
      "fullUrl": "urn:uuid:6a2846f7-3fe0-4b93-81c9-95810c3b83f1",
      "resource": {
        "resourceType": "Organization",
        "id": "6a2846f7-3fe0-4b93-81c9-95810c3b83f1",
        "meta": {
          "profile": [
            "http://hl7.eu/fhir/base/StructureDefinition/organization-eu"
          ]
        },
        "identifier": [
          {
            "assigner": {
              "display": "HL7 Europe"
            },
            "system": "urn:oid:2.16.840.1.113883.2.51.999",
            "value": "d93e37b9-d776-44ad-acc2-ec6d4404688f"
          }
        ],
        "address": [
          {
            "city": "Kosmonosy",
            "postalCode": "293 06",
            "country": "Czechia"
          }
        ],
        "text": {
          "status": "generated",
          "div": "<div xmlns=\"http://www.w3.org/1999/xhtml\">Provider Organization: Psychiatrická nemocnice Kosmonosy</div>"
        },
        "name": "Psychiatrická nemocnice Kosmonosy"
      }
    },
    {
      "fullUrl": "urn:uuid:69a7e0a8-cf64-4eb5-a67d-ae8fa46fa2f1",
      "resource": {
        "resourceType": "Specimen",
        "id": "69a7e0a8-cf64-4eb5-a67d-ae8fa46fa2f1",
        "meta": {
          "profile": [
            "http://hl7.eu/fhir/laboratory/StructureDefinition/Specimen-eu-lab"
          ]
        },
        "collection": {
          "collectedDateTime": "2015-10-15"
        },
        "text": {
          "status": "generated",
          "div": "<div xmlns=\"http://www.w3.org/1999/xhtml\"><table class=\"hl7__eu__lab__report\"><tr><th>Specimen</th><th>Collection Date</th></tr><tr><td>Whole blood specimen (specimen)</td><td><span class=\"nb\">15-Oct-2015</span></td></tr></table></div>"
        },
        "type": {
          "coding": [
            {
              "code": "258580003",
              "system": "http://snomed.info/sct",
              "display": "Whole blood specimen (specimen)"
            }
          ]
        }
      }
    },
    {
      "fullUrl": "urn:uuid:6227e6c1-9f3b-4624-b7bb-211e0a703411",
      "resource": {
        "resourceType": "Specimen",
        "id": "6227e6c1-9f3b-4624-b7bb-211e0a703411",
        "meta": {
          "profile": [
            "http://hl7.eu/fhir/laboratory/StructureDefinition/Specimen-eu-lab"
          ]
        },
        "collection": {
          "collectedDateTime": "2015-10-15"
        },
        "text": {
          "status": "generated",
          "div": "<div xmlns=\"http://www.w3.org/1999/xhtml\"><table class=\"hl7__eu__lab__report\"><tr><th>Specimen</th><th>Collection Date</th></tr><tr><td>Acellular blood (serum or plasma) specimen</td><td><span class=\"nb\">15-Oct-2015</span></td></tr></table></div>"
        },
        "type": {
          "coding": [
            {
              "code": "122592007",
              "system": "http://snomed.info/sct",
              "display": "Acellular blood (serum or plasma) specimen"
            }
          ]
        }
      }
    },
    {
      "fullUrl": "urn:uuid:dce51d23-aa71-48f2-95eb-b96f58b26f3f",
      "resource": {
        "resourceType": "Specimen",
        "id": "dce51d23-aa71-48f2-95eb-b96f58b26f3f",
        "meta": {
          "profile": [
            "http://hl7.eu/fhir/laboratory/StructureDefinition/Specimen-eu-lab"
          ]
        },
        "collection": {
          "collectedDateTime": "2015-10-15"
        },
        "text": {
          "status": "generated",
          "div": "<div xmlns=\"http://www.w3.org/1999/xhtml\"><table class=\"hl7__eu__lab__report\"><tr><th>Specimen</th><th>Collection Date</th></tr><tr><td>Serum specimen</td><td><span class=\"nb\">15-Oct-2015</span></td></tr></table></div>"
        },
        "type": {
          "coding": [
            {
              "code": "119364003",
              "system": "http://snomed.info/sct",
              "display": "Serum specimen"
            }
          ]
        }
      }
    },
    {
      "fullUrl": "urn:uuid:1855624f-9fd7-4f8c-9f74-67f7b9d798eb",
      "resource": {
        "resourceType": "Observation",
        "id": "1855624f-9fd7-4f8c-9f74-67f7b9d798eb",
        "meta": {
          "profile": [
            "http://hl7.eu/fhir/laboratory/StructureDefinition/Observation-resultslab-eu-lab"
          ]
        },
        "performer": [
          {
            "display": "The Central European Lab"
          }
        ],
        "category": [
          {
            "coding": [
              {
                "system": "http://terminology.hl7.org/CodeSystem/observation-category",
                "code": "laboratory"
              }
            ]
          }
        ],
        "code": {
          "coding": [
            {
              "code": "2339-0",
              "system": "http://loinc.org",
              "display": "Glucose [Mass/volume] in Blood"
            }
          ],
          "text": "Glucose [Mass/volume] in Blood"
        },
        "valueQuantity": {
          "system": "http://unitsofmeasure.org",
          "value": 78.4,
          "unit": "mg/dL",
          "code": "mg/dL"
        },
        "referenceRange": [
          {
            "low": {
              "value": 70,
              "code": "mg/dL",
              "system": "http://unitsofmeasure.org"
            }
          },
          {
            "high": {
              "value": 140,
              "code": "mg/dL",
              "system": "http://unitsofmeasure.org"
            }
          }
        ],
        "text": {
          "status": "generated",
          "div": "<div xmlns=\"http://www.w3.org/1999/xhtml\"><table class=\"hl7__eu__lab__report\"><tr><th>Test</th><th>15-Oct-2015</th><th>Reference&#xA0;Range</th><th>Unit</th></tr><tr><td>Glucose [Mass/volume] in Blood</td><td>78.4</td><td>70 - 140</td><td></td><td>mg/dL</td></tr></table></div>"
        },
        "status": "final",
        "subject": {
          "reference": "urn:uuid:14446ef8-60c9-4a66-9ea3-8523a72c331c",
          "display": "Ludmila Vávrová"
        },
        "effectiveDateTime": "2015-10-15T03:51:38Z",
        "specimen": {
          "reference": "urn:uuid:69a7e0a8-cf64-4eb5-a67d-ae8fa46fa2f1"
        }
      }
    },
    {
      "fullUrl": "urn:uuid:ec73b0ad-762a-4d5d-bc90-74a71136509d",
      "resource": {
        "resourceType": "Observation",
        "id": "ec73b0ad-762a-4d5d-bc90-74a71136509d",
        "meta": {
          "profile": [
            "http://hl7.eu/fhir/laboratory/StructureDefinition/Observation-resultslab-eu-lab"
          ]
        },
        "performer": [
          {
            "display": "The Central European Lab"
          }
        ],
        "category": [
          {
            "coding": [
              {
                "system": "http://terminology.hl7.org/CodeSystem/observation-category",
                "code": "laboratory"
              }
            ]
          }
        ],
        "code": {
          "coding": [
            {
              "code": "6299-2",
              "system": "http://loinc.org",
              "display": "Urea nitrogen [Mass/volume] in Blood"
            }
          ],
          "text": "Urea nitrogen [Mass/volume] in Blood"
        },
        "valueQuantity": {
          "system": "http://unitsofmeasure.org",
          "value": 17.2,
          "unit": "mg/dL",
          "code": "mg/dL"
        },
        "referenceRange": [
          {
            "low": {
              "value": 7,
              "code": "mg/dL",
              "system": "http://unitsofmeasure.org"
            }
          },
          {
            "high": {
              "value": 25,
              "code": "mg/dL",
              "system": "http://unitsofmeasure.org"
            }
          }
        ],
        "text": {
          "status": "generated",
          "div": "<div xmlns=\"http://www.w3.org/1999/xhtml\"><table class=\"hl7__eu__lab__report\"><tr><th>Test</th><th>15-Oct-2015</th><th>Reference&#xA0;Range</th><th>Unit</th></tr><tr><td>Urea nitrogen [Mass/volume] in Blood</td><td>17.2</td><td>7 - 25</td><td></td><td>mg/dL</td></tr></table></div>"
        },
        "status": "final",
        "subject": {
          "reference": "urn:uuid:14446ef8-60c9-4a66-9ea3-8523a72c331c",
          "display": "Ludmila Vávrová"
        },
        "effectiveDateTime": "2015-10-15T03:51:38Z",
        "specimen": {
          "reference": "urn:uuid:69a7e0a8-cf64-4eb5-a67d-ae8fa46fa2f1"
        }
      }
    },
    {
      "fullUrl": "urn:uuid:6bf10e89-fd21-42bd-89b5-fc3f28005c12",
      "resource": {
        "resourceType": "Observation",
        "id": "6bf10e89-fd21-42bd-89b5-fc3f28005c12",
        "meta": {
          "profile": [
            "http://hl7.eu/fhir/laboratory/StructureDefinition/Observation-resultslab-eu-lab"
          ]
        },
        "performer": [
          {
            "display": "The Central European Lab"
          }
        ],
        "category": [
          {
            "coding": [
              {
                "system": "http://terminology.hl7.org/CodeSystem/observation-category",
                "code": "laboratory"
              }
            ]
          }
        ],
        "code": {
          "coding": [
            {
              "code": "38483-4",
              "system": "http://loinc.org",
              "display": "Creatinine [Mass/volume] in Blood"
            }
          ],
          "text": "Creatinine [Mass/volume] in Blood"
        },
        "valueQuantity": {
          "system": "http://unitsofmeasure.org",
          "value": 2.8,
          "unit": "mg/dL",
          "code": "mg/dL"
        },
        "referenceRange": [
          {
            "low": {
              "value": 0.6,
              "code": "mg/dL",
              "system": "http://unitsofmeasure.org"
            }
          },
          {
            "high": {
              "value": 1.1,
              "code": "mg/dL",
              "system": "http://unitsofmeasure.org"
            }
          }
        ],
        "interpretation": [
          {
            "coding": [
              {
                "code": "H",
                "system": "http://terminology.hl7.org/CodeSystem/v3-ObservationInterpretation",
                "display": "High"
              }
            ]
          }
        ],
        "text": {
          "status": "generated",
          "div": "<div xmlns=\"http://www.w3.org/1999/xhtml\"><table class=\"hl7__eu__lab__report\"><tr><th>Test</th><th>15-Oct-2015</th><th>Reference&#xA0;Range</th><th>Unit</th></tr><tr><td>Creatinine [Mass/volume] in Blood</td><td>2.8</td><td>0.6 - 1.1</td><td>H</td><td>mg/dL</td></tr></table></div>"
        },
        "status": "final",
        "subject": {
          "reference": "urn:uuid:14446ef8-60c9-4a66-9ea3-8523a72c331c",
          "display": "Ludmila Vávrová"
        },
        "effectiveDateTime": "2015-10-15T03:51:38Z",
        "specimen": {
          "reference": "urn:uuid:69a7e0a8-cf64-4eb5-a67d-ae8fa46fa2f1"
        }
      }
    },
    {
      "fullUrl": "urn:uuid:35ca2b13-4605-4249-8a03-405d5774cbe4",
      "resource": {
        "resourceType": "Observation",
        "id": "35ca2b13-4605-4249-8a03-405d5774cbe4",
        "meta": {
          "profile": [
            "http://hl7.eu/fhir/laboratory/StructureDefinition/Observation-resultslab-eu-lab"
          ]
        },
        "performer": [
          {
            "display": "The Central European Lab"
          }
        ],
        "category": [
          {
            "coding": [
              {
                "system": "http://terminology.hl7.org/CodeSystem/observation-category",
                "code": "laboratory"
              }
            ]
          }
        ],
        "code": {
          "coding": [
            {
              "code": "49765-1",
              "system": "http://loinc.org",
              "display": "Calcium [Mass/volume] in Blood"
            }
          ],
          "text": "Calcium [Mass/volume] in Blood"
        },
        "valueQuantity": {
          "system": "http://unitsofmeasure.org",
          "value": 10.1,
          "unit": "mg/dL",
          "code": "mg/dL"
        },
        "referenceRange": [
          {
            "low": {
              "value": 8.6,
              "code": "mg/dL",
              "system": "http://unitsofmeasure.org"
            }
          },
          {
            "high": {
              "value": 10.4,
              "code": "mg/dL",
              "system": "http://unitsofmeasure.org"
            }
          }
        ],
        "text": {
          "status": "generated",
          "div": "<div xmlns=\"http://www.w3.org/1999/xhtml\"><table class=\"hl7__eu__lab__report\"><tr><th>Test</th><th>15-Oct-2015</th><th>Reference&#xA0;Range</th><th>Unit</th></tr><tr><td>Calcium [Mass/volume] in Blood</td><td>10.1</td><td>8.6 - 10.4</td><td></td><td>mg/dL</td></tr></table></div>"
        },
        "status": "final",
        "subject": {
          "reference": "urn:uuid:14446ef8-60c9-4a66-9ea3-8523a72c331c",
          "display": "Ludmila Vávrová"
        },
        "effectiveDateTime": "2015-10-15T03:51:38Z",
        "specimen": {
          "reference": "urn:uuid:69a7e0a8-cf64-4eb5-a67d-ae8fa46fa2f1"
        }
      }
    },
    {
      "fullUrl": "urn:uuid:aa582b08-08c7-47e9-b2a8-682d515a3cc5",
      "resource": {
        "resourceType": "Observation",
        "id": "aa582b08-08c7-47e9-b2a8-682d515a3cc5",
        "meta": {
          "profile": [
            "http://hl7.eu/fhir/laboratory/StructureDefinition/Observation-resultslab-eu-lab"
          ]
        },
        "performer": [
          {
            "display": "The Central European Lab"
          }
        ],
        "category": [
          {
            "coding": [
              {
                "system": "http://terminology.hl7.org/CodeSystem/observation-category",
                "code": "laboratory"
              }
            ]
          }
        ],
        "code": {
          "coding": [
            {
              "code": "2947-0",
              "system": "http://loinc.org",
              "display": "Sodium [Moles/volume] in Blood"
            }
          ],
          "text": "Sodium [Moles/volume] in Blood"
        },
        "valueQuantity": {
          "system": "http://unitsofmeasure.org",
          "value": 138.2,
          "unit": "mmol/L",
          "code": "mmol/L"
        },
        "referenceRange": [
          {
            "low": {
              "value": 135,
              "code": "mmol/L",
              "system": "http://unitsofmeasure.org"
            }
          },
          {
            "high": {
              "value": 145,
              "code": "mmol/L",
              "system": "http://unitsofmeasure.org"
            }
          }
        ],
        "text": {
          "status": "generated",
          "div": "<div xmlns=\"http://www.w3.org/1999/xhtml\"><table class=\"hl7__eu__lab__report\"><tr><th>Test</th><th>15-Oct-2015</th><th>Reference&#xA0;Range</th><th>Unit</th></tr><tr><td>Sodium [Moles/volume] in Blood</td><td>138.2</td><td>135 - 145</td><td></td><td>mmol/L</td></tr></table></div>"
        },
        "status": "final",
        "subject": {
          "reference": "urn:uuid:14446ef8-60c9-4a66-9ea3-8523a72c331c",
          "display": "Ludmila Vávrová"
        },
        "effectiveDateTime": "2015-10-15T03:51:38Z",
        "specimen": {
          "reference": "urn:uuid:69a7e0a8-cf64-4eb5-a67d-ae8fa46fa2f1"
        }
      }
    },
    {
      "fullUrl": "urn:uuid:2be773ef-406d-4775-9484-2970bf6563d4",
      "resource": {
        "resourceType": "Observation",
        "id": "2be773ef-406d-4775-9484-2970bf6563d4",
        "meta": {
          "profile": [
            "http://hl7.eu/fhir/laboratory/StructureDefinition/Observation-resultslab-eu-lab"
          ]
        },
        "performer": [
          {
            "display": "The Central European Lab"
          }
        ],
        "category": [
          {
            "coding": [
              {
                "system": "http://terminology.hl7.org/CodeSystem/observation-category",
                "code": "laboratory"
              }
            ]
          }
        ],
        "code": {
          "coding": [
            {
              "code": "6298-4",
              "system": "http://loinc.org",
              "display": "Potassium [Moles/volume] in Blood"
            }
          ],
          "text": "Potassium [Moles/volume] in Blood"
        },
        "valueQuantity": {
          "system": "http://unitsofmeasure.org",
          "value": 4.9,
          "unit": "mmol/L",
          "code": "mmol/L"
        },
        "referenceRange": [
          {
            "low": {
              "value": 3.5,
              "code": "mmol/L",
              "system": "http://unitsofmeasure.org"
            }
          },
          {
            "high": {
              "value": 5.3,
              "code": "mmol/L",
              "system": "http://unitsofmeasure.org"
            }
          }
        ],
        "text": {
          "status": "generated",
          "div": "<div xmlns=\"http://www.w3.org/1999/xhtml\"><table class=\"hl7__eu__lab__report\"><tr><th>Test</th><th>15-Oct-2015</th><th>Reference&#xA0;Range</th><th>Unit</th></tr><tr><td>Potassium [Moles/volume] in Blood</td><td>4.9</td><td>3.5 - 5.3</td><td></td><td>mmol/L</td></tr></table></div>"
        },
        "status": "final",
        "subject": {
          "reference": "urn:uuid:14446ef8-60c9-4a66-9ea3-8523a72c331c",
          "display": "Ludmila Vávrová"
        },
        "effectiveDateTime": "2015-10-15T03:51:38Z",
        "specimen": {
          "reference": "urn:uuid:69a7e0a8-cf64-4eb5-a67d-ae8fa46fa2f1"
        }
      }
    },
    {
      "fullUrl": "urn:uuid:7be9be36-da3f-41b7-b1d2-1484e663ba1b",
      "resource": {
        "resourceType": "Observation",
        "id": "7be9be36-da3f-41b7-b1d2-1484e663ba1b",
        "meta": {
          "profile": [
            "http://hl7.eu/fhir/laboratory/StructureDefinition/Observation-resultslab-eu-lab"
          ]
        },
        "performer": [
          {
            "display": "The Central European Lab"
          }
        ],
        "category": [
          {
            "coding": [
              {
                "system": "http://terminology.hl7.org/CodeSystem/observation-category",
                "code": "laboratory"
              }
            ]
          }
        ],
        "code": {
          "coding": [
            {
              "code": "2069-3",
              "system": "http://loinc.org",
              "display": "Chloride [Moles/volume] in Blood"
            }
          ],
          "text": "Chloride [Moles/volume] in Blood"
        },
        "valueQuantity": {
          "system": "http://unitsofmeasure.org",
          "value": 108.5,
          "unit": "mmol/L",
          "code": "mmol/L"
        },
        "referenceRange": [
          {
            "low": {
              "value": 98,
              "code": "mmol/L",
              "system": "http://unitsofmeasure.org"
            }
          },
          {
            "high": {
              "value": 108,
              "code": "mmol/L",
              "system": "http://unitsofmeasure.org"
            }
          }
        ],
        "interpretation": [
          {
            "coding": [
              {
                "code": "H",
                "system": "http://terminology.hl7.org/CodeSystem/v3-ObservationInterpretation",
                "display": "High"
              }
            ]
          }
        ],
        "text": {
          "status": "generated",
          "div": "<div xmlns=\"http://www.w3.org/1999/xhtml\"><table class=\"hl7__eu__lab__report\"><tr><th>Test</th><th>15-Oct-2015</th><th>Reference&#xA0;Range</th><th>Unit</th></tr><tr><td>Chloride [Moles/volume] in Blood</td><td>108.5</td><td>98 - 108</td><td>H</td><td>mmol/L</td></tr></table></div>"
        },
        "status": "final",
        "subject": {
          "reference": "urn:uuid:14446ef8-60c9-4a66-9ea3-8523a72c331c",
          "display": "Ludmila Vávrová"
        },
        "effectiveDateTime": "2015-10-15T03:51:38Z",
        "specimen": {
          "reference": "urn:uuid:69a7e0a8-cf64-4eb5-a67d-ae8fa46fa2f1"
        }
      }
    },
    {
      "fullUrl": "urn:uuid:364cb3ec-f137-4554-a8ac-dee04f4d0bba",
      "resource": {
        "resourceType": "Observation",
        "id": "364cb3ec-f137-4554-a8ac-dee04f4d0bba",
        "meta": {
          "profile": [
            "http://hl7.eu/fhir/laboratory/StructureDefinition/Observation-resultslab-eu-lab"
          ]
        },
        "performer": [
          {
            "display": "The Central European Lab"
          }
        ],
        "category": [
          {
            "coding": [
              {
                "system": "http://terminology.hl7.org/CodeSystem/observation-category",
                "code": "laboratory"
              }
            ]
          }
        ],
        "code": {
          "coding": [
            {
              "code": "20565-8",
              "system": "http://loinc.org",
              "display": "Carbon dioxide, total [Moles/volume] in Blood"
            }
          ],
          "text": "Carbon dioxide, total [Moles/volume] in Blood"
        },
        "valueQuantity": {
          "system": "http://unitsofmeasure.org",
          "value": 27,
          "unit": "mmol/L",
          "code": "mmol/L"
        },
        "referenceRange": [
          {
            "low": {
              "value": 22,
              "code": "mmol/L",
              "system": "http://unitsofmeasure.org"
            }
          },
          {
            "high": {
              "value": 32,
              "code": "mmol/L",
              "system": "http://unitsofmeasure.org"
            }
          }
        ],
        "text": {
          "status": "generated",
          "div": "<div xmlns=\"http://www.w3.org/1999/xhtml\"><table class=\"hl7__eu__lab__report\"><tr><th>Test</th><th>15-Oct-2015</th><th>Reference&#xA0;Range</th><th>Unit</th></tr><tr><td>Carbon dioxide, total [Moles/volume] in Blood</td><td>27.0</td><td>22 - 32</td><td></td><td>mmol/L</td></tr></table></div>"
        },
        "status": "final",
        "subject": {
          "reference": "urn:uuid:14446ef8-60c9-4a66-9ea3-8523a72c331c",
          "display": "Ludmila Vávrová"
        },
        "effectiveDateTime": "2015-10-15T03:51:38Z",
        "specimen": {
          "reference": "urn:uuid:69a7e0a8-cf64-4eb5-a67d-ae8fa46fa2f1"
        }
      }
    },
    {
      "fullUrl": "urn:uuid:89d03d16-1611-4556-b07f-ec3da86b003e",
      "resource": {
        "resourceType": "Observation",
        "id": "89d03d16-1611-4556-b07f-ec3da86b003e",
        "meta": {
          "profile": [
            "http://hl7.eu/fhir/laboratory/StructureDefinition/Observation-resultslab-eu-lab"
          ]
        },
        "performer": [
          {
            "display": "The Central European Lab"
          }
        ],
        "category": [
          {
            "coding": [
              {
                "system": "http://terminology.hl7.org/CodeSystem/observation-category",
                "code": "laboratory"
              }
            ]
          }
        ],
        "code": {
          "coding": [
            {
              "code": "2885-2",
              "system": "http://loinc.org",
              "display": "Protein [Mass/volume] in Serum or Plasma"
            }
          ],
          "text": "Protein [Mass/volume] in Serum or Plasma"
        },
        "valueQuantity": {
          "system": "http://unitsofmeasure.org",
          "value": 7.3,
          "unit": "g/dL",
          "code": "g/dL"
        },
        "referenceRange": [
          {
            "low": {
              "value": 6.6,
              "code": "g/dL",
              "system": "http://unitsofmeasure.org"
            }
          },
          {
            "high": {
              "value": 8.3,
              "code": "g/dL",
              "system": "http://unitsofmeasure.org"
            }
          }
        ],
        "text": {
          "status": "generated",
          "div": "<div xmlns=\"http://www.w3.org/1999/xhtml\"><table class=\"hl7__eu__lab__report\"><tr><th>Test</th><th>15-Oct-2015</th><th>Reference&#xA0;Range</th><th>Unit</th></tr><tr><td>Protein [Mass/volume] in Serum or Plasma</td><td>7.3</td><td>6.6 - 8.3</td><td></td><td>g/dL</td></tr></table></div>"
        },
        "status": "final",
        "subject": {
          "reference": "urn:uuid:14446ef8-60c9-4a66-9ea3-8523a72c331c",
          "display": "Ludmila Vávrová"
        },
        "effectiveDateTime": "2015-10-15T03:51:38Z",
        "specimen": {
          "reference": "urn:uuid:6227e6c1-9f3b-4624-b7bb-211e0a703411"
        }
      }
    },
    {
      "fullUrl": "urn:uuid:571fd47a-767e-4b31-a0d8-01d75b048db6",
      "resource": {
        "resourceType": "Observation",
        "id": "571fd47a-767e-4b31-a0d8-01d75b048db6",
        "meta": {
          "profile": [
            "http://hl7.eu/fhir/laboratory/StructureDefinition/Observation-resultslab-eu-lab"
          ]
        },
        "performer": [
          {
            "display": "The Central European Lab"
          }
        ],
        "category": [
          {
            "coding": [
              {
                "system": "http://terminology.hl7.org/CodeSystem/observation-category",
                "code": "laboratory"
              }
            ]
          }
        ],
        "code": {
          "coding": [
            {
              "code": "1751-7",
              "system": "http://loinc.org",
              "display": "Albumin [Mass/volume] in Serum or Plasma"
            }
          ],
          "text": "Albumin [Mass/volume] in Serum or Plasma"
        },
        "valueQuantity": {
          "system": "http://unitsofmeasure.org",
          "value": 5.1,
          "unit": "g/dL",
          "code": "g/dL"
        },
        "referenceRange": [
          {
            "low": {
              "value": 3.5,
              "code": "g/dL",
              "system": "http://unitsofmeasure.org"
            }
          },
          {
            "high": {
              "value": 5.5,
              "code": "g/dL",
              "system": "http://unitsofmeasure.org"
            }
          }
        ],
        "text": {
          "status": "generated",
          "div": "<div xmlns=\"http://www.w3.org/1999/xhtml\"><table class=\"hl7__eu__lab__report\"><tr><th>Test</th><th>15-Oct-2015</th><th>Reference&#xA0;Range</th><th>Unit</th></tr><tr><td>Albumin [Mass/volume] in Serum or Plasma</td><td>5.1</td><td>3.5 - 5.5</td><td></td><td>g/dL</td></tr></table></div>"
        },
        "status": "final",
        "subject": {
          "reference": "urn:uuid:14446ef8-60c9-4a66-9ea3-8523a72c331c",
          "display": "Ludmila Vávrová"
        },
        "effectiveDateTime": "2015-10-15T03:51:38Z",
        "specimen": {
          "reference": "urn:uuid:6227e6c1-9f3b-4624-b7bb-211e0a703411"
        }
      }
    },
    {
      "fullUrl": "urn:uuid:0f2edc63-5e38-4673-a8cc-d8bb249d73a1",
      "resource": {
        "resourceType": "Observation",
        "id": "0f2edc63-5e38-4673-a8cc-d8bb249d73a1",
        "meta": {
          "profile": [
            "http://hl7.eu/fhir/laboratory/StructureDefinition/Observation-resultslab-eu-lab"
          ]
        },
        "performer": [
          {
            "display": "The Central European Lab"
          }
        ],
        "category": [
          {
            "coding": [
              {
                "system": "http://terminology.hl7.org/CodeSystem/observation-category",
                "code": "laboratory"
              }
            ]
          }
        ],
        "code": {
          "coding": [
            {
              "code": "10834-0",
              "system": "http://loinc.org",
              "display": "Globulin [Mass/volume] in Serum by calculation"
            }
          ],
          "text": "Globulin [Mass/volume] in Serum by calculation"
        },
        "valueQuantity": {
          "system": "http://unitsofmeasure.org",
          "value": 2.9,
          "unit": "g/L",
          "code": "g/L"
        },
        "referenceRange": [
          {
            "low": {
              "value": 2.2,
              "code": "g/L",
              "system": "http://unitsofmeasure.org"
            }
          },
          {
            "high": {
              "value": 3.7,
              "code": "g/L",
              "system": "http://unitsofmeasure.org"
            }
          }
        ],
        "text": {
          "status": "generated",
          "div": "<div xmlns=\"http://www.w3.org/1999/xhtml\"><table class=\"hl7__eu__lab__report\"><tr><th>Test</th><th>15-Oct-2015</th><th>Reference&#xA0;Range</th><th>Unit</th></tr><tr><td>Globulin [Mass/volume] in Serum by calculation</td><td>2.9</td><td>2.2 - 3.7</td><td></td><td>g/L</td></tr></table></div>"
        },
        "status": "final",
        "subject": {
          "reference": "urn:uuid:14446ef8-60c9-4a66-9ea3-8523a72c331c",
          "display": "Ludmila Vávrová"
        },
        "effectiveDateTime": "2015-10-15T03:51:38Z",
        "specimen": {
          "reference": "urn:uuid:dce51d23-aa71-48f2-95eb-b96f58b26f3f"
        }
      }
    },
    {
      "fullUrl": "urn:uuid:9798022c-9caf-40d6-8228-becc3ccad911",
      "resource": {
        "resourceType": "Observation",
        "id": "9798022c-9caf-40d6-8228-becc3ccad911",
        "meta": {
          "profile": [
            "http://hl7.eu/fhir/laboratory/StructureDefinition/Observation-resultslab-eu-lab"
          ]
        },
        "performer": [
          {
            "display": "The Central European Lab"
          }
        ],
        "category": [
          {
            "coding": [
              {
                "system": "http://terminology.hl7.org/CodeSystem/observation-category",
                "code": "laboratory"
              }
            ]
          }
        ],
        "code": {
          "coding": [
            {
              "code": "1975-2",
              "system": "http://loinc.org",
              "display": "Bilirubin.total [Mass/volume] in Serum or Plasma"
            }
          ],
          "text": "Bilirubin.total [Mass/volume] in Serum or Plasma"
        },
        "valueQuantity": {
          "system": "http://unitsofmeasure.org",
          "value": 0.4,
          "unit": "mg/dL",
          "code": "mg/dL"
        },
        "referenceRange": [
          {
            "low": {
              "value": 0.3,
              "code": "mg/dL",
              "system": "http://unitsofmeasure.org"
            }
          },
          {
            "high": {
              "value": 1.2,
              "code": "mg/dL",
              "system": "http://unitsofmeasure.org"
            }
          }
        ],
        "text": {
          "status": "generated",
          "div": "<div xmlns=\"http://www.w3.org/1999/xhtml\"><table class=\"hl7__eu__lab__report\"><tr><th>Test</th><th>15-Oct-2015</th><th>Reference&#xA0;Range</th><th>Unit</th></tr><tr><td>Bilirubin.total [Mass/volume] in Serum or Plasma</td><td>0.4</td><td>0.3 - 1.2</td><td></td><td>mg/dL</td></tr></table></div>"
        },
        "status": "final",
        "subject": {
          "reference": "urn:uuid:14446ef8-60c9-4a66-9ea3-8523a72c331c",
          "display": "Ludmila Vávrová"
        },
        "effectiveDateTime": "2015-10-15T03:51:38Z",
        "specimen": {
          "reference": "urn:uuid:6227e6c1-9f3b-4624-b7bb-211e0a703411"
        }
      }
    },
    {
      "fullUrl": "urn:uuid:6f27acc2-800d-47d0-8bc7-16fce2461d30",
      "resource": {
        "resourceType": "Observation",
        "id": "6f27acc2-800d-47d0-8bc7-16fce2461d30",
        "meta": {
          "profile": [
            "http://hl7.eu/fhir/laboratory/StructureDefinition/Observation-resultslab-eu-lab"
          ]
        },
        "performer": [
          {
            "display": "The Central European Lab"
          }
        ],
        "category": [
          {
            "coding": [
              {
                "system": "http://terminology.hl7.org/CodeSystem/observation-category",
                "code": "laboratory"
              }
            ]
          }
        ],
        "code": {
          "coding": [
            {
              "code": "6768-6",
              "system": "http://loinc.org",
              "display": "Alkaline phosphatase [Enzymatic activity/volume] in Serum or Plasma"
            }
          ],
          "text": "Alkaline phosphatase [Enzymatic activity/volume] in Serum or Plasma"
        },
        "valueQuantity": {
          "system": "http://unitsofmeasure.org",
          "value": 66.9,
          "unit": "U/L",
          "code": "U/L"
        },
        "referenceRange": [
          {
            "low": {
              "value": 40,
              "code": "U/L",
              "system": "http://unitsofmeasure.org"
            }
          },
          {
            "high": {
              "value": 130,
              "code": "U/L",
              "system": "http://unitsofmeasure.org"
            }
          }
        ],
        "text": {
          "status": "generated",
          "div": "<div xmlns=\"http://www.w3.org/1999/xhtml\"><table class=\"hl7__eu__lab__report\"><tr><th>Test</th><th>15-Oct-2015</th><th>Reference&#xA0;Range</th><th>Unit</th></tr><tr><td>Alkaline phosphatase [Enzymatic activity/volume] in Serum or Plasma</td><td>66.9</td><td>40 - 130</td><td></td><td>U/L</td></tr></table></div>"
        },
        "status": "final",
        "subject": {
          "reference": "urn:uuid:14446ef8-60c9-4a66-9ea3-8523a72c331c",
          "display": "Ludmila Vávrová"
        },
        "effectiveDateTime": "2015-10-15T03:51:38Z",
        "specimen": {
          "reference": "urn:uuid:6227e6c1-9f3b-4624-b7bb-211e0a703411"
        }
      }
    },
    {
      "fullUrl": "urn:uuid:a227b7a8-8cb9-4f7a-8605-3599891cbdf7",
      "resource": {
        "resourceType": "Observation",
        "id": "a227b7a8-8cb9-4f7a-8605-3599891cbdf7",
        "meta": {
          "profile": [
            "http://hl7.eu/fhir/laboratory/StructureDefinition/Observation-resultslab-eu-lab"
          ]
        },
        "performer": [
          {
            "display": "The Central European Lab"
          }
        ],
        "category": [
          {
            "coding": [
              {
                "system": "http://terminology.hl7.org/CodeSystem/observation-category",
                "code": "laboratory"
              }
            ]
          }
        ],
        "code": {
          "coding": [
            {
              "code": "1742-6",
              "system": "http://loinc.org",
              "display": "Alanine aminotransferase [Enzymatic activity/volume] in Serum or Plasma"
            }
          ],
          "text": "Alanine aminotransferase [Enzymatic activity/volume] in Serum or Plasma"
        },
        "valueQuantity": {
          "system": "http://unitsofmeasure.org",
          "value": 47.4,
          "unit": "U/L",
          "code": "U/L"
        },
        "referenceRange": [
          {
            "low": {
              "value": 7,
              "code": "U/L",
              "system": "http://unitsofmeasure.org"
            }
          },
          {
            "high": {
              "value": 55,
              "code": "U/L",
              "system": "http://unitsofmeasure.org"
            }
          }
        ],
        "text": {
          "status": "generated",
          "div": "<div xmlns=\"http://www.w3.org/1999/xhtml\"><table class=\"hl7__eu__lab__report\"><tr><th>Test</th><th>15-Oct-2015</th><th>Reference&#xA0;Range</th><th>Unit</th></tr><tr><td>Alanine aminotransferase [Enzymatic activity/volume] in Serum or Plasma</td><td>47.4</td><td>7 - 55</td><td></td><td>U/L</td></tr></table></div>"
        },
        "status": "final",
        "subject": {
          "reference": "urn:uuid:14446ef8-60c9-4a66-9ea3-8523a72c331c",
          "display": "Ludmila Vávrová"
        },
        "effectiveDateTime": "2015-10-15T03:51:38Z",
        "specimen": {
          "reference": "urn:uuid:6227e6c1-9f3b-4624-b7bb-211e0a703411"
        }
      }
    },
    {
      "fullUrl": "urn:uuid:d3935c04-5cab-46ba-bfc5-b62a945277de",
      "resource": {
        "resourceType": "Observation",
        "id": "d3935c04-5cab-46ba-bfc5-b62a945277de",
        "meta": {
          "profile": [
            "http://hl7.eu/fhir/laboratory/StructureDefinition/Observation-resultslab-eu-lab"
          ]
        },
        "performer": [
          {
            "display": "The Central European Lab"
          }
        ],
        "category": [
          {
            "coding": [
              {
                "system": "http://terminology.hl7.org/CodeSystem/observation-category",
                "code": "laboratory"
              }
            ]
          }
        ],
        "code": {
          "coding": [
            {
              "code": "1920-8",
              "system": "http://loinc.org",
              "display": "Aspartate aminotransferase [Enzymatic activity/volume] in Serum or Plasma"
            }
          ],
          "text": "Aspartate aminotransferase [Enzymatic activity/volume] in Serum or Plasma"
        },
        "valueQuantity": {
          "system": "http://unitsofmeasure.org",
          "value": 36.9,
          "unit": "U/L",
          "code": "U/L"
        },
        "referenceRange": [
          {
            "low": {
              "value": 10,
              "code": "U/L",
              "system": "http://unitsofmeasure.org"
            }
          },
          {
            "high": {
              "value": 40,
              "code": "U/L",
              "system": "http://unitsofmeasure.org"
            }
          }
        ],
        "text": {
          "status": "generated",
          "div": "<div xmlns=\"http://www.w3.org/1999/xhtml\"><table class=\"hl7__eu__lab__report\"><tr><th>Test</th><th>15-Oct-2015</th><th>Reference&#xA0;Range</th><th>Unit</th></tr><tr><td>Aspartate aminotransferase [Enzymatic activity/volume] in Serum or Plasma</td><td>36.9</td><td>10 - 40</td><td></td><td>U/L</td></tr></table></div>"
        },
        "status": "final",
        "subject": {
          "reference": "urn:uuid:14446ef8-60c9-4a66-9ea3-8523a72c331c",
          "display": "Ludmila Vávrová"
        },
        "effectiveDateTime": "2015-10-15T03:51:38Z",
        "specimen": {
          "reference": "urn:uuid:6227e6c1-9f3b-4624-b7bb-211e0a703411"
        }
      }
    },
    {
      "fullUrl": "urn:uuid:58c0f220-c498-4210-a97c-2129185f2147",
      "resource": {
        "resourceType": "Observation",
        "id": "58c0f220-c498-4210-a97c-2129185f2147",
        "meta": {
          "profile": [
            "http://hl7.eu/fhir/laboratory/StructureDefinition/Observation-resultslab-eu-lab"
          ]
        },
        "performer": [
          {
            "display": "The Central European Lab"
          }
        ],
        "category": [
          {
            "coding": [
              {
                "system": "http://terminology.hl7.org/CodeSystem/observation-category",
                "code": "laboratory"
              }
            ]
          }
        ],
        "code": {
          "coding": [
            {
              "code": "2093-3",
              "system": "http://loinc.org",
              "display": "Cholesterol [Mass/volume] in Serum or Plasma"
            }
          ],
          "text": "Cholesterol [Mass/volume] in Serum or Plasma"
        },
        "valueQuantity": {
          "system": "http://unitsofmeasure.org",
          "value": 164.8,
          "unit": "mg/dL",
          "code": "mg/dL"
        },
        "referenceRange": [
          {
            "low": {
              "value": 125,
              "code": "mg/dL",
              "system": "http://unitsofmeasure.org"
            }
          },
          {
            "high": {
              "value": 200,
              "code": "mg/dL",
              "system": "http://unitsofmeasure.org"
            }
          }
        ],
        "text": {
          "status": "generated",
          "div": "<div xmlns=\"http://www.w3.org/1999/xhtml\"><table class=\"hl7__eu__lab__report\"><tr><th>Test</th><th>15-Oct-2015</th><th>Reference&#xA0;Range</th><th>Unit</th></tr><tr><td>Cholesterol [Mass/volume] in Serum or Plasma</td><td>164.8</td><td>125 - 200</td><td></td><td>mg/dL</td></tr></table></div>"
        },
        "status": "final",
        "subject": {
          "reference": "urn:uuid:14446ef8-60c9-4a66-9ea3-8523a72c331c",
          "display": "Ludmila Vávrová"
        },
        "effectiveDateTime": "2015-10-15T03:51:38Z",
        "specimen": {
          "reference": "urn:uuid:6227e6c1-9f3b-4624-b7bb-211e0a703411"
        }
      }
    },
    {
      "fullUrl": "urn:uuid:16cfa51e-5cab-4d0d-9e3d-32bca08e5c98",
      "resource": {
        "resourceType": "Observation",
        "id": "16cfa51e-5cab-4d0d-9e3d-32bca08e5c98",
        "meta": {
          "profile": [
            "http://hl7.eu/fhir/laboratory/StructureDefinition/Observation-resultslab-eu-lab"
          ]
        },
        "performer": [
          {
            "display": "The Central European Lab"
          }
        ],
        "category": [
          {
            "coding": [
              {
                "system": "http://terminology.hl7.org/CodeSystem/observation-category",
                "code": "laboratory"
              }
            ]
          }
        ],
        "code": {
          "coding": [
            {
              "code": "2571-8",
              "system": "http://loinc.org",
              "display": "Triglyceride [Mass/volume] in Serum or Plasma"
            }
          ],
          "text": "Triglyceride [Mass/volume] in Serum or Plasma"
        },
        "valueQuantity": {
          "system": "http://unitsofmeasure.org",
          "value": 110.1,
          "unit": "mg/dL",
          "code": "mg/dL"
        },
        "referenceRange": [
          {
            "low": {
              "value": 10,
              "code": "mg/dL",
              "system": "http://unitsofmeasure.org"
            }
          },
          {
            "high": {
              "value": 175,
              "code": "mg/dL",
              "system": "http://unitsofmeasure.org"
            }
          }
        ],
        "text": {
          "status": "generated",
          "div": "<div xmlns=\"http://www.w3.org/1999/xhtml\"><table class=\"hl7__eu__lab__report\"><tr><th>Test</th><th>15-Oct-2015</th><th>Reference&#xA0;Range</th><th>Unit</th></tr><tr><td>Triglyceride [Mass/volume] in Serum or Plasma</td><td>110.1</td><td>10 - 175</td><td></td><td>mg/dL</td></tr></table></div>"
        },
        "status": "final",
        "subject": {
          "reference": "urn:uuid:14446ef8-60c9-4a66-9ea3-8523a72c331c",
          "display": "Ludmila Vávrová"
        },
        "effectiveDateTime": "2015-10-15T03:51:38Z",
        "specimen": {
          "reference": "urn:uuid:6227e6c1-9f3b-4624-b7bb-211e0a703411"
        }
      }
    },
    {
      "fullUrl": "urn:uuid:f2fd67af-b0c0-47ff-a2db-2c5974584d64",
      "resource": {
        "resourceType": "Observation",
        "id": "f2fd67af-b0c0-47ff-a2db-2c5974584d64",
        "meta": {
          "profile": [
            "http://hl7.eu/fhir/laboratory/StructureDefinition/Observation-resultslab-eu-lab"
          ]
        },
        "performer": [
          {
            "display": "The Central European Lab"
          }
        ],
        "category": [
          {
            "coding": [
              {
                "system": "http://terminology.hl7.org/CodeSystem/observation-category",
                "code": "laboratory"
              }
            ]
          }
        ],
        "code": {
          "coding": [
            {
              "code": "18262-6",
              "system": "http://loinc.org",
              "display": "Cholesterol in LDL [Mass/volume] in Serum or Plasma by Direct assay"
            }
          ],
          "text": "Cholesterol in LDL [Mass/volume] in Serum or Plasma by Direct assay"
        },
        "valueQuantity": {
          "system": "http://unitsofmeasure.org",
          "value": 96.7,
          "unit": "mg/dL",
          "code": "mg/dL"
        },
        "referenceRange": [
          {
            "low": {
              "value": 0,
              "code": "mg/dL",
              "system": "http://unitsofmeasure.org"
            }
          },
          {
            "high": {
              "value": 130,
              "code": "mg/dL",
              "system": "http://unitsofmeasure.org"
            }
          }
        ],
        "text": {
          "status": "generated",
          "div": "<div xmlns=\"http://www.w3.org/1999/xhtml\"><table class=\"hl7__eu__lab__report\"><tr><th>Test</th><th>15-Oct-2015</th><th>Reference&#xA0;Range</th><th>Unit</th></tr><tr><td>Cholesterol in LDL [Mass/volume] in Serum or Plasma by Direct assay</td><td>96.7</td><td>0 - 130</td><td></td><td>mg/dL</td></tr></table></div>"
        },
        "status": "final",
        "subject": {
          "reference": "urn:uuid:14446ef8-60c9-4a66-9ea3-8523a72c331c",
          "display": "Ludmila Vávrová"
        },
        "effectiveDateTime": "2015-10-15T03:51:38Z",
        "specimen": {
          "reference": "urn:uuid:6227e6c1-9f3b-4624-b7bb-211e0a703411"
        }
      }
    },
    {
      "fullUrl": "urn:uuid:83aef9f6-ebca-43df-ab47-c47834987da1",
      "resource": {
        "resourceType": "Observation",
        "id": "83aef9f6-ebca-43df-ab47-c47834987da1",
        "meta": {
          "profile": [
            "http://hl7.eu/fhir/laboratory/StructureDefinition/Observation-resultslab-eu-lab"
          ]
        },
        "performer": [
          {
            "display": "The Central European Lab"
          }
        ],
        "category": [
          {
            "coding": [
              {
                "system": "http://terminology.hl7.org/CodeSystem/observation-category",
                "code": "laboratory"
              }
            ]
          }
        ],
        "code": {
          "coding": [
            {
              "code": "2085-9",
              "system": "http://loinc.org",
              "display": "Cholesterol in HDL [Mass/volume] in Serum or Plasma"
            }
          ],
          "text": "Cholesterol in HDL [Mass/volume] in Serum or Plasma"
        },
        "valueQuantity": {
          "system": "http://unitsofmeasure.org",
          "value": 53.5,
          "unit": "mg/dL",
          "code": "mg/dL"
        },
        "referenceRange": [
          {
            "low": {
              "value": 50,
              "code": "mg/dL",
              "system": "http://unitsofmeasure.org"
            }
          },
          {
            "high": {
              "value": 100,
              "code": "mg/dL",
              "system": "http://unitsofmeasure.org"
            }
          }
        ],
        "text": {
          "status": "generated",
          "div": "<div xmlns=\"http://www.w3.org/1999/xhtml\"><table class=\"hl7__eu__lab__report\"><tr><th>Test</th><th>15-Oct-2015</th><th>Reference&#xA0;Range</th><th>Unit</th></tr><tr><td>Cholesterol in HDL [Mass/volume] in Serum or Plasma</td><td>53.5</td><td>50 - 100</td><td></td><td>mg/dL</td></tr></table></div>"
        },
        "status": "final",
        "subject": {
          "reference": "urn:uuid:14446ef8-60c9-4a66-9ea3-8523a72c331c",
          "display": "Ludmila Vávrová"
        },
        "effectiveDateTime": "2015-10-15T03:51:38Z",
        "specimen": {
          "reference": "urn:uuid:6227e6c1-9f3b-4624-b7bb-211e0a703411"
        }
      }
    },
    {
      "fullUrl": "urn:uuid:a4805fd2-77ff-4cda-b867-eb495269960c",
      "resource": {
        "resourceType": "Device",
        "id": "a4805fd2-77ff-4cda-b867-eb495269960c",
        "deviceName": [
          {
            "name": "SYNDERAI Synthetic Generator",
            "type": "manufacturer-name"
          }
        ],
        "version": [
          {
            "value": "5.0"
          }
        ],
        "text": {
          "status": "generated",
          "div": "<div xmlns=\"http://www.w3.org/1999/xhtml\">SYNDERAI Synthetic Generator v5.0</div>"
        },
        "status": "active\"",
        "distinctIdentifier": "synderai-generator-50",
        "manufacturer": "SYNDERAI Project"
      }
    },
    {
      "fullUrl": "urn:uuid:4d96b825-af57-41f5-b4b7-06ad85827619",
      "resource": {
        "resourceType": "Provenance",
        "id": "4d96b825-af57-41f5-b4b7-06ad85827619",
        "target": [
          {
            "reference": "Patient/14446ef8-60c9-4a66-9ea3-8523a72c331c"
          },
          {
            "reference": "Bundle/0b22b9fe-7274-49f3-89aa-9183c7510a88"
          },
          {
            "reference": "Composition/a961575a-dcb4-4626-b8af-96e9538fbf74"
          },
          {
            "reference": "PractitionerRole/b1995924-4136-44c4-bec2-ceb8c10ff00f"
          },
          {
            "reference": "Practitioner/f793387e-d410-4057-b90f-922dc90e9139"
          },
          {
            "reference": "PractitionerRole/d4bd9dd2-b576-42de-aa79-a1aaca537c66"
          },
          {
            "reference": "Organization/6a2846f7-3fe0-4b93-81c9-95810c3b83f1"
          }
        ],
        "activity": {
          "text": "Synthetic Example Data Generation"
        },
        "policy": [
          "https://synderai.net/synderai-synthetic-data-policy"
        ],
        "agent": [
          {
            "type": {
              "text": "author"
            },
            "who": {
              "reference": "Device/a4805fd2-77ff-4cda-b867-eb495269960c"
            }
          }
        ],
        "reason": [
          {
            "text": "Interoperability Testing and Training (non-clinical use)"
          }
        ],
        "text": {
          "status": "generated",
          "div": "<div xmlns=\"http://www.w3.org/1999/xhtml\">Provenance for SYNDERAI Synthetic Example Data Resource</div>"
        },
        "recorded": "2015-10-15T05:51:38Z"
      }
    },
    {
      "fullUrl": "urn:uuid:b1995924-4136-44c4-bec2-ceb8c10ff00f",
      "resource": {
        "resourceType": "PractitionerRole",
        "id": "b1995924-4136-44c4-bec2-ceb8c10ff00f",
        "meta": {
          "profile": [
            "http://hl7.eu/fhir/base/StructureDefinition/practitionerRole-eu"
          ]
        },
        "text": {
          "status": "generated",
          "div": "<div xmlns=\"http://www.w3.org/1999/xhtml\">Laboratory Role Id: b1995924-4136-44c4-bec2-ceb8c10ff00f</div>"
        },
        "practitioner": {
          "reference": "urn:uuid:f793387e-d410-4057-b90f-922dc90e9139"
        }
      }
    },
    {
      "fullUrl": "urn:uuid:f793387e-d410-4057-b90f-922dc90e9139",
      "resource": {
        "resourceType": "Practitioner",
        "id": "f793387e-d410-4057-b90f-922dc90e9139",
        "meta": {
          "profile": [
            "http://hl7.eu/fhir/base/StructureDefinition/practitioner-eu"
          ]
        },
        "identifier": [
          {
            "assigner": {
              "display": "HL7 Europe"
            },
            "system": "urn:oid:2.16.840.1.113883.2.51.999",
            "value": "7d6719c2-f76f-4d93-9422-894801fef927"
          }
        ],
        "name": [
          {
            "prefix": [
              "dr"
            ],
            "given": [
              "Ex"
            ],
            "family": "Ample"
          }
        ],
        "address": [
          {
            "line": [
              "Laboratoire Central Européenne",
              "Boulevard du Jardin Botanique 32"
            ],
            "postalCode": "1000",
            "city": "Brussels",
            "country": "Belgium"
          }
        ],
        "text": {
          "status": "generated",
          "div": "<div xmlns=\"http://www.w3.org/1999/xhtml\">Laboratory: Laboratoire Central Européenne, 1000 Brussels, Belgium</div>"
        }
      }
    }
  ],
  "type": "document",
  "timestamp": "2015-10-15T05:51:38Z"
}
