{
  "resourceType": "Bundle",
  "id": "01b9bb01-51e5-4b16-8599-093ff005a740",
  "meta": {
    "profile": [
      "http://hl7.eu/fhir/laboratory/StructureDefinition/Bundle-eu-lab"
    ]
  },
  "identifier": {
    "assigner": {
      "display": "HL7 Europe"
    },
    "system": "urn:oid:2.16.840.1.113883.2.51.999",
    "value": "f2d1ab40-f7c3-45ed-bc9e-e08c10418567"
  },
  "entry": [
    {
      "fullUrl": "urn:uuid:0801ad57-3f3e-4046-85ee-d81a083a2cca",
      "resource": {
        "resourceType": "Composition",
        "id": "0801ad57-3f3e-4046-85ee-d81a083a2cca",
        "meta": {
          "profile": [
            "http://hl7.eu/fhir/laboratory/StructureDefinition/Composition-eu-lab"
          ]
        },
        "identifier": {
          "assigner": {
            "display": "HL7 Europe"
          },
          "system": "urn:oid:2.16.840.1.113883.2.51.999",
          "value": "89e35c48-8c2e-4067-9254-6f3ad4fb028e"
        },
        "author": [
          {
            "reference": "urn:uuid:fdb95e6d-bf04-4ea1-ac56-87818b0eb4f6"
          }
        ],
        "category": [
          {
            "coding": [
              {
                "code": "26436-6",
                "system": "http://loinc.org",
                "display": "Laboratory studies (set)"
              }
            ]
          }
        ],
        "type": {
          "coding": [
            {
              "code": "11502-2",
              "system": "http://loinc.org",
              "display": "Laboratory report"
            }
          ],
          "text": "Laboratory Report"
        },
        "section": [
          {
            "code": {
              "coding": [
                {
                  "code": "26436-6",
                  "system": "http://loinc.org",
                  "display": "Laboratory studies (set)"
                }
              ],
              "text": "Laboratory studies"
            },
            "section": [
              {
                "code": {
                  "coding": [
                    {
                      "code": "$18719-5",
                      "system": "http://loinc.org",
                      "display": "Chemistry studies (set)"
                    }
                  ],
                  "text": "Chemistry"
                },
                "entry": [
                  {
                    "reference": "urn:uuid:5bfc0e6f-fc2a-4043-9e5b-37adf883eec6"
                  },
                  {
                    "reference": "urn:uuid:2cc2f290-b139-43cc-840b-f59a3117deed"
                  },
                  {
                    "reference": "urn:uuid:6dfd06e8-a2db-4fc4-9f33-82674585dac1"
                  },
                  {
                    "reference": "urn:uuid:26b72441-8d93-4580-ba77-a60bb90dcda2"
                  },
                  {
                    "reference": "urn:uuid:5c1ec3d8-8131-4d57-90d0-2a61ac382eca"
                  },
                  {
                    "reference": "urn:uuid:84a50084-2649-46f4-8834-d714651e7d76"
                  },
                  {
                    "reference": "urn:uuid:74baf67a-677c-4680-8a2c-9270371c55ce"
                  },
                  {
                    "reference": "urn:uuid:9c66d4f9-acec-4d9b-9e16-8499dbf9126b"
                  },
                  {
                    "reference": "urn:uuid:52d2f1c3-ecfd-40ba-8496-20eafefc91f5"
                  },
                  {
                    "reference": "urn:uuid:5f7f7118-83b7-4a75-a49f-a267cf33d443"
                  },
                  {
                    "reference": "urn:uuid:93233f95-9e7d-4d6d-bdbf-a9b6f8c9dd28"
                  },
                  {
                    "reference": "urn:uuid:bbf1a233-cc13-48d2-9445-ac9a62de7b70"
                  },
                  {
                    "reference": "urn:uuid:a34119f8-0be8-4e9e-8bf6-fd821432cf2e"
                  },
                  {
                    "reference": "urn:uuid:bb6b81ef-54d5-4c9e-94ed-3f6d9ff108e2"
                  },
                  {
                    "reference": "urn:uuid:276aad54-3f40-4577-a4f0-58e45bd4593f"
                  },
                  {
                    "reference": "urn:uuid:c2fa673e-973b-4181-993f-9265b1a40a96"
                  },
                  {
                    "reference": "urn:uuid:1b703098-60fd-4cb9-9938-d6b1a4f68987"
                  },
                  {
                    "reference": "urn:uuid:e40469df-8751-4321-bbe4-14cb6aff2f3d"
                  },
                  {
                    "reference": "urn:uuid:c1a4e075-0914-4a4a-a837-c0efa595a742"
                  }
                ],
                "text": {
                  "status": "generated",
                  "div": "<div xmlns=\"http://www.w3.org/1999/xhtml\"><h3>Chemistry</h3><table class=\"hl7__eu__lab__report\"><thead><tr><th>Test</th><th>26-MAY-2020</th><th>Reference&#xA0;Range</th><th>Unit</th></tr></thead><tbody><tr><td>Glucose [Mass/volume] in Blood</td><td>92.2</td><td>70 - 140</td><td>mg/dL</td></tr><tr><td>Urea nitrogen [Mass/volume] in Blood</td><td>18.9</td><td>7 - 20</td><td>mg/dL</td></tr><tr><td>Creatinine [Mass/volume] in Blood</td><td><strong>3.3 H</strong></td><td>0.6 - 1.3</td><td>mg/dL</td></tr><tr><td>Calcium [Mass/volume] in Blood</td><td>9.2</td><td>8.5 - 10.5</td><td>mg/dL</td></tr><tr><td>Sodium [Moles/volume] in Blood</td><td>143.1</td><td>135 - 145</td><td>mmol/L</td></tr><tr><td>Potassium [Moles/volume] in Blood</td><td>4.0</td><td>3.6 - 5.1</td><td>mmol/L</td></tr><tr><td>Chloride [Moles/volume] in Blood</td><td>105.6</td><td>98 - 107</td><td>mmol/L</td></tr><tr><td>Carbon dioxide, total [Moles/volume] in Blood</td><td>28.2</td><td>22 - 32</td><td>mmol/L</td></tr><tr><td>Protein [Mass/volume] in Serum or Plasma</td><td>7.1</td><td>6 - 8.3</td><td>g/dL</td></tr><tr><td>Albumin [Mass/volume] in Serum or Plasma</td><td>4.7</td><td>3.5 - 5</td><td>g/dL</td></tr><tr><td>Globulin [Mass/volume] in Serum by calculation</td><td>2.6</td><td>2 - 3.9</td><td>g/L</td></tr><tr><td>Bilirubin.total [Mass/volume] in Serum or Plasma</td><td>0.5</td><td>0.3 - 1.2</td><td>mg/dL</td></tr><tr><td>Alkaline phosphatase [Enzymatic activity/volume] in Serum or Plasma</td><td>128.0</td><td>32 - 150</td><td>U/L</td></tr><tr><td>Alanine aminotransferase [Enzymatic activity/volume] in Serum or Plasma</td><td>21.5</td><td>13 - 32</td><td>U/L</td></tr><tr><td>Aspartate aminotransferase [Enzymatic activity/volume] in Serum or Plasma</td><td>15.0</td><td>10 - 40</td><td>U/L</td></tr><tr><td>Cholesterol [Mass/volume] in Serum or Plasma</td><td>177.3</td><td>130 - 200</td><td>mg/dL</td></tr><tr><td>Triglyceride [Mass/volume] in Serum or Plasma</td><td>107.9</td><td>0 - 199</td><td>mg/dL</td></tr><tr><td>Cholesterol in LDL [Mass/volume] in Serum or Plasma by Direct assay</td><td><strong>134.7 H</strong></td><td>0 - 130</td><td>mg/dL</td></tr><tr><td>Cholesterol in HDL [Mass/volume] in Serum or Plasma</td><td>55.4</td><td>50 - 100</td><td>mg/dL</td></tr></tbody></table></div>"
                },
                "title": "Chemistry"
              }
            ],
            "title": "Laboratory Report"
          },
          {
            "text": {
              "status": "generated",
              "div": "<div xmlns=\"http://www.w3.org/1999/xhtml\"><h3>Annotation</h3><table class=\"hl7__eu__lab__report\"><tr><th>Conclusion and Recommendations based on this report and previous findings known to us</th></tr><tr><td>Renal function is impaired as indicated by elevated creatinine. LDL cholesterol is mildly elevated, increasing cardiovascular risk. All other parameters, including glucose, electrolytes, liver enzymes, and proteins, are within normal limits. Recommend further evaluation of renal function and cardiovascular risk management.</td></tr></table></div>"
            },
            "code": {
              "coding": [
                {
                  "system": "http://loinc.org",
                  "code": "48767-8",
                  "display": "Annotation comment"
                }
              ]
            },
            "title": "Annotation comment"
          }
        ],
        "status": "final",
        "subject": {
          "reference": "urn:uuid:39ff34ee-39f2-4c84-bd11-e04fe99034ec",
          "display": "Aniela Prażmo"
        },
        "date": "2020-05-26T15:25:25Z",
        "title": "Laboratory Report",
        "confidentiality": "N"
      }
    },
    {
      "fullUrl": "urn:uuid:61168922-bc17-47f5-b59f-8827cf6cf4d4",
      "resource": {
        "resourceType": "DiagnosticReport",
        "id": "61168922-bc17-47f5-b59f-8827cf6cf4d4",
        "meta": {
          "profile": [
            "http://hl7.eu/fhir/laboratory/StructureDefinition/DiagnosticReport-eu-lab"
          ]
        },
        "identifier": [
          {
            "assigner": {
              "display": "HL7 Europe"
            },
            "system": "urn:oid:2.16.840.1.113883.2.51.999",
            "value": "d16d6fe6-ee0f-468a-9a24-108e2e92a805"
          }
        ],
        "extension": [
          {
            "url": "http://hl7.org/fhir/5.0/StructureDefinition/extension-DiagnosticReport.composition",
            "valueReference": {
              "reference": "urn:uuid:89e35c48-8c2e-4067-9254-6f3ad4fb028e"
            }
          }
        ],
        "category": [
          {
            "coding": [
              {
                "code": "26436-6",
                "system": "http://loinc.org",
                "display": "Laboratory studies (set)"
              }
            ]
          }
        ],
        "specimen": [
          {
            "reference": "urn:uuid:8544ceff-0654-44f4-a78e-485f8fc6b437"
          },
          {
            "reference": "urn:uuid:e36259c1-2ec9-4f1e-b955-3d00cc2c1180"
          },
          {
            "reference": "urn:uuid:f56f5bed-2eef-4068-9236-0fbfc58c1bde"
          }
        ],
        "result": [
          {
            "reference": "urn:uuid:5bfc0e6f-fc2a-4043-9e5b-37adf883eec6"
          },
          {
            "reference": "urn:uuid:2cc2f290-b139-43cc-840b-f59a3117deed"
          },
          {
            "reference": "urn:uuid:6dfd06e8-a2db-4fc4-9f33-82674585dac1"
          },
          {
            "reference": "urn:uuid:26b72441-8d93-4580-ba77-a60bb90dcda2"
          },
          {
            "reference": "urn:uuid:5c1ec3d8-8131-4d57-90d0-2a61ac382eca"
          },
          {
            "reference": "urn:uuid:84a50084-2649-46f4-8834-d714651e7d76"
          },
          {
            "reference": "urn:uuid:74baf67a-677c-4680-8a2c-9270371c55ce"
          },
          {
            "reference": "urn:uuid:9c66d4f9-acec-4d9b-9e16-8499dbf9126b"
          },
          {
            "reference": "urn:uuid:52d2f1c3-ecfd-40ba-8496-20eafefc91f5"
          },
          {
            "reference": "urn:uuid:5f7f7118-83b7-4a75-a49f-a267cf33d443"
          },
          {
            "reference": "urn:uuid:93233f95-9e7d-4d6d-bdbf-a9b6f8c9dd28"
          },
          {
            "reference": "urn:uuid:bbf1a233-cc13-48d2-9445-ac9a62de7b70"
          },
          {
            "reference": "urn:uuid:a34119f8-0be8-4e9e-8bf6-fd821432cf2e"
          },
          {
            "reference": "urn:uuid:bb6b81ef-54d5-4c9e-94ed-3f6d9ff108e2"
          },
          {
            "reference": "urn:uuid:276aad54-3f40-4577-a4f0-58e45bd4593f"
          },
          {
            "reference": "urn:uuid:c2fa673e-973b-4181-993f-9265b1a40a96"
          },
          {
            "reference": "urn:uuid:1b703098-60fd-4cb9-9938-d6b1a4f68987"
          },
          {
            "reference": "urn:uuid:e40469df-8751-4321-bbe4-14cb6aff2f3d"
          },
          {
            "reference": "urn:uuid:c1a4e075-0914-4a4a-a837-c0efa595a742"
          }
        ],
        "status": "registered",
        "code": {
          "coding": [
            {
              "code": "11502-2",
              "system": "http://loinc.org",
              "display": "Laboratory report"
            }
          ]
        },
        "subject": {
          "reference": "urn:uuid:39ff34ee-39f2-4c84-bd11-e04fe99034ec",
          "display": "Aniela Prażmo"
        }
      }
    },
    {
      "fullUrl": "urn:uuid:39ff34ee-39f2-4c84-bd11-e04fe99034ec",
      "resource": {
        "resourceType": "Patient",
        "id": "39ff34ee-39f2-4c84-bd11-e04fe99034ec",
        "meta": {
          "security": [
            {
              "system": "http://terminology.hl7.org/CodeSystem/v3-ActReason",
              "code": "HTEST"
            },
            {
              "system": "http://terminology.hl7.org/CodeSystem/v3-ActReason",
              "code": "TRAIN"
            }
          ],
          "tag": [
            {
              "system": "https://synderai.net/fhir/CodeSystem/tags",
              "code": "synthetic",
              "display": "SYNDERAI Synthetic data"
            }
          ],
          "profile": [
            "http://hl7.eu/fhir/base/StructureDefinition/patient-eu-core"
          ]
        },
        "identifier": [
          {
            "type": {
              "coding": [
                {
                  "code": "PT",
                  "system": "http://terminology.hl7.org/CodeSystem/v2-0203"
                }
              ]
            },
            "system": "http://ec.europa.eu/identifier/eci",
            "value": "9657-869171-7"
          },
          {
            "type": {
              "coding": [
                {
                  "code": "MR",
                  "system": "http://terminology.hl7.org/CodeSystem/v2-0203"
                }
              ]
            },
            "system": "http://local.setting.eu/identifier",
            "value": "ab00158c-e2d0-01e4-6cf5-730949937551"
          }
        ],
        "name": [
          {
            "family": "Prażmo"
          },
          {
            "given": [
              "Aniela"
            ]
          },
          {
            "text": "Aniela Prażmo"
          }
        ],
        "address": [
          {
            "line": [
              "pl. Kołłątaja 62/43"
            ],
            "use": "home",
            "type": "physical",
            "postalCode": "97-200",
            "city": "Tomaszów Mazowiecki",
            "country": "Poland"
          }
        ],
        "telecom": [
          {
            "system": "phone",
            "value": "+48 782 809 233"
          }
        ],
        "extension": [
          {
            "url": "http://hl7.org/fhir/StructureDefinition/patient-nationality",
            "valueCodeableConcept": {
              "coding": [
                {
                  "code": "PL",
                  "system": "http://hl7.org/fhir/ValueSet/country"
                }
              ]
            }
          }
        ],
        "text": {
          "status": "generated",
          "div": "<div xmlns=\"http://www.w3.org/1999/xhtml\"><table class=\"hl7__ips\"><tr><td>Aniela Prażmo</td><td>female</td><td>08-Feb-1941</td></tr></table></div>"
        },
        "gender": "female",
        "birthDate": "1941-02-08"
      }
    },
    {
      "fullUrl": "urn:uuid:684332fe-65c8-47f6-9287-4c55567a76ce",
      "resource": {
        "resourceType": "ServiceRequest",
        "id": "684332fe-65c8-47f6-9287-4c55567a76ce",
        "meta": {
          "profile": [
            "http://hl7.eu/fhir/laboratory/StructureDefinition/ServiceRequest-eu-lab"
          ]
        },
        "identifier": [
          {
            "system": "http://example.org",
            "value": "9226d4a7-ca3f-4bef-90d1-084b307b2708"
          }
        ],
        "specimen": [
          {
            "reference": "urn:uuid:8544ceff-0654-44f4-a78e-485f8fc6b437"
          },
          {
            "reference": "urn:uuid:e36259c1-2ec9-4f1e-b955-3d00cc2c1180"
          },
          {
            "reference": "urn:uuid:f56f5bed-2eef-4068-9236-0fbfc58c1bde"
          }
        ],
        "reasonCode": [
          {
            "coding": [
              {
                "code": "64859006",
                "system": "http://snomed.info/sct",
                "display": "Osteoporosis"
              }
            ]
          },
          {
            "coding": [
              {
                "code": "55822004",
                "system": "http://snomed.info/sct",
                "display": "Hyperlipidemia"
              }
            ]
          },
          {
            "coding": [
              {
                "code": "414545008",
                "system": "http://snomed.info/sct",
                "display": "Ischemic heart disease"
              }
            ]
          },
          {
            "coding": [
              {
                "code": "59621000",
                "system": "http://snomed.info/sct",
                "display": "Essential hypertension"
              }
            ]
          },
          {
            "coding": [
              {
                "code": "40055000",
                "system": "http://snomed.info/sct",
                "display": "Chronic sinusitis"
              }
            ]
          }
        ],
        "status": "active",
        "intent": "order",
        "code": {
          "coding": [
            {
              "code": "108252007",
              "system": "http://snomed.info/sct",
              "display": "Laboratory procedure"
            }
          ]
        },
        "subject": {
          "reference": "urn:uuid:39ff34ee-39f2-4c84-bd11-e04fe99034ec",
          "display": "Aniela Prażmo"
        },
        "requester": {
          "reference": "urn:uuid:c21c239e-529f-4d90-9b03-b0c46c98ca30"
        }
      }
    },
    {
      "fullUrl": "urn:uuid:c21c239e-529f-4d90-9b03-b0c46c98ca30",
      "resource": {
        "resourceType": "PractitionerRole",
        "id": "c21c239e-529f-4d90-9b03-b0c46c98ca30",
        "meta": {
          "profile": [
            "http://hl7.eu/fhir/base/StructureDefinition/practitionerRole-eu"
          ]
        },
        "text": {
          "status": "generated",
          "div": "<div xmlns=\"http://www.w3.org/1999/xhtml\">Provider Role Id: c21c239e-529f-4d90-9b03-b0c46c98ca30</div>"
        },
        "organization": {
          "reference": "urn:uuid:55a9a2f2-3ed2-49aa-8941-1d14eb6e6afd"
        }
      }
    },
    {
      "fullUrl": "urn:uuid:55a9a2f2-3ed2-49aa-8941-1d14eb6e6afd",
      "resource": {
        "resourceType": "Organization",
        "id": "55a9a2f2-3ed2-49aa-8941-1d14eb6e6afd",
        "meta": {
          "profile": [
            "http://hl7.eu/fhir/base/StructureDefinition/organization-eu"
          ]
        },
        "identifier": [
          {
            "assigner": {
              "display": "HL7 Europe"
            },
            "system": "urn:oid:2.16.840.1.113883.2.51.999",
            "value": "1d369645-b542-4d1e-9000-063dbdf1b9cc"
          }
        ],
        "address": [
          {
            "city": "Tomaszów Mazowiecki",
            "postalCode": "97-200",
            "country": "Poland"
          }
        ],
        "text": {
          "status": "generated",
          "div": "<div xmlns=\"http://www.w3.org/1999/xhtml\">Provider Organization: Poradnia rehabilitacyjna</div>"
        },
        "name": "Poradnia rehabilitacyjna"
      }
    },
    {
      "fullUrl": "urn:uuid:8544ceff-0654-44f4-a78e-485f8fc6b437",
      "resource": {
        "resourceType": "Specimen",
        "id": "8544ceff-0654-44f4-a78e-485f8fc6b437",
        "meta": {
          "profile": [
            "http://hl7.eu/fhir/laboratory/StructureDefinition/Specimen-eu-lab"
          ]
        },
        "collection": {
          "collectedDateTime": "2020-05-26"
        },
        "text": {
          "status": "generated",
          "div": "<div xmlns=\"http://www.w3.org/1999/xhtml\"><table class=\"hl7__eu__lab__report\"><tr><th>Specimen</th><th>Collection Date</th></tr><tr><td>Whole blood specimen (specimen)</td><td><span class=\"nb\">26-May-2020</span></td></tr></table></div>"
        },
        "type": {
          "coding": [
            {
              "code": "258580003",
              "system": "http://snomed.info/sct",
              "display": "Whole blood specimen (specimen)"
            }
          ]
        }
      }
    },
    {
      "fullUrl": "urn:uuid:e36259c1-2ec9-4f1e-b955-3d00cc2c1180",
      "resource": {
        "resourceType": "Specimen",
        "id": "e36259c1-2ec9-4f1e-b955-3d00cc2c1180",
        "meta": {
          "profile": [
            "http://hl7.eu/fhir/laboratory/StructureDefinition/Specimen-eu-lab"
          ]
        },
        "collection": {
          "collectedDateTime": "2020-05-26"
        },
        "text": {
          "status": "generated",
          "div": "<div xmlns=\"http://www.w3.org/1999/xhtml\"><table class=\"hl7__eu__lab__report\"><tr><th>Specimen</th><th>Collection Date</th></tr><tr><td>Acellular blood (serum or plasma) specimen</td><td><span class=\"nb\">26-May-2020</span></td></tr></table></div>"
        },
        "type": {
          "coding": [
            {
              "code": "122592007",
              "system": "http://snomed.info/sct",
              "display": "Acellular blood (serum or plasma) specimen"
            }
          ]
        }
      }
    },
    {
      "fullUrl": "urn:uuid:f56f5bed-2eef-4068-9236-0fbfc58c1bde",
      "resource": {
        "resourceType": "Specimen",
        "id": "f56f5bed-2eef-4068-9236-0fbfc58c1bde",
        "meta": {
          "profile": [
            "http://hl7.eu/fhir/laboratory/StructureDefinition/Specimen-eu-lab"
          ]
        },
        "collection": {
          "collectedDateTime": "2020-05-26"
        },
        "text": {
          "status": "generated",
          "div": "<div xmlns=\"http://www.w3.org/1999/xhtml\"><table class=\"hl7__eu__lab__report\"><tr><th>Specimen</th><th>Collection Date</th></tr><tr><td>Serum specimen</td><td><span class=\"nb\">26-May-2020</span></td></tr></table></div>"
        },
        "type": {
          "coding": [
            {
              "code": "119364003",
              "system": "http://snomed.info/sct",
              "display": "Serum specimen"
            }
          ]
        }
      }
    },
    {
      "fullUrl": "urn:uuid:5bfc0e6f-fc2a-4043-9e5b-37adf883eec6",
      "resource": {
        "resourceType": "Observation",
        "id": "5bfc0e6f-fc2a-4043-9e5b-37adf883eec6",
        "meta": {
          "profile": [
            "http://hl7.eu/fhir/laboratory/StructureDefinition/Observation-resultslab-eu-lab"
          ]
        },
        "performer": [
          {
            "display": "The Central European Lab"
          }
        ],
        "category": [
          {
            "coding": [
              {
                "system": "http://terminology.hl7.org/CodeSystem/observation-category",
                "code": "laboratory"
              }
            ]
          }
        ],
        "code": {
          "coding": [
            {
              "code": "2339-0",
              "system": "http://loinc.org",
              "display": "Glucose [Mass/volume] in Blood"
            }
          ],
          "text": "Glucose [Mass/volume] in Blood"
        },
        "valueQuantity": {
          "system": "http://unitsofmeasure.org",
          "value": 92.2,
          "unit": "mg/dL",
          "code": "mg/dL"
        },
        "referenceRange": [
          {
            "low": {
              "value": 70,
              "code": "mg/dL",
              "system": "http://unitsofmeasure.org"
            }
          },
          {
            "high": {
              "value": 140,
              "code": "mg/dL",
              "system": "http://unitsofmeasure.org"
            }
          }
        ],
        "text": {
          "status": "generated",
          "div": "<div xmlns=\"http://www.w3.org/1999/xhtml\"><table class=\"hl7__eu__lab__report\"><tr><th>Test</th><th>26-May-2020</th><th>Reference&#xA0;Range</th><th>Unit</th></tr><tr><td>Glucose [Mass/volume] in Blood</td><td>92.2</td><td>70 - 140</td><td></td><td>mg/dL</td></tr></table></div>"
        },
        "status": "final",
        "subject": {
          "reference": "urn:uuid:39ff34ee-39f2-4c84-bd11-e04fe99034ec",
          "display": "Aniela Prażmo"
        },
        "effectiveDateTime": "2020-05-26T13:25:25Z",
        "specimen": {
          "reference": "urn:uuid:8544ceff-0654-44f4-a78e-485f8fc6b437"
        }
      }
    },
    {
      "fullUrl": "urn:uuid:2cc2f290-b139-43cc-840b-f59a3117deed",
      "resource": {
        "resourceType": "Observation",
        "id": "2cc2f290-b139-43cc-840b-f59a3117deed",
        "meta": {
          "profile": [
            "http://hl7.eu/fhir/laboratory/StructureDefinition/Observation-resultslab-eu-lab"
          ]
        },
        "performer": [
          {
            "display": "The Central European Lab"
          }
        ],
        "category": [
          {
            "coding": [
              {
                "system": "http://terminology.hl7.org/CodeSystem/observation-category",
                "code": "laboratory"
              }
            ]
          }
        ],
        "code": {
          "coding": [
            {
              "code": "6299-2",
              "system": "http://loinc.org",
              "display": "Urea nitrogen [Mass/volume] in Blood"
            }
          ],
          "text": "Urea nitrogen [Mass/volume] in Blood"
        },
        "valueQuantity": {
          "system": "http://unitsofmeasure.org",
          "value": 18.9,
          "unit": "mg/dL",
          "code": "mg/dL"
        },
        "referenceRange": [
          {
            "low": {
              "value": 7,
              "code": "mg/dL",
              "system": "http://unitsofmeasure.org"
            }
          },
          {
            "high": {
              "value": 20,
              "code": "mg/dL",
              "system": "http://unitsofmeasure.org"
            }
          }
        ],
        "text": {
          "status": "generated",
          "div": "<div xmlns=\"http://www.w3.org/1999/xhtml\"><table class=\"hl7__eu__lab__report\"><tr><th>Test</th><th>26-May-2020</th><th>Reference&#xA0;Range</th><th>Unit</th></tr><tr><td>Urea nitrogen [Mass/volume] in Blood</td><td>18.9</td><td>7 - 20</td><td></td><td>mg/dL</td></tr></table></div>"
        },
        "status": "final",
        "subject": {
          "reference": "urn:uuid:39ff34ee-39f2-4c84-bd11-e04fe99034ec",
          "display": "Aniela Prażmo"
        },
        "effectiveDateTime": "2020-05-26T13:25:25Z",
        "specimen": {
          "reference": "urn:uuid:8544ceff-0654-44f4-a78e-485f8fc6b437"
        }
      }
    },
    {
      "fullUrl": "urn:uuid:6dfd06e8-a2db-4fc4-9f33-82674585dac1",
      "resource": {
        "resourceType": "Observation",
        "id": "6dfd06e8-a2db-4fc4-9f33-82674585dac1",
        "meta": {
          "profile": [
            "http://hl7.eu/fhir/laboratory/StructureDefinition/Observation-resultslab-eu-lab"
          ]
        },
        "performer": [
          {
            "display": "The Central European Lab"
          }
        ],
        "category": [
          {
            "coding": [
              {
                "system": "http://terminology.hl7.org/CodeSystem/observation-category",
                "code": "laboratory"
              }
            ]
          }
        ],
        "code": {
          "coding": [
            {
              "code": "38483-4",
              "system": "http://loinc.org",
              "display": "Creatinine [Mass/volume] in Blood"
            }
          ],
          "text": "Creatinine [Mass/volume] in Blood"
        },
        "valueQuantity": {
          "system": "http://unitsofmeasure.org",
          "value": 3.3,
          "unit": "mg/dL",
          "code": "mg/dL"
        },
        "referenceRange": [
          {
            "low": {
              "value": 0.6,
              "code": "mg/dL",
              "system": "http://unitsofmeasure.org"
            }
          },
          {
            "high": {
              "value": 1.3,
              "code": "mg/dL",
              "system": "http://unitsofmeasure.org"
            }
          }
        ],
        "interpretation": [
          {
            "coding": [
              {
                "code": "H",
                "system": "http://terminology.hl7.org/CodeSystem/v3-ObservationInterpretation",
                "display": "High"
              }
            ]
          }
        ],
        "text": {
          "status": "generated",
          "div": "<div xmlns=\"http://www.w3.org/1999/xhtml\"><table class=\"hl7__eu__lab__report\"><tr><th>Test</th><th>26-May-2020</th><th>Reference&#xA0;Range</th><th>Unit</th></tr><tr><td>Creatinine [Mass/volume] in Blood</td><td>3.3</td><td>0.6 - 1.3</td><td>H</td><td>mg/dL</td></tr></table></div>"
        },
        "status": "final",
        "subject": {
          "reference": "urn:uuid:39ff34ee-39f2-4c84-bd11-e04fe99034ec",
          "display": "Aniela Prażmo"
        },
        "effectiveDateTime": "2020-05-26T13:25:25Z",
        "specimen": {
          "reference": "urn:uuid:8544ceff-0654-44f4-a78e-485f8fc6b437"
        }
      }
    },
    {
      "fullUrl": "urn:uuid:26b72441-8d93-4580-ba77-a60bb90dcda2",
      "resource": {
        "resourceType": "Observation",
        "id": "26b72441-8d93-4580-ba77-a60bb90dcda2",
        "meta": {
          "profile": [
            "http://hl7.eu/fhir/laboratory/StructureDefinition/Observation-resultslab-eu-lab"
          ]
        },
        "performer": [
          {
            "display": "The Central European Lab"
          }
        ],
        "category": [
          {
            "coding": [
              {
                "system": "http://terminology.hl7.org/CodeSystem/observation-category",
                "code": "laboratory"
              }
            ]
          }
        ],
        "code": {
          "coding": [
            {
              "code": "49765-1",
              "system": "http://loinc.org",
              "display": "Calcium [Mass/volume] in Blood"
            }
          ],
          "text": "Calcium [Mass/volume] in Blood"
        },
        "valueQuantity": {
          "system": "http://unitsofmeasure.org",
          "value": 9.2,
          "unit": "mg/dL",
          "code": "mg/dL"
        },
        "referenceRange": [
          {
            "low": {
              "value": 8.5,
              "code": "mg/dL",
              "system": "http://unitsofmeasure.org"
            }
          },
          {
            "high": {
              "value": 10.5,
              "code": "mg/dL",
              "system": "http://unitsofmeasure.org"
            }
          }
        ],
        "text": {
          "status": "generated",
          "div": "<div xmlns=\"http://www.w3.org/1999/xhtml\"><table class=\"hl7__eu__lab__report\"><tr><th>Test</th><th>26-May-2020</th><th>Reference&#xA0;Range</th><th>Unit</th></tr><tr><td>Calcium [Mass/volume] in Blood</td><td>9.2</td><td>8.5 - 10.5</td><td></td><td>mg/dL</td></tr></table></div>"
        },
        "status": "final",
        "subject": {
          "reference": "urn:uuid:39ff34ee-39f2-4c84-bd11-e04fe99034ec",
          "display": "Aniela Prażmo"
        },
        "effectiveDateTime": "2020-05-26T13:25:25Z",
        "specimen": {
          "reference": "urn:uuid:8544ceff-0654-44f4-a78e-485f8fc6b437"
        }
      }
    },
    {
      "fullUrl": "urn:uuid:5c1ec3d8-8131-4d57-90d0-2a61ac382eca",
      "resource": {
        "resourceType": "Observation",
        "id": "5c1ec3d8-8131-4d57-90d0-2a61ac382eca",
        "meta": {
          "profile": [
            "http://hl7.eu/fhir/laboratory/StructureDefinition/Observation-resultslab-eu-lab"
          ]
        },
        "performer": [
          {
            "display": "The Central European Lab"
          }
        ],
        "category": [
          {
            "coding": [
              {
                "system": "http://terminology.hl7.org/CodeSystem/observation-category",
                "code": "laboratory"
              }
            ]
          }
        ],
        "code": {
          "coding": [
            {
              "code": "2947-0",
              "system": "http://loinc.org",
              "display": "Sodium [Moles/volume] in Blood"
            }
          ],
          "text": "Sodium [Moles/volume] in Blood"
        },
        "valueQuantity": {
          "system": "http://unitsofmeasure.org",
          "value": 143.1,
          "unit": "mmol/L",
          "code": "mmol/L"
        },
        "referenceRange": [
          {
            "low": {
              "value": 135,
              "code": "mmol/L",
              "system": "http://unitsofmeasure.org"
            }
          },
          {
            "high": {
              "value": 145,
              "code": "mmol/L",
              "system": "http://unitsofmeasure.org"
            }
          }
        ],
        "text": {
          "status": "generated",
          "div": "<div xmlns=\"http://www.w3.org/1999/xhtml\"><table class=\"hl7__eu__lab__report\"><tr><th>Test</th><th>26-May-2020</th><th>Reference&#xA0;Range</th><th>Unit</th></tr><tr><td>Sodium [Moles/volume] in Blood</td><td>143.1</td><td>135 - 145</td><td></td><td>mmol/L</td></tr></table></div>"
        },
        "status": "final",
        "subject": {
          "reference": "urn:uuid:39ff34ee-39f2-4c84-bd11-e04fe99034ec",
          "display": "Aniela Prażmo"
        },
        "effectiveDateTime": "2020-05-26T13:25:25Z",
        "specimen": {
          "reference": "urn:uuid:8544ceff-0654-44f4-a78e-485f8fc6b437"
        }
      }
    },
    {
      "fullUrl": "urn:uuid:84a50084-2649-46f4-8834-d714651e7d76",
      "resource": {
        "resourceType": "Observation",
        "id": "84a50084-2649-46f4-8834-d714651e7d76",
        "meta": {
          "profile": [
            "http://hl7.eu/fhir/laboratory/StructureDefinition/Observation-resultslab-eu-lab"
          ]
        },
        "performer": [
          {
            "display": "The Central European Lab"
          }
        ],
        "category": [
          {
            "coding": [
              {
                "system": "http://terminology.hl7.org/CodeSystem/observation-category",
                "code": "laboratory"
              }
            ]
          }
        ],
        "code": {
          "coding": [
            {
              "code": "6298-4",
              "system": "http://loinc.org",
              "display": "Potassium [Moles/volume] in Blood"
            }
          ],
          "text": "Potassium [Moles/volume] in Blood"
        },
        "valueQuantity": {
          "system": "http://unitsofmeasure.org",
          "value": 4,
          "unit": "mmol/L",
          "code": "mmol/L"
        },
        "referenceRange": [
          {
            "low": {
              "value": 3.6,
              "code": "mmol/L",
              "system": "http://unitsofmeasure.org"
            }
          },
          {
            "high": {
              "value": 5.1,
              "code": "mmol/L",
              "system": "http://unitsofmeasure.org"
            }
          }
        ],
        "text": {
          "status": "generated",
          "div": "<div xmlns=\"http://www.w3.org/1999/xhtml\"><table class=\"hl7__eu__lab__report\"><tr><th>Test</th><th>26-May-2020</th><th>Reference&#xA0;Range</th><th>Unit</th></tr><tr><td>Potassium [Moles/volume] in Blood</td><td>4.0</td><td>3.6 - 5.1</td><td></td><td>mmol/L</td></tr></table></div>"
        },
        "status": "final",
        "subject": {
          "reference": "urn:uuid:39ff34ee-39f2-4c84-bd11-e04fe99034ec",
          "display": "Aniela Prażmo"
        },
        "effectiveDateTime": "2020-05-26T13:25:25Z",
        "specimen": {
          "reference": "urn:uuid:8544ceff-0654-44f4-a78e-485f8fc6b437"
        }
      }
    },
    {
      "fullUrl": "urn:uuid:74baf67a-677c-4680-8a2c-9270371c55ce",
      "resource": {
        "resourceType": "Observation",
        "id": "74baf67a-677c-4680-8a2c-9270371c55ce",
        "meta": {
          "profile": [
            "http://hl7.eu/fhir/laboratory/StructureDefinition/Observation-resultslab-eu-lab"
          ]
        },
        "performer": [
          {
            "display": "The Central European Lab"
          }
        ],
        "category": [
          {
            "coding": [
              {
                "system": "http://terminology.hl7.org/CodeSystem/observation-category",
                "code": "laboratory"
              }
            ]
          }
        ],
        "code": {
          "coding": [
            {
              "code": "2069-3",
              "system": "http://loinc.org",
              "display": "Chloride [Moles/volume] in Blood"
            }
          ],
          "text": "Chloride [Moles/volume] in Blood"
        },
        "valueQuantity": {
          "system": "http://unitsofmeasure.org",
          "value": 105.6,
          "unit": "mmol/L",
          "code": "mmol/L"
        },
        "referenceRange": [
          {
            "low": {
              "value": 98,
              "code": "mmol/L",
              "system": "http://unitsofmeasure.org"
            }
          },
          {
            "high": {
              "value": 107,
              "code": "mmol/L",
              "system": "http://unitsofmeasure.org"
            }
          }
        ],
        "text": {
          "status": "generated",
          "div": "<div xmlns=\"http://www.w3.org/1999/xhtml\"><table class=\"hl7__eu__lab__report\"><tr><th>Test</th><th>26-May-2020</th><th>Reference&#xA0;Range</th><th>Unit</th></tr><tr><td>Chloride [Moles/volume] in Blood</td><td>105.6</td><td>98 - 107</td><td></td><td>mmol/L</td></tr></table></div>"
        },
        "status": "final",
        "subject": {
          "reference": "urn:uuid:39ff34ee-39f2-4c84-bd11-e04fe99034ec",
          "display": "Aniela Prażmo"
        },
        "effectiveDateTime": "2020-05-26T13:25:25Z",
        "specimen": {
          "reference": "urn:uuid:8544ceff-0654-44f4-a78e-485f8fc6b437"
        }
      }
    },
    {
      "fullUrl": "urn:uuid:9c66d4f9-acec-4d9b-9e16-8499dbf9126b",
      "resource": {
        "resourceType": "Observation",
        "id": "9c66d4f9-acec-4d9b-9e16-8499dbf9126b",
        "meta": {
          "profile": [
            "http://hl7.eu/fhir/laboratory/StructureDefinition/Observation-resultslab-eu-lab"
          ]
        },
        "performer": [
          {
            "display": "The Central European Lab"
          }
        ],
        "category": [
          {
            "coding": [
              {
                "system": "http://terminology.hl7.org/CodeSystem/observation-category",
                "code": "laboratory"
              }
            ]
          }
        ],
        "code": {
          "coding": [
            {
              "code": "20565-8",
              "system": "http://loinc.org",
              "display": "Carbon dioxide, total [Moles/volume] in Blood"
            }
          ],
          "text": "Carbon dioxide, total [Moles/volume] in Blood"
        },
        "valueQuantity": {
          "system": "http://unitsofmeasure.org",
          "value": 28.2,
          "unit": "mmol/L",
          "code": "mmol/L"
        },
        "referenceRange": [
          {
            "low": {
              "value": 22,
              "code": "mmol/L",
              "system": "http://unitsofmeasure.org"
            }
          },
          {
            "high": {
              "value": 32,
              "code": "mmol/L",
              "system": "http://unitsofmeasure.org"
            }
          }
        ],
        "text": {
          "status": "generated",
          "div": "<div xmlns=\"http://www.w3.org/1999/xhtml\"><table class=\"hl7__eu__lab__report\"><tr><th>Test</th><th>26-May-2020</th><th>Reference&#xA0;Range</th><th>Unit</th></tr><tr><td>Carbon dioxide, total [Moles/volume] in Blood</td><td>28.2</td><td>22 - 32</td><td></td><td>mmol/L</td></tr></table></div>"
        },
        "status": "final",
        "subject": {
          "reference": "urn:uuid:39ff34ee-39f2-4c84-bd11-e04fe99034ec",
          "display": "Aniela Prażmo"
        },
        "effectiveDateTime": "2020-05-26T13:25:25Z",
        "specimen": {
          "reference": "urn:uuid:8544ceff-0654-44f4-a78e-485f8fc6b437"
        }
      }
    },
    {
      "fullUrl": "urn:uuid:52d2f1c3-ecfd-40ba-8496-20eafefc91f5",
      "resource": {
        "resourceType": "Observation",
        "id": "52d2f1c3-ecfd-40ba-8496-20eafefc91f5",
        "meta": {
          "profile": [
            "http://hl7.eu/fhir/laboratory/StructureDefinition/Observation-resultslab-eu-lab"
          ]
        },
        "performer": [
          {
            "display": "The Central European Lab"
          }
        ],
        "category": [
          {
            "coding": [
              {
                "system": "http://terminology.hl7.org/CodeSystem/observation-category",
                "code": "laboratory"
              }
            ]
          }
        ],
        "code": {
          "coding": [
            {
              "code": "2885-2",
              "system": "http://loinc.org",
              "display": "Protein [Mass/volume] in Serum or Plasma"
            }
          ],
          "text": "Protein [Mass/volume] in Serum or Plasma"
        },
        "valueQuantity": {
          "system": "http://unitsofmeasure.org",
          "value": 7.1,
          "unit": "g/dL",
          "code": "g/dL"
        },
        "referenceRange": [
          {
            "low": {
              "value": 6,
              "code": "g/dL",
              "system": "http://unitsofmeasure.org"
            }
          },
          {
            "high": {
              "value": 8.3,
              "code": "g/dL",
              "system": "http://unitsofmeasure.org"
            }
          }
        ],
        "text": {
          "status": "generated",
          "div": "<div xmlns=\"http://www.w3.org/1999/xhtml\"><table class=\"hl7__eu__lab__report\"><tr><th>Test</th><th>26-May-2020</th><th>Reference&#xA0;Range</th><th>Unit</th></tr><tr><td>Protein [Mass/volume] in Serum or Plasma</td><td>7.1</td><td>6 - 8.3</td><td></td><td>g/dL</td></tr></table></div>"
        },
        "status": "final",
        "subject": {
          "reference": "urn:uuid:39ff34ee-39f2-4c84-bd11-e04fe99034ec",
          "display": "Aniela Prażmo"
        },
        "effectiveDateTime": "2020-05-26T13:25:25Z",
        "specimen": {
          "reference": "urn:uuid:e36259c1-2ec9-4f1e-b955-3d00cc2c1180"
        }
      }
    },
    {
      "fullUrl": "urn:uuid:5f7f7118-83b7-4a75-a49f-a267cf33d443",
      "resource": {
        "resourceType": "Observation",
        "id": "5f7f7118-83b7-4a75-a49f-a267cf33d443",
        "meta": {
          "profile": [
            "http://hl7.eu/fhir/laboratory/StructureDefinition/Observation-resultslab-eu-lab"
          ]
        },
        "performer": [
          {
            "display": "The Central European Lab"
          }
        ],
        "category": [
          {
            "coding": [
              {
                "system": "http://terminology.hl7.org/CodeSystem/observation-category",
                "code": "laboratory"
              }
            ]
          }
        ],
        "code": {
          "coding": [
            {
              "code": "1751-7",
              "system": "http://loinc.org",
              "display": "Albumin [Mass/volume] in Serum or Plasma"
            }
          ],
          "text": "Albumin [Mass/volume] in Serum or Plasma"
        },
        "valueQuantity": {
          "system": "http://unitsofmeasure.org",
          "value": 4.7,
          "unit": "g/dL",
          "code": "g/dL"
        },
        "referenceRange": [
          {
            "low": {
              "value": 3.5,
              "code": "g/dL",
              "system": "http://unitsofmeasure.org"
            }
          },
          {
            "high": {
              "value": 5,
              "code": "g/dL",
              "system": "http://unitsofmeasure.org"
            }
          }
        ],
        "text": {
          "status": "generated",
          "div": "<div xmlns=\"http://www.w3.org/1999/xhtml\"><table class=\"hl7__eu__lab__report\"><tr><th>Test</th><th>26-May-2020</th><th>Reference&#xA0;Range</th><th>Unit</th></tr><tr><td>Albumin [Mass/volume] in Serum or Plasma</td><td>4.7</td><td>3.5 - 5</td><td></td><td>g/dL</td></tr></table></div>"
        },
        "status": "final",
        "subject": {
          "reference": "urn:uuid:39ff34ee-39f2-4c84-bd11-e04fe99034ec",
          "display": "Aniela Prażmo"
        },
        "effectiveDateTime": "2020-05-26T13:25:25Z",
        "specimen": {
          "reference": "urn:uuid:e36259c1-2ec9-4f1e-b955-3d00cc2c1180"
        }
      }
    },
    {
      "fullUrl": "urn:uuid:93233f95-9e7d-4d6d-bdbf-a9b6f8c9dd28",
      "resource": {
        "resourceType": "Observation",
        "id": "93233f95-9e7d-4d6d-bdbf-a9b6f8c9dd28",
        "meta": {
          "profile": [
            "http://hl7.eu/fhir/laboratory/StructureDefinition/Observation-resultslab-eu-lab"
          ]
        },
        "performer": [
          {
            "display": "The Central European Lab"
          }
        ],
        "category": [
          {
            "coding": [
              {
                "system": "http://terminology.hl7.org/CodeSystem/observation-category",
                "code": "laboratory"
              }
            ]
          }
        ],
        "code": {
          "coding": [
            {
              "code": "10834-0",
              "system": "http://loinc.org",
              "display": "Globulin [Mass/volume] in Serum by calculation"
            }
          ],
          "text": "Globulin [Mass/volume] in Serum by calculation"
        },
        "valueQuantity": {
          "system": "http://unitsofmeasure.org",
          "value": 2.6,
          "unit": "g/L",
          "code": "g/L"
        },
        "referenceRange": [
          {
            "low": {
              "value": 2,
              "code": "g/L",
              "system": "http://unitsofmeasure.org"
            }
          },
          {
            "high": {
              "value": 3.9,
              "code": "g/L",
              "system": "http://unitsofmeasure.org"
            }
          }
        ],
        "text": {
          "status": "generated",
          "div": "<div xmlns=\"http://www.w3.org/1999/xhtml\"><table class=\"hl7__eu__lab__report\"><tr><th>Test</th><th>26-May-2020</th><th>Reference&#xA0;Range</th><th>Unit</th></tr><tr><td>Globulin [Mass/volume] in Serum by calculation</td><td>2.6</td><td>2 - 3.9</td><td></td><td>g/L</td></tr></table></div>"
        },
        "status": "final",
        "subject": {
          "reference": "urn:uuid:39ff34ee-39f2-4c84-bd11-e04fe99034ec",
          "display": "Aniela Prażmo"
        },
        "effectiveDateTime": "2020-05-26T13:25:25Z",
        "specimen": {
          "reference": "urn:uuid:f56f5bed-2eef-4068-9236-0fbfc58c1bde"
        }
      }
    },
    {
      "fullUrl": "urn:uuid:bbf1a233-cc13-48d2-9445-ac9a62de7b70",
      "resource": {
        "resourceType": "Observation",
        "id": "bbf1a233-cc13-48d2-9445-ac9a62de7b70",
        "meta": {
          "profile": [
            "http://hl7.eu/fhir/laboratory/StructureDefinition/Observation-resultslab-eu-lab"
          ]
        },
        "performer": [
          {
            "display": "The Central European Lab"
          }
        ],
        "category": [
          {
            "coding": [
              {
                "system": "http://terminology.hl7.org/CodeSystem/observation-category",
                "code": "laboratory"
              }
            ]
          }
        ],
        "code": {
          "coding": [
            {
              "code": "1975-2",
              "system": "http://loinc.org",
              "display": "Bilirubin.total [Mass/volume] in Serum or Plasma"
            }
          ],
          "text": "Bilirubin.total [Mass/volume] in Serum or Plasma"
        },
        "valueQuantity": {
          "system": "http://unitsofmeasure.org",
          "value": 0.5,
          "unit": "mg/dL",
          "code": "mg/dL"
        },
        "referenceRange": [
          {
            "low": {
              "value": 0.3,
              "code": "mg/dL",
              "system": "http://unitsofmeasure.org"
            }
          },
          {
            "high": {
              "value": 1.2,
              "code": "mg/dL",
              "system": "http://unitsofmeasure.org"
            }
          }
        ],
        "text": {
          "status": "generated",
          "div": "<div xmlns=\"http://www.w3.org/1999/xhtml\"><table class=\"hl7__eu__lab__report\"><tr><th>Test</th><th>26-May-2020</th><th>Reference&#xA0;Range</th><th>Unit</th></tr><tr><td>Bilirubin.total [Mass/volume] in Serum or Plasma</td><td>0.5</td><td>0.3 - 1.2</td><td></td><td>mg/dL</td></tr></table></div>"
        },
        "status": "final",
        "subject": {
          "reference": "urn:uuid:39ff34ee-39f2-4c84-bd11-e04fe99034ec",
          "display": "Aniela Prażmo"
        },
        "effectiveDateTime": "2020-05-26T13:25:25Z",
        "specimen": {
          "reference": "urn:uuid:e36259c1-2ec9-4f1e-b955-3d00cc2c1180"
        }
      }
    },
    {
      "fullUrl": "urn:uuid:a34119f8-0be8-4e9e-8bf6-fd821432cf2e",
      "resource": {
        "resourceType": "Observation",
        "id": "a34119f8-0be8-4e9e-8bf6-fd821432cf2e",
        "meta": {
          "profile": [
            "http://hl7.eu/fhir/laboratory/StructureDefinition/Observation-resultslab-eu-lab"
          ]
        },
        "performer": [
          {
            "display": "The Central European Lab"
          }
        ],
        "category": [
          {
            "coding": [
              {
                "system": "http://terminology.hl7.org/CodeSystem/observation-category",
                "code": "laboratory"
              }
            ]
          }
        ],
        "code": {
          "coding": [
            {
              "code": "6768-6",
              "system": "http://loinc.org",
              "display": "Alkaline phosphatase [Enzymatic activity/volume] in Serum or Plasma"
            }
          ],
          "text": "Alkaline phosphatase [Enzymatic activity/volume] in Serum or Plasma"
        },
        "valueQuantity": {
          "system": "http://unitsofmeasure.org",
          "value": 128,
          "unit": "U/L",
          "code": "U/L"
        },
        "referenceRange": [
          {
            "low": {
              "value": 32,
              "code": "U/L",
              "system": "http://unitsofmeasure.org"
            }
          },
          {
            "high": {
              "value": 150,
              "code": "U/L",
              "system": "http://unitsofmeasure.org"
            }
          }
        ],
        "text": {
          "status": "generated",
          "div": "<div xmlns=\"http://www.w3.org/1999/xhtml\"><table class=\"hl7__eu__lab__report\"><tr><th>Test</th><th>26-May-2020</th><th>Reference&#xA0;Range</th><th>Unit</th></tr><tr><td>Alkaline phosphatase [Enzymatic activity/volume] in Serum or Plasma</td><td>128.0</td><td>32 - 150</td><td></td><td>U/L</td></tr></table></div>"
        },
        "status": "final",
        "subject": {
          "reference": "urn:uuid:39ff34ee-39f2-4c84-bd11-e04fe99034ec",
          "display": "Aniela Prażmo"
        },
        "effectiveDateTime": "2020-05-26T13:25:25Z",
        "specimen": {
          "reference": "urn:uuid:e36259c1-2ec9-4f1e-b955-3d00cc2c1180"
        }
      }
    },
    {
      "fullUrl": "urn:uuid:bb6b81ef-54d5-4c9e-94ed-3f6d9ff108e2",
      "resource": {
        "resourceType": "Observation",
        "id": "bb6b81ef-54d5-4c9e-94ed-3f6d9ff108e2",
        "meta": {
          "profile": [
            "http://hl7.eu/fhir/laboratory/StructureDefinition/Observation-resultslab-eu-lab"
          ]
        },
        "performer": [
          {
            "display": "The Central European Lab"
          }
        ],
        "category": [
          {
            "coding": [
              {
                "system": "http://terminology.hl7.org/CodeSystem/observation-category",
                "code": "laboratory"
              }
            ]
          }
        ],
        "code": {
          "coding": [
            {
              "code": "1742-6",
              "system": "http://loinc.org",
              "display": "Alanine aminotransferase [Enzymatic activity/volume] in Serum or Plasma"
            }
          ],
          "text": "Alanine aminotransferase [Enzymatic activity/volume] in Serum or Plasma"
        },
        "valueQuantity": {
          "system": "http://unitsofmeasure.org",
          "value": 21.5,
          "unit": "U/L",
          "code": "U/L"
        },
        "referenceRange": [
          {
            "low": {
              "value": 13,
              "code": "U/L",
              "system": "http://unitsofmeasure.org"
            }
          },
          {
            "high": {
              "value": 32,
              "code": "U/L",
              "system": "http://unitsofmeasure.org"
            }
          }
        ],
        "text": {
          "status": "generated",
          "div": "<div xmlns=\"http://www.w3.org/1999/xhtml\"><table class=\"hl7__eu__lab__report\"><tr><th>Test</th><th>26-May-2020</th><th>Reference&#xA0;Range</th><th>Unit</th></tr><tr><td>Alanine aminotransferase [Enzymatic activity/volume] in Serum or Plasma</td><td>21.5</td><td>13 - 32</td><td></td><td>U/L</td></tr></table></div>"
        },
        "status": "final",
        "subject": {
          "reference": "urn:uuid:39ff34ee-39f2-4c84-bd11-e04fe99034ec",
          "display": "Aniela Prażmo"
        },
        "effectiveDateTime": "2020-05-26T13:25:25Z",
        "specimen": {
          "reference": "urn:uuid:e36259c1-2ec9-4f1e-b955-3d00cc2c1180"
        }
      }
    },
    {
      "fullUrl": "urn:uuid:276aad54-3f40-4577-a4f0-58e45bd4593f",
      "resource": {
        "resourceType": "Observation",
        "id": "276aad54-3f40-4577-a4f0-58e45bd4593f",
        "meta": {
          "profile": [
            "http://hl7.eu/fhir/laboratory/StructureDefinition/Observation-resultslab-eu-lab"
          ]
        },
        "performer": [
          {
            "display": "The Central European Lab"
          }
        ],
        "category": [
          {
            "coding": [
              {
                "system": "http://terminology.hl7.org/CodeSystem/observation-category",
                "code": "laboratory"
              }
            ]
          }
        ],
        "code": {
          "coding": [
            {
              "code": "1920-8",
              "system": "http://loinc.org",
              "display": "Aspartate aminotransferase [Enzymatic activity/volume] in Serum or Plasma"
            }
          ],
          "text": "Aspartate aminotransferase [Enzymatic activity/volume] in Serum or Plasma"
        },
        "valueQuantity": {
          "system": "http://unitsofmeasure.org",
          "value": 15,
          "unit": "U/L",
          "code": "U/L"
        },
        "referenceRange": [
          {
            "low": {
              "value": 10,
              "code": "U/L",
              "system": "http://unitsofmeasure.org"
            }
          },
          {
            "high": {
              "value": 40,
              "code": "U/L",
              "system": "http://unitsofmeasure.org"
            }
          }
        ],
        "text": {
          "status": "generated",
          "div": "<div xmlns=\"http://www.w3.org/1999/xhtml\"><table class=\"hl7__eu__lab__report\"><tr><th>Test</th><th>26-May-2020</th><th>Reference&#xA0;Range</th><th>Unit</th></tr><tr><td>Aspartate aminotransferase [Enzymatic activity/volume] in Serum or Plasma</td><td>15.0</td><td>10 - 40</td><td></td><td>U/L</td></tr></table></div>"
        },
        "status": "final",
        "subject": {
          "reference": "urn:uuid:39ff34ee-39f2-4c84-bd11-e04fe99034ec",
          "display": "Aniela Prażmo"
        },
        "effectiveDateTime": "2020-05-26T13:25:25Z",
        "specimen": {
          "reference": "urn:uuid:e36259c1-2ec9-4f1e-b955-3d00cc2c1180"
        }
      }
    },
    {
      "fullUrl": "urn:uuid:c2fa673e-973b-4181-993f-9265b1a40a96",
      "resource": {
        "resourceType": "Observation",
        "id": "c2fa673e-973b-4181-993f-9265b1a40a96",
        "meta": {
          "profile": [
            "http://hl7.eu/fhir/laboratory/StructureDefinition/Observation-resultslab-eu-lab"
          ]
        },
        "performer": [
          {
            "display": "The Central European Lab"
          }
        ],
        "category": [
          {
            "coding": [
              {
                "system": "http://terminology.hl7.org/CodeSystem/observation-category",
                "code": "laboratory"
              }
            ]
          }
        ],
        "code": {
          "coding": [
            {
              "code": "2093-3",
              "system": "http://loinc.org",
              "display": "Cholesterol [Mass/volume] in Serum or Plasma"
            }
          ],
          "text": "Cholesterol [Mass/volume] in Serum or Plasma"
        },
        "valueQuantity": {
          "system": "http://unitsofmeasure.org",
          "value": 177.3,
          "unit": "mg/dL",
          "code": "mg/dL"
        },
        "referenceRange": [
          {
            "low": {
              "value": 130,
              "code": "mg/dL",
              "system": "http://unitsofmeasure.org"
            }
          },
          {
            "high": {
              "value": 200,
              "code": "mg/dL",
              "system": "http://unitsofmeasure.org"
            }
          }
        ],
        "text": {
          "status": "generated",
          "div": "<div xmlns=\"http://www.w3.org/1999/xhtml\"><table class=\"hl7__eu__lab__report\"><tr><th>Test</th><th>26-May-2020</th><th>Reference&#xA0;Range</th><th>Unit</th></tr><tr><td>Cholesterol [Mass/volume] in Serum or Plasma</td><td>177.3</td><td>130 - 200</td><td></td><td>mg/dL</td></tr></table></div>"
        },
        "status": "final",
        "subject": {
          "reference": "urn:uuid:39ff34ee-39f2-4c84-bd11-e04fe99034ec",
          "display": "Aniela Prażmo"
        },
        "effectiveDateTime": "2020-05-26T13:25:25Z",
        "specimen": {
          "reference": "urn:uuid:e36259c1-2ec9-4f1e-b955-3d00cc2c1180"
        }
      }
    },
    {
      "fullUrl": "urn:uuid:1b703098-60fd-4cb9-9938-d6b1a4f68987",
      "resource": {
        "resourceType": "Observation",
        "id": "1b703098-60fd-4cb9-9938-d6b1a4f68987",
        "meta": {
          "profile": [
            "http://hl7.eu/fhir/laboratory/StructureDefinition/Observation-resultslab-eu-lab"
          ]
        },
        "performer": [
          {
            "display": "The Central European Lab"
          }
        ],
        "category": [
          {
            "coding": [
              {
                "system": "http://terminology.hl7.org/CodeSystem/observation-category",
                "code": "laboratory"
              }
            ]
          }
        ],
        "code": {
          "coding": [
            {
              "code": "2571-8",
              "system": "http://loinc.org",
              "display": "Triglyceride [Mass/volume] in Serum or Plasma"
            }
          ],
          "text": "Triglyceride [Mass/volume] in Serum or Plasma"
        },
        "valueQuantity": {
          "system": "http://unitsofmeasure.org",
          "value": 107.9,
          "unit": "mg/dL",
          "code": "mg/dL"
        },
        "referenceRange": [
          {
            "low": {
              "value": 0,
              "code": "mg/dL",
              "system": "http://unitsofmeasure.org"
            }
          },
          {
            "high": {
              "value": 199,
              "code": "mg/dL",
              "system": "http://unitsofmeasure.org"
            }
          }
        ],
        "text": {
          "status": "generated",
          "div": "<div xmlns=\"http://www.w3.org/1999/xhtml\"><table class=\"hl7__eu__lab__report\"><tr><th>Test</th><th>26-May-2020</th><th>Reference&#xA0;Range</th><th>Unit</th></tr><tr><td>Triglyceride [Mass/volume] in Serum or Plasma</td><td>107.9</td><td>0 - 199</td><td></td><td>mg/dL</td></tr></table></div>"
        },
        "status": "final",
        "subject": {
          "reference": "urn:uuid:39ff34ee-39f2-4c84-bd11-e04fe99034ec",
          "display": "Aniela Prażmo"
        },
        "effectiveDateTime": "2020-05-26T13:25:25Z",
        "specimen": {
          "reference": "urn:uuid:e36259c1-2ec9-4f1e-b955-3d00cc2c1180"
        }
      }
    },
    {
      "fullUrl": "urn:uuid:e40469df-8751-4321-bbe4-14cb6aff2f3d",
      "resource": {
        "resourceType": "Observation",
        "id": "e40469df-8751-4321-bbe4-14cb6aff2f3d",
        "meta": {
          "profile": [
            "http://hl7.eu/fhir/laboratory/StructureDefinition/Observation-resultslab-eu-lab"
          ]
        },
        "performer": [
          {
            "display": "The Central European Lab"
          }
        ],
        "category": [
          {
            "coding": [
              {
                "system": "http://terminology.hl7.org/CodeSystem/observation-category",
                "code": "laboratory"
              }
            ]
          }
        ],
        "code": {
          "coding": [
            {
              "code": "18262-6",
              "system": "http://loinc.org",
              "display": "Cholesterol in LDL [Mass/volume] in Serum or Plasma by Direct assay"
            }
          ],
          "text": "Cholesterol in LDL [Mass/volume] in Serum or Plasma by Direct assay"
        },
        "valueQuantity": {
          "system": "http://unitsofmeasure.org",
          "value": 134.7,
          "unit": "mg/dL",
          "code": "mg/dL"
        },
        "referenceRange": [
          {
            "low": {
              "value": 0,
              "code": "mg/dL",
              "system": "http://unitsofmeasure.org"
            }
          },
          {
            "high": {
              "value": 130,
              "code": "mg/dL",
              "system": "http://unitsofmeasure.org"
            }
          }
        ],
        "interpretation": [
          {
            "coding": [
              {
                "code": "H",
                "system": "http://terminology.hl7.org/CodeSystem/v3-ObservationInterpretation",
                "display": "High"
              }
            ]
          }
        ],
        "text": {
          "status": "generated",
          "div": "<div xmlns=\"http://www.w3.org/1999/xhtml\"><table class=\"hl7__eu__lab__report\"><tr><th>Test</th><th>26-May-2020</th><th>Reference&#xA0;Range</th><th>Unit</th></tr><tr><td>Cholesterol in LDL [Mass/volume] in Serum or Plasma by Direct assay</td><td>134.7</td><td>0 - 130</td><td>H</td><td>mg/dL</td></tr></table></div>"
        },
        "status": "final",
        "subject": {
          "reference": "urn:uuid:39ff34ee-39f2-4c84-bd11-e04fe99034ec",
          "display": "Aniela Prażmo"
        },
        "effectiveDateTime": "2020-05-26T13:25:25Z",
        "specimen": {
          "reference": "urn:uuid:e36259c1-2ec9-4f1e-b955-3d00cc2c1180"
        }
      }
    },
    {
      "fullUrl": "urn:uuid:c1a4e075-0914-4a4a-a837-c0efa595a742",
      "resource": {
        "resourceType": "Observation",
        "id": "c1a4e075-0914-4a4a-a837-c0efa595a742",
        "meta": {
          "profile": [
            "http://hl7.eu/fhir/laboratory/StructureDefinition/Observation-resultslab-eu-lab"
          ]
        },
        "performer": [
          {
            "display": "The Central European Lab"
          }
        ],
        "category": [
          {
            "coding": [
              {
                "system": "http://terminology.hl7.org/CodeSystem/observation-category",
                "code": "laboratory"
              }
            ]
          }
        ],
        "code": {
          "coding": [
            {
              "code": "2085-9",
              "system": "http://loinc.org",
              "display": "Cholesterol in HDL [Mass/volume] in Serum or Plasma"
            }
          ],
          "text": "Cholesterol in HDL [Mass/volume] in Serum or Plasma"
        },
        "valueQuantity": {
          "system": "http://unitsofmeasure.org",
          "value": 55.4,
          "unit": "mg/dL",
          "code": "mg/dL"
        },
        "referenceRange": [
          {
            "low": {
              "value": 50,
              "code": "mg/dL",
              "system": "http://unitsofmeasure.org"
            }
          },
          {
            "high": {
              "value": 100,
              "code": "mg/dL",
              "system": "http://unitsofmeasure.org"
            }
          }
        ],
        "text": {
          "status": "generated",
          "div": "<div xmlns=\"http://www.w3.org/1999/xhtml\"><table class=\"hl7__eu__lab__report\"><tr><th>Test</th><th>26-May-2020</th><th>Reference&#xA0;Range</th><th>Unit</th></tr><tr><td>Cholesterol in HDL [Mass/volume] in Serum or Plasma</td><td>55.4</td><td>50 - 100</td><td></td><td>mg/dL</td></tr></table></div>"
        },
        "status": "final",
        "subject": {
          "reference": "urn:uuid:39ff34ee-39f2-4c84-bd11-e04fe99034ec",
          "display": "Aniela Prażmo"
        },
        "effectiveDateTime": "2020-05-26T13:25:25Z",
        "specimen": {
          "reference": "urn:uuid:e36259c1-2ec9-4f1e-b955-3d00cc2c1180"
        }
      }
    },
    {
      "fullUrl": "urn:uuid:0a64f54e-1e9f-4fab-89b7-31c80c9228da",
      "resource": {
        "resourceType": "Device",
        "id": "0a64f54e-1e9f-4fab-89b7-31c80c9228da",
        "deviceName": [
          {
            "name": "SYNDERAI Synthetic Generator",
            "type": "manufacturer-name"
          }
        ],
        "version": [
          {
            "value": "5.0"
          }
        ],
        "text": {
          "status": "generated",
          "div": "<div xmlns=\"http://www.w3.org/1999/xhtml\">SYNDERAI Synthetic Generator v5.0</div>"
        },
        "status": "active\"",
        "distinctIdentifier": "synderai-generator-50",
        "manufacturer": "SYNDERAI Project"
      }
    },
    {
      "fullUrl": "urn:uuid:85237685-7a3d-4876-8123-7af1c0a0ad46",
      "resource": {
        "resourceType": "Provenance",
        "id": "85237685-7a3d-4876-8123-7af1c0a0ad46",
        "target": [
          {
            "reference": "Patient/39ff34ee-39f2-4c84-bd11-e04fe99034ec"
          },
          {
            "reference": "Bundle/01b9bb01-51e5-4b16-8599-093ff005a740"
          },
          {
            "reference": "Composition/0801ad57-3f3e-4046-85ee-d81a083a2cca"
          },
          {
            "reference": "PractitionerRole/fdb95e6d-bf04-4ea1-ac56-87818b0eb4f6"
          },
          {
            "reference": "Practitioner/96208ef7-70d9-4e42-bc54-bcfd262073a1"
          },
          {
            "reference": "PractitionerRole/c21c239e-529f-4d90-9b03-b0c46c98ca30"
          },
          {
            "reference": "Organization/55a9a2f2-3ed2-49aa-8941-1d14eb6e6afd"
          }
        ],
        "activity": {
          "text": "Synthetic Example Data Generation"
        },
        "policy": [
          "https://synderai.net/synderai-synthetic-data-policy"
        ],
        "agent": [
          {
            "type": {
              "text": "author"
            },
            "who": {
              "reference": "Device/0a64f54e-1e9f-4fab-89b7-31c80c9228da"
            }
          }
        ],
        "reason": [
          {
            "text": "Interoperability Testing and Training (non-clinical use)"
          }
        ],
        "text": {
          "status": "generated",
          "div": "<div xmlns=\"http://www.w3.org/1999/xhtml\">Provenance for SYNDERAI Synthetic Example Data Resource</div>"
        },
        "recorded": "2020-05-26T15:25:25Z"
      }
    },
    {
      "fullUrl": "urn:uuid:fdb95e6d-bf04-4ea1-ac56-87818b0eb4f6",
      "resource": {
        "resourceType": "PractitionerRole",
        "id": "fdb95e6d-bf04-4ea1-ac56-87818b0eb4f6",
        "meta": {
          "profile": [
            "http://hl7.eu/fhir/base/StructureDefinition/practitionerRole-eu"
          ]
        },
        "text": {
          "status": "generated",
          "div": "<div xmlns=\"http://www.w3.org/1999/xhtml\">Laboratory Role Id: fdb95e6d-bf04-4ea1-ac56-87818b0eb4f6</div>"
        },
        "practitioner": {
          "reference": "urn:uuid:96208ef7-70d9-4e42-bc54-bcfd262073a1"
        }
      }
    },
    {
      "fullUrl": "urn:uuid:96208ef7-70d9-4e42-bc54-bcfd262073a1",
      "resource": {
        "resourceType": "Practitioner",
        "id": "96208ef7-70d9-4e42-bc54-bcfd262073a1",
        "meta": {
          "profile": [
            "http://hl7.eu/fhir/base/StructureDefinition/practitioner-eu"
          ]
        },
        "identifier": [
          {
            "assigner": {
              "display": "HL7 Europe"
            },
            "system": "urn:oid:2.16.840.1.113883.2.51.999",
            "value": "551a848c-b115-439f-9804-db616413f937"
          }
        ],
        "name": [
          {
            "prefix": [
              "dr"
            ],
            "given": [
              "Ex"
            ],
            "family": "Ample"
          }
        ],
        "address": [
          {
            "line": [
              "Laboratoire Central Européenne",
              "Boulevard du Jardin Botanique 32"
            ],
            "postalCode": "1000",
            "city": "Brussels",
            "country": "Belgium"
          }
        ],
        "text": {
          "status": "generated",
          "div": "<div xmlns=\"http://www.w3.org/1999/xhtml\">Laboratory: Laboratoire Central Européenne, 1000 Brussels, Belgium</div>"
        }
      }
    }
  ],
  "type": "document",
  "timestamp": "2020-05-26T15:25:25Z"
}
