{
  "resourceType": "Bundle",
  "id": "4b33fef3-c75f-4d1e-8282-dff23c423a6a",
  "meta": {
    "profile": [
      "http://hl7.eu/fhir/laboratory/StructureDefinition/Bundle-eu-lab"
    ]
  },
  "identifier": {
    "assigner": {
      "display": "HL7 Europe"
    },
    "system": "urn:oid:2.16.840.1.113883.2.51.999",
    "value": "2a665cf7-5561-47f4-adfe-00b9b69b256a"
  },
  "entry": [
    {
      "fullUrl": "urn:uuid:6d62dc52-8342-4fe9-ba55-9747fa74d383",
      "resource": {
        "resourceType": "Composition",
        "id": "6d62dc52-8342-4fe9-ba55-9747fa74d383",
        "meta": {
          "profile": [
            "http://hl7.eu/fhir/laboratory/StructureDefinition/Composition-eu-lab"
          ]
        },
        "identifier": {
          "assigner": {
            "display": "HL7 Europe"
          },
          "system": "urn:oid:2.16.840.1.113883.2.51.999",
          "value": "ce5856bb-a84c-479e-a932-b12c9040d77f"
        },
        "author": [
          {
            "reference": "urn:uuid:cc337f10-9202-43e2-bf23-120955d52bd4"
          }
        ],
        "category": [
          {
            "coding": [
              {
                "code": "26436-6",
                "system": "http://loinc.org",
                "display": "Laboratory studies (set)"
              }
            ]
          }
        ],
        "type": {
          "coding": [
            {
              "code": "11502-2",
              "system": "http://loinc.org",
              "display": "Laboratory report"
            }
          ],
          "text": "Laboratory Report"
        },
        "section": [
          {
            "code": {
              "coding": [
                {
                  "code": "26436-6",
                  "system": "http://loinc.org",
                  "display": "Laboratory studies (set)"
                }
              ],
              "text": "Laboratory studies"
            },
            "section": [
              {
                "code": {
                  "coding": [
                    {
                      "code": "$18723-7",
                      "system": "http://loinc.org",
                      "display": "Hematology studies (set)"
                    }
                  ],
                  "text": "Hematology"
                },
                "entry": [
                  {
                    "reference": "urn:uuid:cc6cb265-a60f-4316-92e8-1273ee49fed2"
                  },
                  {
                    "reference": "urn:uuid:06fe329f-17d0-41e3-a3b5-9522dc1610fd"
                  },
                  {
                    "reference": "urn:uuid:0d0b4787-c69a-4f17-90df-875604ba4b6a"
                  },
                  {
                    "reference": "urn:uuid:b22d8379-2fde-4244-a834-2e22eb8de731"
                  },
                  {
                    "reference": "urn:uuid:62280559-f55a-45a0-9c66-16fc8fabf0d2"
                  },
                  {
                    "reference": "urn:uuid:82d3312e-cdc6-4fb2-97b2-846b987af854"
                  },
                  {
                    "reference": "urn:uuid:ebe3e756-dce1-49bb-8392-e33122e0fa97"
                  },
                  {
                    "reference": "urn:uuid:a84f257a-62bd-44c1-ade1-ecc263bd0f48"
                  },
                  {
                    "reference": "urn:uuid:bf8d5d69-daac-4074-9dec-19076877b97d"
                  },
                  {
                    "reference": "urn:uuid:fb0170c3-0e3e-4fe1-a01e-2b86b866ea1a"
                  },
                  {
                    "reference": "urn:uuid:8794fff2-6dde-4ecb-a153-bafc0e5a75b7"
                  }
                ],
                "text": {
                  "status": "generated",
                  "div": "<div xmlns=\"http://www.w3.org/1999/xhtml\"><h3>Hematology</h3><table class=\"hl7__eu__lab__report\"><thead><tr><th>Test</th><th>23-MAR-2023</th><th>Reference&#xA0;Range</th><th>Unit</th></tr></thead><tbody><tr><td>Leukocytes [#/volume] in Blood by Automated count</td><td>3.9</td><td>3.6 - 10.5</td><td>10*3/uL</td></tr><tr><td>Erythrocytes [#/volume] in Blood by Automated count</td><td>5.1</td><td>4.1 - 5.7</td><td>10*6/uL</td></tr><tr><td>Hemoglobin [Mass/volume] in Blood</td><td><strong>17.0 H</strong></td><td>12 - 15.5</td><td>g/dL</td></tr><tr><td>Hematocrit [Volume Fraction] of Blood by Automated count</td><td>41.7</td><td>37.5 - 44.3</td><td>%</td></tr><tr><td>MCV [Entitic volume] by Automated count</td><td>93.4</td><td>78 - 98</td><td>fL</td></tr><tr><td>MCH [Entitic mass] by Automated count</td><td>29.9</td><td>27 - 34</td><td>pg</td></tr><tr><td>MCHC [Mass/volume] by Automated count</td><td><strong>35.1 H</strong></td><td>31 - 35</td><td>g/dL</td></tr><tr><td>Erythrocyte distribution width [Entitic volume] by Automated count</td><td>43.5</td><td>36 - 56</td><td>fL</td></tr><tr><td>Platelets [#/volume] in Blood by Automated count</td><td>334.5</td><td>150 - 450</td><td>10*3/uL</td></tr><tr><td>Platelet distribution width [Entitic volume] in Blood by Automated count</td><td><strong>486.6 H</strong></td><td>13.4 - 17.4</td><td>fL</td></tr><tr><td>Platelet mean volume [Entitic volume] in Blood by Automated count</td><td>9.9</td><td>9.7 - 13.5</td><td>fL</td></tr></tbody></table></div>"
                },
                "title": "Hematology"
              },
              {
                "code": {
                  "coding": [
                    {
                      "code": "$18719-5",
                      "system": "http://loinc.org",
                      "display": "Chemistry studies (set)"
                    }
                  ],
                  "text": "Chemistry"
                },
                "entry": [
                  {
                    "reference": "urn:uuid:ce47e542-c818-4573-9946-f8080af6d854"
                  },
                  {
                    "reference": "urn:uuid:fe80ff9e-6158-41b1-a0af-98d11d74a18d"
                  },
                  {
                    "reference": "urn:uuid:3099908e-d357-4f0a-bf4f-8dd3fa1f4426"
                  },
                  {
                    "reference": "urn:uuid:8ee480b8-8673-40ef-8798-278d9d57a43f"
                  },
                  {
                    "reference": "urn:uuid:b6d43e20-a236-4aeb-930f-0b5c9e8dc101"
                  },
                  {
                    "reference": "urn:uuid:499d955b-6e8d-44f2-99c0-8481e9caca95"
                  },
                  {
                    "reference": "urn:uuid:373f91bf-1a52-483a-a16f-32a6c90a8770"
                  },
                  {
                    "reference": "urn:uuid:7c11bb8a-bea0-48f0-91d2-602b319633cd"
                  },
                  {
                    "reference": "urn:uuid:bb312f59-71cb-40f3-85ea-7991e39990a9"
                  }
                ],
                "text": {
                  "status": "generated",
                  "div": "<div xmlns=\"http://www.w3.org/1999/xhtml\"><h3>Chemistry</h3><table class=\"hl7__eu__lab__report\"><thead><tr><th>Test</th><th>23-MAR-2023</th><th>Reference&#xA0;Range</th><th>Unit</th></tr></thead><tbody><tr><td>Glucose [Mass/volume] in Serum or Plasma</td><td>98.4</td><td>70 - 140</td><td>mg/dL</td></tr><tr><td>Urea nitrogen [Mass/volume] in Serum or Plasma</td><td>18.5</td><td>7 - 50</td><td>mg/dL</td></tr><tr><td>Creatinine [Mass/volume] in Serum or Plasma</td><td><strong>1.8 H</strong></td><td>0.6 - 1.1</td><td>mg/dL</td></tr><tr><td>Calcium [Mass/volume] in Serum or Plasma</td><td>9.1</td><td>8.5 - 10.5</td><td>mg/dL</td></tr><tr><td>Sodium [Moles/volume] in Serum or Plasma</td><td>139.5</td><td>135 - 145</td><td>mmol/L</td></tr><tr><td>Potassium [Moles/volume] in Serum or Plasma</td><td>5.1</td><td>3.5 - 5.1</td><td>mmol/L</td></tr><tr><td>Chloride [Moles/volume] in Serum or Plasma</td><td><strong>109.9 H</strong></td><td>98 - 108</td><td>mmol/L</td></tr><tr><td>Carbon dioxide, total [Moles/volume] in Serum or Plasma</td><td>25.0</td><td>22 - 32</td><td>mmol/L</td></tr><tr><td>Ketones [Presence] in Urine by Test strip</td><td>Urine ketone test = +</td><td></td><td></td></tr></tbody></table></div>"
                },
                "title": "Chemistry"
              },
              {
                "code": {
                  "coding": [
                    {
                      "code": "$18729-4",
                      "system": "http://loinc.org",
                      "display": "Urinalysis studies (set)"
                    }
                  ],
                  "text": "Urinalysis"
                },
                "entry": [
                  {
                    "reference": "urn:uuid:758ed39a-ea77-4712-89f9-5cb1ab26c9da"
                  },
                  {
                    "reference": "urn:uuid:5b24bf15-e01b-43bd-aadf-1395a2c08ffb"
                  },
                  {
                    "reference": "urn:uuid:f201cc0f-b4cc-410a-a919-e39bdb478e93"
                  },
                  {
                    "reference": "urn:uuid:ec683739-7a96-4535-baaa-00269120014a"
                  },
                  {
                    "reference": "urn:uuid:e8237596-7c04-4e1c-9d7a-971cfea132fa"
                  },
                  {
                    "reference": "urn:uuid:92abbe06-4091-4ef7-99d8-38917993407c"
                  },
                  {
                    "reference": "urn:uuid:22568755-b296-4088-ad48-65ec2afb51df"
                  },
                  {
                    "reference": "urn:uuid:9151d40b-7333-4561-a979-70ba3e2b9ce3"
                  },
                  {
                    "reference": "urn:uuid:b69dd28b-3337-4f6d-b38f-c0ddd3131d69"
                  },
                  {
                    "reference": "urn:uuid:35c73777-dfb4-4289-9bb5-22a41dd1525b"
                  },
                  {
                    "reference": "urn:uuid:3fb104ac-d375-43af-8894-0bcf93585bcd"
                  },
                  {
                    "reference": "urn:uuid:d35e3305-735a-4ed9-ad38-213e33e37c04"
                  }
                ],
                "text": {
                  "status": "generated",
                  "div": "<div xmlns=\"http://www.w3.org/1999/xhtml\"><h3>Urinalysis</h3><table class=\"hl7__eu__lab__report\"><thead><tr><th>Test</th><th>23-MAR-2023</th><th>Reference&#xA0;Range</th><th>Unit</th></tr></thead><tbody><tr><td>Glucose [Mass/volume] in Urine by Test strip</td><td><strong>1.7 H</strong></td><td>0.8 - 0</td><td>mg/dL</td></tr><tr><td>Glucose [Presence] in Urine by Test strip</td><td>++</td><td></td><td></td></tr><tr><td>Bilirubin.total [Mass/volume] in Urine by Test strip</td><td><strong>1.2 H</strong></td><td>0 - 1</td><td>mg/dL</td></tr><tr><td>Bilirubin.total [Presence] in Urine by Test strip</td><td>Finding of bilirubin in urine</td><td></td><td></td></tr><tr><td>Ketones [Mass/volume] in Urine by Test strip</td><td>1.2</td><td>0 - 20</td><td>mg/dL</td></tr><tr><td>Specific gravity of Urine by Test strip</td><td><strong>1.0 L</strong></td><td>1.01 - 1.03</td><td>{nominal}</td></tr><tr><td>pH of Urine by Test strip</td><td>5.9</td><td>4.6 - 7</td><td>pH</td></tr><tr><td>Protein [Mass/volume] in Urine by Test strip</td><td><strong>242.6 H</strong></td><td>0 - 15</td><td>mg/dL</td></tr><tr><td>Protein [Presence] in Urine by Test strip</td><td>Urine protein test = ++</td><td></td><td></td></tr><tr><td>Nitrite [Presence] in Urine by Test strip</td><td>Urine nitrite negative</td><td></td><td></td></tr><tr><td>Hemoglobin [Presence] in Urine by Test strip</td><td>Urine blood test = negative</td><td></td><td></td></tr><tr><td>Leukocyte esterase [Presence] in Urine by Test strip</td><td>Urine leukocyte test negative</td><td></td><td></td></tr></tbody></table></div>"
                },
                "title": "Urinalysis"
              },
              {
                "code": {
                  "coding": [
                    {
                      "code": "$LP7846-1",
                      "system": "http://loinc.org",
                      "display": "Specimen information"
                    }
                  ],
                  "text": "Specimen information"
                },
                "entry": [
                  {
                    "reference": "urn:uuid:5f928105-e6d1-472a-a1d0-bb0f48c15750"
                  },
                  {
                    "reference": "urn:uuid:4e03caf6-4c06-4525-b185-e50c660c4c74"
                  },
                  {
                    "reference": "urn:uuid:2f89bada-2593-479b-98ad-7918ebbb07f9"
                  },
                  {
                    "reference": "urn:uuid:2ee61dd5-b26d-42e2-9e13-7c9fb0d96074"
                  }
                ],
                "text": {
                  "status": "generated",
                  "div": "<div xmlns=\"http://www.w3.org/1999/xhtml\"><h3>Specimen information</h3><table class=\"hl7__eu__lab__report\"><thead><tr><th>Test</th><th>23-MAR-2023</th><th>Specimen</th><th></th></tr></thead><tbody><tr><td>Appearance of Urine</td><td>Cloudy urine</td><td>Urine</td><td></td></tr><tr><td>Odor of Urine</td><td>Urine smell ammoniacal</td><td>Urine</td><td></td></tr><tr><td>Clarity of Urine</td><td>Translucent</td><td>Urine</td><td></td></tr><tr><td>Color of Urine</td><td>Brown color</td><td>Urine</td><td></td></tr></tbody></table></div>"
                },
                "title": "Specimen information"
              }
            ],
            "title": "Laboratory Report"
          },
          {
            "text": {
              "status": "generated",
              "div": "<div xmlns=\"http://www.w3.org/1999/xhtml\"><h3>Annotation</h3><table class=\"hl7__eu__lab__report\"><tr><th>Conclusion and Recommendations based on this report and previous findings known to us</th></tr><tr><td>The patient shows elevated serum creatinine, proteinuria, glucosuria, bilirubinuria, and low urine specific gravity, suggesting impaired renal function with possible nephrotic features and tubular dysfunction. Hemoglobin is elevated, possibly due to hemoconcentration. Urine is cloudy and brown but without evidence of infection. Further nephrological evaluation is recommended.</td></tr></table></div>"
            },
            "code": {
              "coding": [
                {
                  "system": "http://loinc.org",
                  "code": "48767-8",
                  "display": "Annotation comment"
                }
              ]
            },
            "title": "Annotation comment"
          }
        ],
        "status": "final",
        "subject": {
          "reference": "urn:uuid:a52effcc-8cd4-4f8c-8b8e-a89624d3751d",
          "display": "Marthe Gallet"
        },
        "date": "2023-03-23T20:05:43Z",
        "title": "Laboratory Report",
        "confidentiality": "N"
      }
    },
    {
      "fullUrl": "urn:uuid:1998ed8c-45e4-4be8-abab-63f1d48e0f20",
      "resource": {
        "resourceType": "DiagnosticReport",
        "id": "1998ed8c-45e4-4be8-abab-63f1d48e0f20",
        "meta": {
          "profile": [
            "http://hl7.eu/fhir/laboratory/StructureDefinition/DiagnosticReport-eu-lab"
          ]
        },
        "identifier": [
          {
            "assigner": {
              "display": "HL7 Europe"
            },
            "system": "urn:oid:2.16.840.1.113883.2.51.999",
            "value": "ed72c940-13c2-4756-82ef-bd183e35c6e8"
          }
        ],
        "extension": [
          {
            "url": "http://hl7.org/fhir/5.0/StructureDefinition/extension-DiagnosticReport.composition",
            "valueReference": {
              "reference": "urn:uuid:ce5856bb-a84c-479e-a932-b12c9040d77f"
            }
          }
        ],
        "category": [
          {
            "coding": [
              {
                "code": "26436-6",
                "system": "http://loinc.org",
                "display": "Laboratory studies (set)"
              }
            ]
          }
        ],
        "specimen": [
          {
            "reference": "urn:uuid:4c296261-9e3b-41e9-a51b-9b46dbfe13f1"
          },
          {
            "reference": "urn:uuid:4b92e5bf-fb4d-48a4-a663-176c23757ba6"
          },
          {
            "reference": "urn:uuid:de759d16-66d0-44e3-a164-7630d0a5a227"
          },
          {
            "reference": "urn:uuid:de759d16-66d0-44e3-a164-7630d0a5a227"
          }
        ],
        "result": [
          {
            "reference": "urn:uuid:ce47e542-c818-4573-9946-f8080af6d854"
          },
          {
            "reference": "urn:uuid:fe80ff9e-6158-41b1-a0af-98d11d74a18d"
          },
          {
            "reference": "urn:uuid:3099908e-d357-4f0a-bf4f-8dd3fa1f4426"
          },
          {
            "reference": "urn:uuid:8ee480b8-8673-40ef-8798-278d9d57a43f"
          },
          {
            "reference": "urn:uuid:b6d43e20-a236-4aeb-930f-0b5c9e8dc101"
          },
          {
            "reference": "urn:uuid:499d955b-6e8d-44f2-99c0-8481e9caca95"
          },
          {
            "reference": "urn:uuid:373f91bf-1a52-483a-a16f-32a6c90a8770"
          },
          {
            "reference": "urn:uuid:7c11bb8a-bea0-48f0-91d2-602b319633cd"
          },
          {
            "reference": "urn:uuid:5f928105-e6d1-472a-a1d0-bb0f48c15750"
          },
          {
            "reference": "urn:uuid:4e03caf6-4c06-4525-b185-e50c660c4c74"
          },
          {
            "reference": "urn:uuid:2f89bada-2593-479b-98ad-7918ebbb07f9"
          },
          {
            "reference": "urn:uuid:2ee61dd5-b26d-42e2-9e13-7c9fb0d96074"
          },
          {
            "reference": "urn:uuid:758ed39a-ea77-4712-89f9-5cb1ab26c9da"
          },
          {
            "reference": "urn:uuid:5b24bf15-e01b-43bd-aadf-1395a2c08ffb"
          },
          {
            "reference": "urn:uuid:f201cc0f-b4cc-410a-a919-e39bdb478e93"
          },
          {
            "reference": "urn:uuid:ec683739-7a96-4535-baaa-00269120014a"
          },
          {
            "reference": "urn:uuid:e8237596-7c04-4e1c-9d7a-971cfea132fa"
          },
          {
            "reference": "urn:uuid:bb312f59-71cb-40f3-85ea-7991e39990a9"
          },
          {
            "reference": "urn:uuid:92abbe06-4091-4ef7-99d8-38917993407c"
          },
          {
            "reference": "urn:uuid:22568755-b296-4088-ad48-65ec2afb51df"
          },
          {
            "reference": "urn:uuid:9151d40b-7333-4561-a979-70ba3e2b9ce3"
          },
          {
            "reference": "urn:uuid:b69dd28b-3337-4f6d-b38f-c0ddd3131d69"
          },
          {
            "reference": "urn:uuid:35c73777-dfb4-4289-9bb5-22a41dd1525b"
          },
          {
            "reference": "urn:uuid:3fb104ac-d375-43af-8894-0bcf93585bcd"
          },
          {
            "reference": "urn:uuid:d35e3305-735a-4ed9-ad38-213e33e37c04"
          },
          {
            "reference": "urn:uuid:cc6cb265-a60f-4316-92e8-1273ee49fed2"
          },
          {
            "reference": "urn:uuid:06fe329f-17d0-41e3-a3b5-9522dc1610fd"
          },
          {
            "reference": "urn:uuid:0d0b4787-c69a-4f17-90df-875604ba4b6a"
          },
          {
            "reference": "urn:uuid:b22d8379-2fde-4244-a834-2e22eb8de731"
          },
          {
            "reference": "urn:uuid:62280559-f55a-45a0-9c66-16fc8fabf0d2"
          },
          {
            "reference": "urn:uuid:82d3312e-cdc6-4fb2-97b2-846b987af854"
          },
          {
            "reference": "urn:uuid:ebe3e756-dce1-49bb-8392-e33122e0fa97"
          },
          {
            "reference": "urn:uuid:a84f257a-62bd-44c1-ade1-ecc263bd0f48"
          },
          {
            "reference": "urn:uuid:bf8d5d69-daac-4074-9dec-19076877b97d"
          },
          {
            "reference": "urn:uuid:fb0170c3-0e3e-4fe1-a01e-2b86b866ea1a"
          },
          {
            "reference": "urn:uuid:8794fff2-6dde-4ecb-a153-bafc0e5a75b7"
          }
        ],
        "status": "registered",
        "code": {
          "coding": [
            {
              "code": "11502-2",
              "system": "http://loinc.org",
              "display": "Laboratory report"
            }
          ]
        },
        "subject": {
          "reference": "urn:uuid:a52effcc-8cd4-4f8c-8b8e-a89624d3751d",
          "display": "Marthe Gallet"
        }
      }
    },
    {
      "fullUrl": "urn:uuid:a52effcc-8cd4-4f8c-8b8e-a89624d3751d",
      "resource": {
        "resourceType": "Patient",
        "id": "a52effcc-8cd4-4f8c-8b8e-a89624d3751d",
        "meta": {
          "security": [
            {
              "system": "http://terminology.hl7.org/CodeSystem/v3-ActReason",
              "code": "HTEST"
            },
            {
              "system": "http://terminology.hl7.org/CodeSystem/v3-ActReason",
              "code": "TRAIN"
            }
          ],
          "tag": [
            {
              "system": "https://synderai.net/fhir/CodeSystem/tags",
              "code": "synthetic",
              "display": "SYNDERAI Synthetic data"
            }
          ],
          "profile": [
            "http://hl7.eu/fhir/base/StructureDefinition/patient-eu-core"
          ]
        },
        "identifier": [
          {
            "type": {
              "coding": [
                {
                  "code": "PT",
                  "system": "http://terminology.hl7.org/CodeSystem/v2-0203"
                }
              ]
            },
            "system": "http://ec.europa.eu/identifier/eci",
            "value": "9444-947487-6"
          },
          {
            "type": {
              "coding": [
                {
                  "code": "MR",
                  "system": "http://terminology.hl7.org/CodeSystem/v2-0203"
                }
              ]
            },
            "system": "http://local.setting.eu/identifier",
            "value": "854228d5-a476-2d9c-a1d7-c3202375a617"
          }
        ],
        "name": [
          {
            "family": "Gallet"
          },
          {
            "given": [
              "Marthe"
            ]
          },
          {
            "text": "Marthe Gallet"
          }
        ],
        "address": [
          {
            "line": [
              "3, rue Emmanuel Goncalves"
            ],
            "use": "home",
            "type": "physical",
            "postalCode": "49490",
            "city": "Briand",
            "country": "France"
          }
        ],
        "telecom": [
          {
            "system": "phone",
            "value": "+33 1 70 99 82 74"
          }
        ],
        "extension": [
          {
            "url": "http://hl7.org/fhir/StructureDefinition/patient-nationality",
            "valueCodeableConcept": {
              "coding": [
                {
                  "code": "FR",
                  "system": "http://hl7.org/fhir/ValueSet/country"
                }
              ]
            }
          }
        ],
        "text": {
          "status": "generated",
          "div": "<div xmlns=\"http://www.w3.org/1999/xhtml\"><table class=\"hl7__ips\"><tr><td>Marthe Gallet</td><td>female</td><td>29-Oct-1950</td></tr></table></div>"
        },
        "gender": "female",
        "birthDate": "1950-10-29"
      }
    },
    {
      "fullUrl": "urn:uuid:a4fbf965-9d4c-43da-b98e-e177cb181a67",
      "resource": {
        "resourceType": "ServiceRequest",
        "id": "a4fbf965-9d4c-43da-b98e-e177cb181a67",
        "meta": {
          "profile": [
            "http://hl7.eu/fhir/laboratory/StructureDefinition/ServiceRequest-eu-lab"
          ]
        },
        "identifier": [
          {
            "system": "http://example.org",
            "value": "1b8a0eac-89c2-4460-b49c-788932946283"
          }
        ],
        "specimen": [
          {
            "reference": "urn:uuid:4c296261-9e3b-41e9-a51b-9b46dbfe13f1"
          },
          {
            "reference": "urn:uuid:4b92e5bf-fb4d-48a4-a663-176c23757ba6"
          },
          {
            "reference": "urn:uuid:de759d16-66d0-44e3-a164-7630d0a5a227"
          }
        ],
        "reasonCode": [
          {
            "coding": [
              {
                "code": "431856006",
                "system": "http://snomed.info/sct",
                "display": "Chronic kidney disease stage 2"
              }
            ]
          },
          {
            "coding": [
              {
                "code": "90781000119102",
                "system": "http://snomed.info/sct",
                "display": "Microalbuminuria due to type 2 diabetes mellitus"
              }
            ]
          },
          {
            "coding": [
              {
                "code": "127013003",
                "system": "http://snomed.info/sct",
                "display": "Disorder of kidney due to diabetes mellitus"
              }
            ]
          },
          {
            "coding": [
              {
                "code": "431855005",
                "system": "http://snomed.info/sct",
                "display": "Chronic kidney disease stage 1"
              }
            ]
          },
          {
            "coding": [
              {
                "code": "55822004",
                "system": "http://snomed.info/sct",
                "display": "Hyperlipidemia"
              }
            ]
          },
          {
            "coding": [
              {
                "code": "59621000",
                "system": "http://snomed.info/sct",
                "display": "Essential hypertension"
              }
            ]
          }
        ],
        "status": "active",
        "intent": "order",
        "code": {
          "coding": [
            {
              "code": "108252007",
              "system": "http://snomed.info/sct",
              "display": "Laboratory procedure"
            }
          ]
        },
        "subject": {
          "reference": "urn:uuid:a52effcc-8cd4-4f8c-8b8e-a89624d3751d",
          "display": "Marthe Gallet"
        },
        "requester": {
          "reference": "urn:uuid:d622104a-6033-4fcf-a7cc-00c0519d7843"
        }
      }
    },
    {
      "fullUrl": "urn:uuid:d622104a-6033-4fcf-a7cc-00c0519d7843",
      "resource": {
        "resourceType": "PractitionerRole",
        "id": "d622104a-6033-4fcf-a7cc-00c0519d7843",
        "meta": {
          "profile": [
            "http://hl7.eu/fhir/base/StructureDefinition/practitionerRole-eu"
          ]
        },
        "text": {
          "status": "generated",
          "div": "<div xmlns=\"http://www.w3.org/1999/xhtml\">Provider Role Id: d622104a-6033-4fcf-a7cc-00c0519d7843</div>"
        },
        "organization": {
          "reference": "urn:uuid:6a3b4e3a-5e02-4714-9487-e05eab972b35"
        }
      }
    },
    {
      "fullUrl": "urn:uuid:6a3b4e3a-5e02-4714-9487-e05eab972b35",
      "resource": {
        "resourceType": "Organization",
        "id": "6a3b4e3a-5e02-4714-9487-e05eab972b35",
        "meta": {
          "profile": [
            "http://hl7.eu/fhir/base/StructureDefinition/organization-eu"
          ]
        },
        "identifier": [
          {
            "assigner": {
              "display": "HL7 Europe"
            },
            "system": "urn:oid:2.16.840.1.113883.2.51.999",
            "value": "7775ad1b-6583-4837-b62f-2afbc0b85137"
          }
        ],
        "address": [
          {
            "line": [
              "Rue Larrey nan"
            ],
            "city": "Angers",
            "postalCode": "49100",
            "country": "France"
          }
        ],
        "text": {
          "status": "generated",
          "div": "<div xmlns=\"http://www.w3.org/1999/xhtml\">Provider Organization: CHU d&#039;Angers</div>"
        },
        "name": "CHU d&#039;Angers"
      }
    },
    {
      "fullUrl": "urn:uuid:4c296261-9e3b-41e9-a51b-9b46dbfe13f1",
      "resource": {
        "resourceType": "Specimen",
        "id": "4c296261-9e3b-41e9-a51b-9b46dbfe13f1",
        "meta": {
          "profile": [
            "http://hl7.eu/fhir/laboratory/StructureDefinition/Specimen-eu-lab"
          ]
        },
        "collection": {
          "collectedDateTime": "2023-03-23"
        },
        "text": {
          "status": "generated",
          "div": "<div xmlns=\"http://www.w3.org/1999/xhtml\"><table class=\"hl7__eu__lab__report\"><tr><th>Specimen</th><th>Collection Date</th></tr><tr><td>Acellular blood (serum or plasma) specimen</td><td><span class=\"nb\">23-Mar-2023</span></td></tr></table></div>"
        },
        "type": {
          "coding": [
            {
              "code": "122592007",
              "system": "http://snomed.info/sct",
              "display": "Acellular blood (serum or plasma) specimen"
            }
          ]
        }
      }
    },
    {
      "fullUrl": "urn:uuid:4b92e5bf-fb4d-48a4-a663-176c23757ba6",
      "resource": {
        "resourceType": "Specimen",
        "id": "4b92e5bf-fb4d-48a4-a663-176c23757ba6",
        "meta": {
          "profile": [
            "http://hl7.eu/fhir/laboratory/StructureDefinition/Specimen-eu-lab"
          ]
        },
        "collection": {
          "collectedDateTime": "2023-03-23"
        },
        "text": {
          "status": "generated",
          "div": "<div xmlns=\"http://www.w3.org/1999/xhtml\"><table class=\"hl7__eu__lab__report\"><tr><th>Specimen</th><th>Collection Date</th></tr><tr><td>Urine specimen</td><td><span class=\"nb\">23-Mar-2023</span></td></tr></table></div>"
        },
        "type": {
          "coding": [
            {
              "code": "122575003",
              "system": "http://snomed.info/sct",
              "display": "Urine specimen"
            }
          ]
        }
      }
    },
    {
      "fullUrl": "urn:uuid:de759d16-66d0-44e3-a164-7630d0a5a227",
      "resource": {
        "resourceType": "Specimen",
        "id": "de759d16-66d0-44e3-a164-7630d0a5a227",
        "meta": {
          "profile": [
            "http://hl7.eu/fhir/laboratory/StructureDefinition/Specimen-eu-lab"
          ]
        },
        "collection": {
          "collectedDateTime": "2023-03-23"
        },
        "text": {
          "status": "generated",
          "div": "<div xmlns=\"http://www.w3.org/1999/xhtml\"><table class=\"hl7__eu__lab__report\"><tr><th>Specimen</th><th>Collection Date</th></tr><tr><td>Whole blood specimen (specimen)</td><td><span class=\"nb\">23-Mar-2023</span></td></tr></table></div>"
        },
        "type": {
          "coding": [
            {
              "code": "258580003",
              "system": "http://snomed.info/sct",
              "display": "Whole blood specimen (specimen)"
            }
          ]
        }
      }
    },
    {
      "fullUrl": "urn:uuid:de759d16-66d0-44e3-a164-7630d0a5a227",
      "resource": {
        "resourceType": "Specimen",
        "id": "de759d16-66d0-44e3-a164-7630d0a5a227",
        "meta": {
          "profile": [
            "http://hl7.eu/fhir/laboratory/StructureDefinition/Specimen-eu-lab"
          ]
        },
        "collection": {
          "collectedDateTime": "2023-03-23"
        },
        "text": {
          "status": "generated",
          "div": "<div xmlns=\"http://www.w3.org/1999/xhtml\"><table class=\"hl7__eu__lab__report\"><tr><th>Specimen</th><th>Collection Date</th></tr><tr><td>Whole blood specimen (specimen)</td><td><span class=\"nb\">23-Mar-2023</span></td></tr></table></div>"
        },
        "type": {
          "coding": [
            {
              "code": "258580003",
              "system": "http://snomed.info/sct",
              "display": "Whole blood specimen (specimen)"
            }
          ]
        }
      }
    },
    {
      "fullUrl": "urn:uuid:ce47e542-c818-4573-9946-f8080af6d854",
      "resource": {
        "resourceType": "Observation",
        "id": "ce47e542-c818-4573-9946-f8080af6d854",
        "meta": {
          "profile": [
            "http://hl7.eu/fhir/laboratory/StructureDefinition/Observation-resultslab-eu-lab"
          ]
        },
        "performer": [
          {
            "display": "The Central European Lab"
          }
        ],
        "category": [
          {
            "coding": [
              {
                "system": "http://terminology.hl7.org/CodeSystem/observation-category",
                "code": "laboratory"
              }
            ]
          }
        ],
        "code": {
          "coding": [
            {
              "code": "2345-7",
              "system": "http://loinc.org",
              "display": "Glucose [Mass/volume] in Serum or Plasma"
            }
          ],
          "text": "Glucose [Mass/volume] in Serum or Plasma"
        },
        "valueQuantity": {
          "system": "http://unitsofmeasure.org",
          "value": 98.4,
          "unit": "mg/dL",
          "code": "mg/dL"
        },
        "referenceRange": [
          {
            "low": {
              "value": 70,
              "code": "mg/dL",
              "system": "http://unitsofmeasure.org"
            }
          },
          {
            "high": {
              "value": 140,
              "code": "mg/dL",
              "system": "http://unitsofmeasure.org"
            }
          }
        ],
        "text": {
          "status": "generated",
          "div": "<div xmlns=\"http://www.w3.org/1999/xhtml\"><table class=\"hl7__eu__lab__report\"><tr><th>Test</th><th>23-Mar-2023</th><th>Reference&#xA0;Range</th><th>Unit</th></tr><tr><td>Glucose [Mass/volume] in Serum or Plasma</td><td>98.4</td><td>70 - 140</td><td></td><td>mg/dL</td></tr></table></div>"
        },
        "status": "final",
        "subject": {
          "reference": "urn:uuid:a52effcc-8cd4-4f8c-8b8e-a89624d3751d",
          "display": "Marthe Gallet"
        },
        "effectiveDateTime": "2023-03-23T19:05:43Z",
        "specimen": {
          "reference": "urn:uuid:4c296261-9e3b-41e9-a51b-9b46dbfe13f1"
        }
      }
    },
    {
      "fullUrl": "urn:uuid:fe80ff9e-6158-41b1-a0af-98d11d74a18d",
      "resource": {
        "resourceType": "Observation",
        "id": "fe80ff9e-6158-41b1-a0af-98d11d74a18d",
        "meta": {
          "profile": [
            "http://hl7.eu/fhir/laboratory/StructureDefinition/Observation-resultslab-eu-lab"
          ]
        },
        "performer": [
          {
            "display": "The Central European Lab"
          }
        ],
        "category": [
          {
            "coding": [
              {
                "system": "http://terminology.hl7.org/CodeSystem/observation-category",
                "code": "laboratory"
              }
            ]
          }
        ],
        "code": {
          "coding": [
            {
              "code": "3094-0",
              "system": "http://loinc.org",
              "display": "Urea nitrogen [Mass/volume] in Serum or Plasma"
            }
          ],
          "text": "Urea nitrogen [Mass/volume] in Serum or Plasma"
        },
        "valueQuantity": {
          "system": "http://unitsofmeasure.org",
          "value": 18.5,
          "unit": "mg/dL",
          "code": "mg/dL"
        },
        "referenceRange": [
          {
            "low": {
              "value": 7,
              "code": "mg/dL",
              "system": "http://unitsofmeasure.org"
            }
          },
          {
            "high": {
              "value": 50,
              "code": "mg/dL",
              "system": "http://unitsofmeasure.org"
            }
          }
        ],
        "text": {
          "status": "generated",
          "div": "<div xmlns=\"http://www.w3.org/1999/xhtml\"><table class=\"hl7__eu__lab__report\"><tr><th>Test</th><th>23-Mar-2023</th><th>Reference&#xA0;Range</th><th>Unit</th></tr><tr><td>Urea nitrogen [Mass/volume] in Serum or Plasma</td><td>18.5</td><td>7 - 50</td><td></td><td>mg/dL</td></tr></table></div>"
        },
        "status": "final",
        "subject": {
          "reference": "urn:uuid:a52effcc-8cd4-4f8c-8b8e-a89624d3751d",
          "display": "Marthe Gallet"
        },
        "effectiveDateTime": "2023-03-23T19:05:43Z",
        "specimen": {
          "reference": "urn:uuid:4c296261-9e3b-41e9-a51b-9b46dbfe13f1"
        }
      }
    },
    {
      "fullUrl": "urn:uuid:3099908e-d357-4f0a-bf4f-8dd3fa1f4426",
      "resource": {
        "resourceType": "Observation",
        "id": "3099908e-d357-4f0a-bf4f-8dd3fa1f4426",
        "meta": {
          "profile": [
            "http://hl7.eu/fhir/laboratory/StructureDefinition/Observation-resultslab-eu-lab"
          ]
        },
        "performer": [
          {
            "display": "The Central European Lab"
          }
        ],
        "category": [
          {
            "coding": [
              {
                "system": "http://terminology.hl7.org/CodeSystem/observation-category",
                "code": "laboratory"
              }
            ]
          }
        ],
        "code": {
          "coding": [
            {
              "code": "2160-0",
              "system": "http://loinc.org",
              "display": "Creatinine [Mass/volume] in Serum or Plasma"
            }
          ],
          "text": "Creatinine [Mass/volume] in Serum or Plasma"
        },
        "valueQuantity": {
          "system": "http://unitsofmeasure.org",
          "value": 1.8,
          "unit": "mg/dL",
          "code": "mg/dL"
        },
        "referenceRange": [
          {
            "low": {
              "value": 0.6,
              "code": "mg/dL",
              "system": "http://unitsofmeasure.org"
            }
          },
          {
            "high": {
              "value": 1.1,
              "code": "mg/dL",
              "system": "http://unitsofmeasure.org"
            }
          }
        ],
        "interpretation": [
          {
            "coding": [
              {
                "code": "H",
                "system": "http://terminology.hl7.org/CodeSystem/v3-ObservationInterpretation",
                "display": "High"
              }
            ]
          }
        ],
        "text": {
          "status": "generated",
          "div": "<div xmlns=\"http://www.w3.org/1999/xhtml\"><table class=\"hl7__eu__lab__report\"><tr><th>Test</th><th>23-Mar-2023</th><th>Reference&#xA0;Range</th><th>Unit</th></tr><tr><td>Creatinine [Mass/volume] in Serum or Plasma</td><td>1.8</td><td>0.6 - 1.1</td><td>H</td><td>mg/dL</td></tr></table></div>"
        },
        "status": "final",
        "subject": {
          "reference": "urn:uuid:a52effcc-8cd4-4f8c-8b8e-a89624d3751d",
          "display": "Marthe Gallet"
        },
        "effectiveDateTime": "2023-03-23T19:05:43Z",
        "specimen": {
          "reference": "urn:uuid:4c296261-9e3b-41e9-a51b-9b46dbfe13f1"
        }
      }
    },
    {
      "fullUrl": "urn:uuid:8ee480b8-8673-40ef-8798-278d9d57a43f",
      "resource": {
        "resourceType": "Observation",
        "id": "8ee480b8-8673-40ef-8798-278d9d57a43f",
        "meta": {
          "profile": [
            "http://hl7.eu/fhir/laboratory/StructureDefinition/Observation-resultslab-eu-lab"
          ]
        },
        "performer": [
          {
            "display": "The Central European Lab"
          }
        ],
        "category": [
          {
            "coding": [
              {
                "system": "http://terminology.hl7.org/CodeSystem/observation-category",
                "code": "laboratory"
              }
            ]
          }
        ],
        "code": {
          "coding": [
            {
              "code": "17861-6",
              "system": "http://loinc.org",
              "display": "Calcium [Mass/volume] in Serum or Plasma"
            }
          ],
          "text": "Calcium [Mass/volume] in Serum or Plasma"
        },
        "valueQuantity": {
          "system": "http://unitsofmeasure.org",
          "value": 9.1,
          "unit": "mg/dL",
          "code": "mg/dL"
        },
        "referenceRange": [
          {
            "low": {
              "value": 8.5,
              "code": "mg/dL",
              "system": "http://unitsofmeasure.org"
            }
          },
          {
            "high": {
              "value": 10.5,
              "code": "mg/dL",
              "system": "http://unitsofmeasure.org"
            }
          }
        ],
        "text": {
          "status": "generated",
          "div": "<div xmlns=\"http://www.w3.org/1999/xhtml\"><table class=\"hl7__eu__lab__report\"><tr><th>Test</th><th>23-Mar-2023</th><th>Reference&#xA0;Range</th><th>Unit</th></tr><tr><td>Calcium [Mass/volume] in Serum or Plasma</td><td>9.1</td><td>8.5 - 10.5</td><td></td><td>mg/dL</td></tr></table></div>"
        },
        "status": "final",
        "subject": {
          "reference": "urn:uuid:a52effcc-8cd4-4f8c-8b8e-a89624d3751d",
          "display": "Marthe Gallet"
        },
        "effectiveDateTime": "2023-03-23T19:05:43Z",
        "specimen": {
          "reference": "urn:uuid:4c296261-9e3b-41e9-a51b-9b46dbfe13f1"
        }
      }
    },
    {
      "fullUrl": "urn:uuid:b6d43e20-a236-4aeb-930f-0b5c9e8dc101",
      "resource": {
        "resourceType": "Observation",
        "id": "b6d43e20-a236-4aeb-930f-0b5c9e8dc101",
        "meta": {
          "profile": [
            "http://hl7.eu/fhir/laboratory/StructureDefinition/Observation-resultslab-eu-lab"
          ]
        },
        "performer": [
          {
            "display": "The Central European Lab"
          }
        ],
        "category": [
          {
            "coding": [
              {
                "system": "http://terminology.hl7.org/CodeSystem/observation-category",
                "code": "laboratory"
              }
            ]
          }
        ],
        "code": {
          "coding": [
            {
              "code": "2951-2",
              "system": "http://loinc.org",
              "display": "Sodium [Moles/volume] in Serum or Plasma"
            }
          ],
          "text": "Sodium [Moles/volume] in Serum or Plasma"
        },
        "valueQuantity": {
          "system": "http://unitsofmeasure.org",
          "value": 139.5,
          "unit": "mmol/L",
          "code": "mmol/L"
        },
        "referenceRange": [
          {
            "low": {
              "value": 135,
              "code": "mmol/L",
              "system": "http://unitsofmeasure.org"
            }
          },
          {
            "high": {
              "value": 145,
              "code": "mmol/L",
              "system": "http://unitsofmeasure.org"
            }
          }
        ],
        "text": {
          "status": "generated",
          "div": "<div xmlns=\"http://www.w3.org/1999/xhtml\"><table class=\"hl7__eu__lab__report\"><tr><th>Test</th><th>23-Mar-2023</th><th>Reference&#xA0;Range</th><th>Unit</th></tr><tr><td>Sodium [Moles/volume] in Serum or Plasma</td><td>139.5</td><td>135 - 145</td><td></td><td>mmol/L</td></tr></table></div>"
        },
        "status": "final",
        "subject": {
          "reference": "urn:uuid:a52effcc-8cd4-4f8c-8b8e-a89624d3751d",
          "display": "Marthe Gallet"
        },
        "effectiveDateTime": "2023-03-23T19:05:43Z",
        "specimen": {
          "reference": "urn:uuid:4c296261-9e3b-41e9-a51b-9b46dbfe13f1"
        }
      }
    },
    {
      "fullUrl": "urn:uuid:499d955b-6e8d-44f2-99c0-8481e9caca95",
      "resource": {
        "resourceType": "Observation",
        "id": "499d955b-6e8d-44f2-99c0-8481e9caca95",
        "meta": {
          "profile": [
            "http://hl7.eu/fhir/laboratory/StructureDefinition/Observation-resultslab-eu-lab"
          ]
        },
        "performer": [
          {
            "display": "The Central European Lab"
          }
        ],
        "category": [
          {
            "coding": [
              {
                "system": "http://terminology.hl7.org/CodeSystem/observation-category",
                "code": "laboratory"
              }
            ]
          }
        ],
        "code": {
          "coding": [
            {
              "code": "2823-3",
              "system": "http://loinc.org",
              "display": "Potassium [Moles/volume] in Serum or Plasma"
            }
          ],
          "text": "Potassium [Moles/volume] in Serum or Plasma"
        },
        "valueQuantity": {
          "system": "http://unitsofmeasure.org",
          "value": 5.1,
          "unit": "mmol/L",
          "code": "mmol/L"
        },
        "referenceRange": [
          {
            "low": {
              "value": 3.5,
              "code": "mmol/L",
              "system": "http://unitsofmeasure.org"
            }
          },
          {
            "high": {
              "value": 5.1,
              "code": "mmol/L",
              "system": "http://unitsofmeasure.org"
            }
          }
        ],
        "text": {
          "status": "generated",
          "div": "<div xmlns=\"http://www.w3.org/1999/xhtml\"><table class=\"hl7__eu__lab__report\"><tr><th>Test</th><th>23-Mar-2023</th><th>Reference&#xA0;Range</th><th>Unit</th></tr><tr><td>Potassium [Moles/volume] in Serum or Plasma</td><td>5.1</td><td>3.5 - 5.1</td><td></td><td>mmol/L</td></tr></table></div>"
        },
        "status": "final",
        "subject": {
          "reference": "urn:uuid:a52effcc-8cd4-4f8c-8b8e-a89624d3751d",
          "display": "Marthe Gallet"
        },
        "effectiveDateTime": "2023-03-23T19:05:43Z",
        "specimen": {
          "reference": "urn:uuid:4c296261-9e3b-41e9-a51b-9b46dbfe13f1"
        }
      }
    },
    {
      "fullUrl": "urn:uuid:373f91bf-1a52-483a-a16f-32a6c90a8770",
      "resource": {
        "resourceType": "Observation",
        "id": "373f91bf-1a52-483a-a16f-32a6c90a8770",
        "meta": {
          "profile": [
            "http://hl7.eu/fhir/laboratory/StructureDefinition/Observation-resultslab-eu-lab"
          ]
        },
        "performer": [
          {
            "display": "The Central European Lab"
          }
        ],
        "category": [
          {
            "coding": [
              {
                "system": "http://terminology.hl7.org/CodeSystem/observation-category",
                "code": "laboratory"
              }
            ]
          }
        ],
        "code": {
          "coding": [
            {
              "code": "2075-0",
              "system": "http://loinc.org",
              "display": "Chloride [Moles/volume] in Serum or Plasma"
            }
          ],
          "text": "Chloride [Moles/volume] in Serum or Plasma"
        },
        "valueQuantity": {
          "system": "http://unitsofmeasure.org",
          "value": 109.9,
          "unit": "mmol/L",
          "code": "mmol/L"
        },
        "referenceRange": [
          {
            "low": {
              "value": 98,
              "code": "mmol/L",
              "system": "http://unitsofmeasure.org"
            }
          },
          {
            "high": {
              "value": 108,
              "code": "mmol/L",
              "system": "http://unitsofmeasure.org"
            }
          }
        ],
        "interpretation": [
          {
            "coding": [
              {
                "code": "H",
                "system": "http://terminology.hl7.org/CodeSystem/v3-ObservationInterpretation",
                "display": "High"
              }
            ]
          }
        ],
        "text": {
          "status": "generated",
          "div": "<div xmlns=\"http://www.w3.org/1999/xhtml\"><table class=\"hl7__eu__lab__report\"><tr><th>Test</th><th>23-Mar-2023</th><th>Reference&#xA0;Range</th><th>Unit</th></tr><tr><td>Chloride [Moles/volume] in Serum or Plasma</td><td>109.9</td><td>98 - 108</td><td>H</td><td>mmol/L</td></tr></table></div>"
        },
        "status": "final",
        "subject": {
          "reference": "urn:uuid:a52effcc-8cd4-4f8c-8b8e-a89624d3751d",
          "display": "Marthe Gallet"
        },
        "effectiveDateTime": "2023-03-23T19:05:43Z",
        "specimen": {
          "reference": "urn:uuid:4c296261-9e3b-41e9-a51b-9b46dbfe13f1"
        }
      }
    },
    {
      "fullUrl": "urn:uuid:7c11bb8a-bea0-48f0-91d2-602b319633cd",
      "resource": {
        "resourceType": "Observation",
        "id": "7c11bb8a-bea0-48f0-91d2-602b319633cd",
        "meta": {
          "profile": [
            "http://hl7.eu/fhir/laboratory/StructureDefinition/Observation-resultslab-eu-lab"
          ]
        },
        "performer": [
          {
            "display": "The Central European Lab"
          }
        ],
        "category": [
          {
            "coding": [
              {
                "system": "http://terminology.hl7.org/CodeSystem/observation-category",
                "code": "laboratory"
              }
            ]
          }
        ],
        "code": {
          "coding": [
            {
              "code": "2028-9",
              "system": "http://loinc.org",
              "display": "Carbon dioxide, total [Moles/volume] in Serum or Plasma"
            }
          ],
          "text": "Carbon dioxide, total [Moles/volume] in Serum or Plasma"
        },
        "valueQuantity": {
          "system": "http://unitsofmeasure.org",
          "value": 25,
          "unit": "mmol/L",
          "code": "mmol/L"
        },
        "referenceRange": [
          {
            "low": {
              "value": 22,
              "code": "mmol/L",
              "system": "http://unitsofmeasure.org"
            }
          },
          {
            "high": {
              "value": 32,
              "code": "mmol/L",
              "system": "http://unitsofmeasure.org"
            }
          }
        ],
        "text": {
          "status": "generated",
          "div": "<div xmlns=\"http://www.w3.org/1999/xhtml\"><table class=\"hl7__eu__lab__report\"><tr><th>Test</th><th>23-Mar-2023</th><th>Reference&#xA0;Range</th><th>Unit</th></tr><tr><td>Carbon dioxide, total [Moles/volume] in Serum or Plasma</td><td>25.0</td><td>22 - 32</td><td></td><td>mmol/L</td></tr></table></div>"
        },
        "status": "final",
        "subject": {
          "reference": "urn:uuid:a52effcc-8cd4-4f8c-8b8e-a89624d3751d",
          "display": "Marthe Gallet"
        },
        "effectiveDateTime": "2023-03-23T19:05:43Z",
        "specimen": {
          "reference": "urn:uuid:4c296261-9e3b-41e9-a51b-9b46dbfe13f1"
        }
      }
    },
    {
      "fullUrl": "urn:uuid:5f928105-e6d1-472a-a1d0-bb0f48c15750",
      "resource": {
        "resourceType": "Observation",
        "id": "5f928105-e6d1-472a-a1d0-bb0f48c15750",
        "meta": {
          "profile": [
            "http://hl7.eu/fhir/laboratory/StructureDefinition/Observation-resultslab-eu-lab"
          ]
        },
        "performer": [
          {
            "display": "The Central European Lab"
          }
        ],
        "category": [
          {
            "coding": [
              {
                "system": "http://terminology.hl7.org/CodeSystem/observation-category",
                "code": "laboratory"
              }
            ]
          }
        ],
        "code": {
          "coding": [
            {
              "code": "5767-9",
              "system": "http://loinc.org",
              "display": "Appearance of Urine"
            }
          ],
          "text": "Appearance of Urine"
        },
        "text": {
          "status": "generated",
          "div": "<div xmlns=\"http://www.w3.org/1999/xhtml\"><table class=\"hl7__eu__lab__report\"><tr><th>Test</th><th>23-Mar-2023</th><th>Reference&#xA0;Range</th><th>Unit</th></tr><tr><td>Appearance of Urine</td></tr></table></div>"
        },
        "status": "final",
        "subject": {
          "reference": "urn:uuid:a52effcc-8cd4-4f8c-8b8e-a89624d3751d",
          "display": "Marthe Gallet"
        },
        "effectiveDateTime": "2023-03-23T19:05:43Z",
        "specimen": {
          "reference": "urn:uuid:4b92e5bf-fb4d-48a4-a663-176c23757ba6"
        }
      }
    },
    {
      "fullUrl": "urn:uuid:4e03caf6-4c06-4525-b185-e50c660c4c74",
      "resource": {
        "resourceType": "Observation",
        "id": "4e03caf6-4c06-4525-b185-e50c660c4c74",
        "meta": {
          "profile": [
            "http://hl7.eu/fhir/laboratory/StructureDefinition/Observation-resultslab-eu-lab"
          ]
        },
        "performer": [
          {
            "display": "The Central European Lab"
          }
        ],
        "category": [
          {
            "coding": [
              {
                "system": "http://terminology.hl7.org/CodeSystem/observation-category",
                "code": "laboratory"
              }
            ]
          }
        ],
        "code": {
          "coding": [
            {
              "code": "34533-0",
              "system": "http://loinc.org",
              "display": "Odor of Urine"
            }
          ],
          "text": "Odor of Urine"
        },
        "text": {
          "status": "generated",
          "div": "<div xmlns=\"http://www.w3.org/1999/xhtml\"><table class=\"hl7__eu__lab__report\"><tr><th>Test</th><th>23-Mar-2023</th><th>Reference&#xA0;Range</th><th>Unit</th></tr><tr><td>Odor of Urine</td></tr></table></div>"
        },
        "status": "final",
        "subject": {
          "reference": "urn:uuid:a52effcc-8cd4-4f8c-8b8e-a89624d3751d",
          "display": "Marthe Gallet"
        },
        "effectiveDateTime": "2023-03-23T19:05:43Z",
        "specimen": {
          "reference": "urn:uuid:4b92e5bf-fb4d-48a4-a663-176c23757ba6"
        }
      }
    },
    {
      "fullUrl": "urn:uuid:2f89bada-2593-479b-98ad-7918ebbb07f9",
      "resource": {
        "resourceType": "Observation",
        "id": "2f89bada-2593-479b-98ad-7918ebbb07f9",
        "meta": {
          "profile": [
            "http://hl7.eu/fhir/laboratory/StructureDefinition/Observation-resultslab-eu-lab"
          ]
        },
        "performer": [
          {
            "display": "The Central European Lab"
          }
        ],
        "category": [
          {
            "coding": [
              {
                "system": "http://terminology.hl7.org/CodeSystem/observation-category",
                "code": "laboratory"
              }
            ]
          }
        ],
        "code": {
          "coding": [
            {
              "code": "32167-9",
              "system": "http://loinc.org",
              "display": "Clarity of Urine"
            }
          ],
          "text": "Clarity of Urine"
        },
        "text": {
          "status": "generated",
          "div": "<div xmlns=\"http://www.w3.org/1999/xhtml\"><table class=\"hl7__eu__lab__report\"><tr><th>Test</th><th>23-Mar-2023</th><th>Reference&#xA0;Range</th><th>Unit</th></tr><tr><td>Clarity of Urine</td></tr></table></div>"
        },
        "status": "final",
        "subject": {
          "reference": "urn:uuid:a52effcc-8cd4-4f8c-8b8e-a89624d3751d",
          "display": "Marthe Gallet"
        },
        "effectiveDateTime": "2023-03-23T19:05:43Z",
        "specimen": {
          "reference": "urn:uuid:4b92e5bf-fb4d-48a4-a663-176c23757ba6"
        }
      }
    },
    {
      "fullUrl": "urn:uuid:2ee61dd5-b26d-42e2-9e13-7c9fb0d96074",
      "resource": {
        "resourceType": "Observation",
        "id": "2ee61dd5-b26d-42e2-9e13-7c9fb0d96074",
        "meta": {
          "profile": [
            "http://hl7.eu/fhir/laboratory/StructureDefinition/Observation-resultslab-eu-lab"
          ]
        },
        "performer": [
          {
            "display": "The Central European Lab"
          }
        ],
        "category": [
          {
            "coding": [
              {
                "system": "http://terminology.hl7.org/CodeSystem/observation-category",
                "code": "laboratory"
              }
            ]
          }
        ],
        "code": {
          "coding": [
            {
              "code": "5778-6",
              "system": "http://loinc.org",
              "display": "Color of Urine"
            }
          ],
          "text": "Color of Urine"
        },
        "text": {
          "status": "generated",
          "div": "<div xmlns=\"http://www.w3.org/1999/xhtml\"><table class=\"hl7__eu__lab__report\"><tr><th>Test</th><th>23-Mar-2023</th><th>Reference&#xA0;Range</th><th>Unit</th></tr><tr><td>Color of Urine</td></tr></table></div>"
        },
        "status": "final",
        "subject": {
          "reference": "urn:uuid:a52effcc-8cd4-4f8c-8b8e-a89624d3751d",
          "display": "Marthe Gallet"
        },
        "effectiveDateTime": "2023-03-23T19:05:43Z",
        "specimen": {
          "reference": "urn:uuid:4b92e5bf-fb4d-48a4-a663-176c23757ba6"
        }
      }
    },
    {
      "fullUrl": "urn:uuid:758ed39a-ea77-4712-89f9-5cb1ab26c9da",
      "resource": {
        "resourceType": "Observation",
        "id": "758ed39a-ea77-4712-89f9-5cb1ab26c9da",
        "meta": {
          "profile": [
            "http://hl7.eu/fhir/laboratory/StructureDefinition/Observation-resultslab-eu-lab"
          ]
        },
        "performer": [
          {
            "display": "The Central European Lab"
          }
        ],
        "category": [
          {
            "coding": [
              {
                "system": "http://terminology.hl7.org/CodeSystem/observation-category",
                "code": "laboratory"
              }
            ]
          }
        ],
        "code": {
          "coding": [
            {
              "code": "5792-7",
              "system": "http://loinc.org",
              "display": "Glucose [Mass/volume] in Urine by Test strip"
            }
          ],
          "text": "Glucose [Mass/volume] in Urine by Test strip"
        },
        "valueQuantity": {
          "system": "http://unitsofmeasure.org",
          "value": 1.7,
          "unit": "mg/dL",
          "code": "mg/dL"
        },
        "referenceRange": [
          {
            "low": {
              "value": 0.8,
              "code": "mg/dL",
              "system": "http://unitsofmeasure.org"
            }
          },
          {
            "high": {
              "value": 0,
              "code": "mg/dL",
              "system": "http://unitsofmeasure.org"
            }
          }
        ],
        "interpretation": [
          {
            "coding": [
              {
                "code": "H",
                "system": "http://terminology.hl7.org/CodeSystem/v3-ObservationInterpretation",
                "display": "High"
              }
            ]
          }
        ],
        "text": {
          "status": "generated",
          "div": "<div xmlns=\"http://www.w3.org/1999/xhtml\"><table class=\"hl7__eu__lab__report\"><tr><th>Test</th><th>23-Mar-2023</th><th>Reference&#xA0;Range</th><th>Unit</th></tr><tr><td>Glucose [Mass/volume] in Urine by Test strip</td><td>1.7</td><td>0.8 - 0</td><td>H</td><td>mg/dL</td></tr></table></div>"
        },
        "status": "final",
        "subject": {
          "reference": "urn:uuid:a52effcc-8cd4-4f8c-8b8e-a89624d3751d",
          "display": "Marthe Gallet"
        },
        "effectiveDateTime": "2023-03-23T19:05:43Z",
        "specimen": {
          "reference": "urn:uuid:4b92e5bf-fb4d-48a4-a663-176c23757ba6"
        }
      }
    },
    {
      "fullUrl": "urn:uuid:5b24bf15-e01b-43bd-aadf-1395a2c08ffb",
      "resource": {
        "resourceType": "Observation",
        "id": "5b24bf15-e01b-43bd-aadf-1395a2c08ffb",
        "meta": {
          "profile": [
            "http://hl7.eu/fhir/laboratory/StructureDefinition/Observation-resultslab-eu-lab"
          ]
        },
        "performer": [
          {
            "display": "The Central European Lab"
          }
        ],
        "category": [
          {
            "coding": [
              {
                "system": "http://terminology.hl7.org/CodeSystem/observation-category",
                "code": "laboratory"
              }
            ]
          }
        ],
        "code": {
          "coding": [
            {
              "code": "25428-4",
              "system": "http://loinc.org",
              "display": "Glucose [Presence] in Urine by Test strip"
            }
          ],
          "text": "Glucose [Presence] in Urine by Test strip"
        },
        "text": {
          "status": "generated",
          "div": "<div xmlns=\"http://www.w3.org/1999/xhtml\"><table class=\"hl7__eu__lab__report\"><tr><th>Test</th><th>23-Mar-2023</th><th>Reference&#xA0;Range</th><th>Unit</th></tr><tr><td>Glucose [Presence] in Urine by Test strip</td></tr></table></div>"
        },
        "status": "final",
        "subject": {
          "reference": "urn:uuid:a52effcc-8cd4-4f8c-8b8e-a89624d3751d",
          "display": "Marthe Gallet"
        },
        "effectiveDateTime": "2023-03-23T19:05:43Z",
        "specimen": {
          "reference": "urn:uuid:4b92e5bf-fb4d-48a4-a663-176c23757ba6"
        }
      }
    },
    {
      "fullUrl": "urn:uuid:f201cc0f-b4cc-410a-a919-e39bdb478e93",
      "resource": {
        "resourceType": "Observation",
        "id": "f201cc0f-b4cc-410a-a919-e39bdb478e93",
        "meta": {
          "profile": [
            "http://hl7.eu/fhir/laboratory/StructureDefinition/Observation-resultslab-eu-lab"
          ]
        },
        "performer": [
          {
            "display": "The Central European Lab"
          }
        ],
        "category": [
          {
            "coding": [
              {
                "system": "http://terminology.hl7.org/CodeSystem/observation-category",
                "code": "laboratory"
              }
            ]
          }
        ],
        "code": {
          "coding": [
            {
              "code": "20505-4",
              "system": "http://loinc.org",
              "display": "Bilirubin.total [Mass/volume] in Urine by Test strip"
            }
          ],
          "text": "Bilirubin.total [Mass/volume] in Urine by Test strip"
        },
        "valueQuantity": {
          "system": "http://unitsofmeasure.org",
          "value": 1.2,
          "unit": "mg/dL",
          "code": "mg/dL"
        },
        "referenceRange": [
          {
            "low": {
              "value": 0,
              "code": "mg/dL",
              "system": "http://unitsofmeasure.org"
            }
          },
          {
            "high": {
              "value": 1,
              "code": "mg/dL",
              "system": "http://unitsofmeasure.org"
            }
          }
        ],
        "interpretation": [
          {
            "coding": [
              {
                "code": "H",
                "system": "http://terminology.hl7.org/CodeSystem/v3-ObservationInterpretation",
                "display": "High"
              }
            ]
          }
        ],
        "text": {
          "status": "generated",
          "div": "<div xmlns=\"http://www.w3.org/1999/xhtml\"><table class=\"hl7__eu__lab__report\"><tr><th>Test</th><th>23-Mar-2023</th><th>Reference&#xA0;Range</th><th>Unit</th></tr><tr><td>Bilirubin.total [Mass/volume] in Urine by Test strip</td><td>1.2</td><td>0 - 1</td><td>H</td><td>mg/dL</td></tr></table></div>"
        },
        "status": "final",
        "subject": {
          "reference": "urn:uuid:a52effcc-8cd4-4f8c-8b8e-a89624d3751d",
          "display": "Marthe Gallet"
        },
        "effectiveDateTime": "2023-03-23T19:05:43Z",
        "specimen": {
          "reference": "urn:uuid:4b92e5bf-fb4d-48a4-a663-176c23757ba6"
        }
      }
    },
    {
      "fullUrl": "urn:uuid:ec683739-7a96-4535-baaa-00269120014a",
      "resource": {
        "resourceType": "Observation",
        "id": "ec683739-7a96-4535-baaa-00269120014a",
        "meta": {
          "profile": [
            "http://hl7.eu/fhir/laboratory/StructureDefinition/Observation-resultslab-eu-lab"
          ]
        },
        "performer": [
          {
            "display": "The Central European Lab"
          }
        ],
        "category": [
          {
            "coding": [
              {
                "system": "http://terminology.hl7.org/CodeSystem/observation-category",
                "code": "laboratory"
              }
            ]
          }
        ],
        "code": {
          "coding": [
            {
              "code": "5770-3",
              "system": "http://loinc.org",
              "display": "Bilirubin.total [Presence] in Urine by Test strip"
            }
          ],
          "text": "Bilirubin.total [Presence] in Urine by Test strip"
        },
        "text": {
          "status": "generated",
          "div": "<div xmlns=\"http://www.w3.org/1999/xhtml\"><table class=\"hl7__eu__lab__report\"><tr><th>Test</th><th>23-Mar-2023</th><th>Reference&#xA0;Range</th><th>Unit</th></tr><tr><td>Bilirubin.total [Presence] in Urine by Test strip</td></tr></table></div>"
        },
        "status": "final",
        "subject": {
          "reference": "urn:uuid:a52effcc-8cd4-4f8c-8b8e-a89624d3751d",
          "display": "Marthe Gallet"
        },
        "effectiveDateTime": "2023-03-23T19:05:43Z",
        "specimen": {
          "reference": "urn:uuid:4b92e5bf-fb4d-48a4-a663-176c23757ba6"
        }
      }
    },
    {
      "fullUrl": "urn:uuid:e8237596-7c04-4e1c-9d7a-971cfea132fa",
      "resource": {
        "resourceType": "Observation",
        "id": "e8237596-7c04-4e1c-9d7a-971cfea132fa",
        "meta": {
          "profile": [
            "http://hl7.eu/fhir/laboratory/StructureDefinition/Observation-resultslab-eu-lab"
          ]
        },
        "performer": [
          {
            "display": "The Central European Lab"
          }
        ],
        "category": [
          {
            "coding": [
              {
                "system": "http://terminology.hl7.org/CodeSystem/observation-category",
                "code": "laboratory"
              }
            ]
          }
        ],
        "code": {
          "coding": [
            {
              "code": "5797-6",
              "system": "http://loinc.org",
              "display": "Ketones [Mass/volume] in Urine by Test strip"
            }
          ],
          "text": "Ketones [Mass/volume] in Urine by Test strip"
        },
        "valueQuantity": {
          "system": "http://unitsofmeasure.org",
          "value": 1.2,
          "unit": "mg/dL",
          "code": "mg/dL"
        },
        "referenceRange": [
          {
            "low": {
              "value": 0,
              "code": "mg/dL",
              "system": "http://unitsofmeasure.org"
            }
          },
          {
            "high": {
              "value": 20,
              "code": "mg/dL",
              "system": "http://unitsofmeasure.org"
            }
          }
        ],
        "text": {
          "status": "generated",
          "div": "<div xmlns=\"http://www.w3.org/1999/xhtml\"><table class=\"hl7__eu__lab__report\"><tr><th>Test</th><th>23-Mar-2023</th><th>Reference&#xA0;Range</th><th>Unit</th></tr><tr><td>Ketones [Mass/volume] in Urine by Test strip</td><td>1.2</td><td>0 - 20</td><td></td><td>mg/dL</td></tr></table></div>"
        },
        "status": "final",
        "subject": {
          "reference": "urn:uuid:a52effcc-8cd4-4f8c-8b8e-a89624d3751d",
          "display": "Marthe Gallet"
        },
        "effectiveDateTime": "2023-03-23T19:05:43Z",
        "specimen": {
          "reference": "urn:uuid:4b92e5bf-fb4d-48a4-a663-176c23757ba6"
        }
      }
    },
    {
      "fullUrl": "urn:uuid:bb312f59-71cb-40f3-85ea-7991e39990a9",
      "resource": {
        "resourceType": "Observation",
        "id": "bb312f59-71cb-40f3-85ea-7991e39990a9",
        "meta": {
          "profile": [
            "http://hl7.eu/fhir/laboratory/StructureDefinition/Observation-resultslab-eu-lab"
          ]
        },
        "performer": [
          {
            "display": "The Central European Lab"
          }
        ],
        "category": [
          {
            "coding": [
              {
                "system": "http://terminology.hl7.org/CodeSystem/observation-category",
                "code": "laboratory"
              }
            ]
          }
        ],
        "code": {
          "coding": [
            {
              "code": "2514-8",
              "system": "http://loinc.org",
              "display": "Ketones [Presence] in Urine by Test strip"
            }
          ],
          "text": "Ketones [Presence] in Urine by Test strip"
        },
        "text": {
          "status": "generated",
          "div": "<div xmlns=\"http://www.w3.org/1999/xhtml\"><table class=\"hl7__eu__lab__report\"><tr><th>Test</th><th>23-Mar-2023</th><th>Reference&#xA0;Range</th><th>Unit</th></tr><tr><td>Ketones [Presence] in Urine by Test strip</td></tr></table></div>"
        },
        "status": "final",
        "subject": {
          "reference": "urn:uuid:a52effcc-8cd4-4f8c-8b8e-a89624d3751d",
          "display": "Marthe Gallet"
        },
        "effectiveDateTime": "2023-03-23T19:05:43Z",
        "specimen": {
          "reference": "urn:uuid:4b92e5bf-fb4d-48a4-a663-176c23757ba6"
        }
      }
    },
    {
      "fullUrl": "urn:uuid:92abbe06-4091-4ef7-99d8-38917993407c",
      "resource": {
        "resourceType": "Observation",
        "id": "92abbe06-4091-4ef7-99d8-38917993407c",
        "meta": {
          "profile": [
            "http://hl7.eu/fhir/laboratory/StructureDefinition/Observation-resultslab-eu-lab"
          ]
        },
        "performer": [
          {
            "display": "The Central European Lab"
          }
        ],
        "category": [
          {
            "coding": [
              {
                "system": "http://terminology.hl7.org/CodeSystem/observation-category",
                "code": "laboratory"
              }
            ]
          }
        ],
        "code": {
          "coding": [
            {
              "code": "5811-5",
              "system": "http://loinc.org",
              "display": "Specific gravity of Urine by Test strip"
            }
          ],
          "text": "Specific gravity of Urine by Test strip"
        },
        "valueQuantity": {
          "system": "http://unitsofmeasure.org",
          "value": 1,
          "unit": "{nominal}",
          "code": "{nominal}"
        },
        "referenceRange": [
          {
            "low": {
              "value": 1.01,
              "code": "g/mL",
              "system": "http://unitsofmeasure.org"
            }
          },
          {
            "high": {
              "value": 1.03,
              "code": "g/mL",
              "system": "http://unitsofmeasure.org"
            }
          }
        ],
        "interpretation": [
          {
            "coding": [
              {
                "code": "L",
                "system": "http://terminology.hl7.org/CodeSystem/v3-ObservationInterpretation",
                "display": "Low"
              }
            ]
          }
        ],
        "text": {
          "status": "generated",
          "div": "<div xmlns=\"http://www.w3.org/1999/xhtml\"><table class=\"hl7__eu__lab__report\"><tr><th>Test</th><th>23-Mar-2023</th><th>Reference&#xA0;Range</th><th>Unit</th></tr><tr><td>Specific gravity of Urine by Test strip</td><td>1.0</td><td>1.01 - 1.03</td><td>L</td><td>{nominal}</td></tr></table></div>"
        },
        "status": "final",
        "subject": {
          "reference": "urn:uuid:a52effcc-8cd4-4f8c-8b8e-a89624d3751d",
          "display": "Marthe Gallet"
        },
        "effectiveDateTime": "2023-03-23T19:05:43Z",
        "specimen": {
          "reference": "urn:uuid:4b92e5bf-fb4d-48a4-a663-176c23757ba6"
        }
      }
    },
    {
      "fullUrl": "urn:uuid:22568755-b296-4088-ad48-65ec2afb51df",
      "resource": {
        "resourceType": "Observation",
        "id": "22568755-b296-4088-ad48-65ec2afb51df",
        "meta": {
          "profile": [
            "http://hl7.eu/fhir/laboratory/StructureDefinition/Observation-resultslab-eu-lab"
          ]
        },
        "performer": [
          {
            "display": "The Central European Lab"
          }
        ],
        "category": [
          {
            "coding": [
              {
                "system": "http://terminology.hl7.org/CodeSystem/observation-category",
                "code": "laboratory"
              }
            ]
          }
        ],
        "code": {
          "coding": [
            {
              "code": "5803-2",
              "system": "http://loinc.org",
              "display": "pH of Urine by Test strip"
            }
          ],
          "text": "pH of Urine by Test strip"
        },
        "valueQuantity": {
          "system": "http://unitsofmeasure.org",
          "value": 5.9,
          "unit": "pH",
          "code": "pH"
        },
        "referenceRange": [
          {
            "low": {
              "value": 4.6,
              "code": "pH",
              "system": "http://unitsofmeasure.org"
            }
          },
          {
            "high": {
              "value": 7,
              "code": "pH",
              "system": "http://unitsofmeasure.org"
            }
          }
        ],
        "text": {
          "status": "generated",
          "div": "<div xmlns=\"http://www.w3.org/1999/xhtml\"><table class=\"hl7__eu__lab__report\"><tr><th>Test</th><th>23-Mar-2023</th><th>Reference&#xA0;Range</th><th>Unit</th></tr><tr><td>pH of Urine by Test strip</td><td>5.9</td><td>4.6 - 7</td><td></td><td>pH</td></tr></table></div>"
        },
        "status": "final",
        "subject": {
          "reference": "urn:uuid:a52effcc-8cd4-4f8c-8b8e-a89624d3751d",
          "display": "Marthe Gallet"
        },
        "effectiveDateTime": "2023-03-23T19:05:43Z",
        "specimen": {
          "reference": "urn:uuid:4b92e5bf-fb4d-48a4-a663-176c23757ba6"
        }
      }
    },
    {
      "fullUrl": "urn:uuid:9151d40b-7333-4561-a979-70ba3e2b9ce3",
      "resource": {
        "resourceType": "Observation",
        "id": "9151d40b-7333-4561-a979-70ba3e2b9ce3",
        "meta": {
          "profile": [
            "http://hl7.eu/fhir/laboratory/StructureDefinition/Observation-resultslab-eu-lab"
          ]
        },
        "performer": [
          {
            "display": "The Central European Lab"
          }
        ],
        "category": [
          {
            "coding": [
              {
                "system": "http://terminology.hl7.org/CodeSystem/observation-category",
                "code": "laboratory"
              }
            ]
          }
        ],
        "code": {
          "coding": [
            {
              "code": "5804-0",
              "system": "http://loinc.org",
              "display": "Protein [Mass/volume] in Urine by Test strip"
            }
          ],
          "text": "Protein [Mass/volume] in Urine by Test strip"
        },
        "valueQuantity": {
          "system": "http://unitsofmeasure.org",
          "value": 242.6,
          "unit": "mg/dL",
          "code": "mg/dL"
        },
        "referenceRange": [
          {
            "low": {
              "value": 0,
              "code": "mg/dL",
              "system": "http://unitsofmeasure.org"
            }
          },
          {
            "high": {
              "value": 15,
              "code": "mg/dL",
              "system": "http://unitsofmeasure.org"
            }
          }
        ],
        "interpretation": [
          {
            "coding": [
              {
                "code": "H",
                "system": "http://terminology.hl7.org/CodeSystem/v3-ObservationInterpretation",
                "display": "High"
              }
            ]
          }
        ],
        "text": {
          "status": "generated",
          "div": "<div xmlns=\"http://www.w3.org/1999/xhtml\"><table class=\"hl7__eu__lab__report\"><tr><th>Test</th><th>23-Mar-2023</th><th>Reference&#xA0;Range</th><th>Unit</th></tr><tr><td>Protein [Mass/volume] in Urine by Test strip</td><td>242.6</td><td>0 - 15</td><td>H</td><td>mg/dL</td></tr></table></div>"
        },
        "status": "final",
        "subject": {
          "reference": "urn:uuid:a52effcc-8cd4-4f8c-8b8e-a89624d3751d",
          "display": "Marthe Gallet"
        },
        "effectiveDateTime": "2023-03-23T19:05:43Z",
        "specimen": {
          "reference": "urn:uuid:4b92e5bf-fb4d-48a4-a663-176c23757ba6"
        }
      }
    },
    {
      "fullUrl": "urn:uuid:b69dd28b-3337-4f6d-b38f-c0ddd3131d69",
      "resource": {
        "resourceType": "Observation",
        "id": "b69dd28b-3337-4f6d-b38f-c0ddd3131d69",
        "meta": {
          "profile": [
            "http://hl7.eu/fhir/laboratory/StructureDefinition/Observation-resultslab-eu-lab"
          ]
        },
        "performer": [
          {
            "display": "The Central European Lab"
          }
        ],
        "category": [
          {
            "coding": [
              {
                "system": "http://terminology.hl7.org/CodeSystem/observation-category",
                "code": "laboratory"
              }
            ]
          }
        ],
        "code": {
          "coding": [
            {
              "code": "20454-5",
              "system": "http://loinc.org",
              "display": "Protein [Presence] in Urine by Test strip"
            }
          ],
          "text": "Protein [Presence] in Urine by Test strip"
        },
        "text": {
          "status": "generated",
          "div": "<div xmlns=\"http://www.w3.org/1999/xhtml\"><table class=\"hl7__eu__lab__report\"><tr><th>Test</th><th>23-Mar-2023</th><th>Reference&#xA0;Range</th><th>Unit</th></tr><tr><td>Protein [Presence] in Urine by Test strip</td></tr></table></div>"
        },
        "status": "final",
        "subject": {
          "reference": "urn:uuid:a52effcc-8cd4-4f8c-8b8e-a89624d3751d",
          "display": "Marthe Gallet"
        },
        "effectiveDateTime": "2023-03-23T19:05:43Z",
        "specimen": {
          "reference": "urn:uuid:4b92e5bf-fb4d-48a4-a663-176c23757ba6"
        }
      }
    },
    {
      "fullUrl": "urn:uuid:35c73777-dfb4-4289-9bb5-22a41dd1525b",
      "resource": {
        "resourceType": "Observation",
        "id": "35c73777-dfb4-4289-9bb5-22a41dd1525b",
        "meta": {
          "profile": [
            "http://hl7.eu/fhir/laboratory/StructureDefinition/Observation-resultslab-eu-lab"
          ]
        },
        "performer": [
          {
            "display": "The Central European Lab"
          }
        ],
        "category": [
          {
            "coding": [
              {
                "system": "http://terminology.hl7.org/CodeSystem/observation-category",
                "code": "laboratory"
              }
            ]
          }
        ],
        "code": {
          "coding": [
            {
              "code": "5802-4",
              "system": "http://loinc.org",
              "display": "Nitrite [Presence] in Urine by Test strip"
            }
          ],
          "text": "Nitrite [Presence] in Urine by Test strip"
        },
        "text": {
          "status": "generated",
          "div": "<div xmlns=\"http://www.w3.org/1999/xhtml\"><table class=\"hl7__eu__lab__report\"><tr><th>Test</th><th>23-Mar-2023</th><th>Reference&#xA0;Range</th><th>Unit</th></tr><tr><td>Nitrite [Presence] in Urine by Test strip</td></tr></table></div>"
        },
        "status": "final",
        "subject": {
          "reference": "urn:uuid:a52effcc-8cd4-4f8c-8b8e-a89624d3751d",
          "display": "Marthe Gallet"
        },
        "effectiveDateTime": "2023-03-23T19:05:43Z",
        "specimen": {
          "reference": "urn:uuid:4b92e5bf-fb4d-48a4-a663-176c23757ba6"
        }
      }
    },
    {
      "fullUrl": "urn:uuid:3fb104ac-d375-43af-8894-0bcf93585bcd",
      "resource": {
        "resourceType": "Observation",
        "id": "3fb104ac-d375-43af-8894-0bcf93585bcd",
        "meta": {
          "profile": [
            "http://hl7.eu/fhir/laboratory/StructureDefinition/Observation-resultslab-eu-lab"
          ]
        },
        "performer": [
          {
            "display": "The Central European Lab"
          }
        ],
        "category": [
          {
            "coding": [
              {
                "system": "http://terminology.hl7.org/CodeSystem/observation-category",
                "code": "laboratory"
              }
            ]
          }
        ],
        "code": {
          "coding": [
            {
              "code": "5794-3",
              "system": "http://loinc.org",
              "display": "Hemoglobin [Presence] in Urine by Test strip"
            }
          ],
          "text": "Hemoglobin [Presence] in Urine by Test strip"
        },
        "text": {
          "status": "generated",
          "div": "<div xmlns=\"http://www.w3.org/1999/xhtml\"><table class=\"hl7__eu__lab__report\"><tr><th>Test</th><th>23-Mar-2023</th><th>Reference&#xA0;Range</th><th>Unit</th></tr><tr><td>Hemoglobin [Presence] in Urine by Test strip</td></tr></table></div>"
        },
        "status": "final",
        "subject": {
          "reference": "urn:uuid:a52effcc-8cd4-4f8c-8b8e-a89624d3751d",
          "display": "Marthe Gallet"
        },
        "effectiveDateTime": "2023-03-23T19:05:43Z",
        "specimen": {
          "reference": "urn:uuid:4b92e5bf-fb4d-48a4-a663-176c23757ba6"
        }
      }
    },
    {
      "fullUrl": "urn:uuid:d35e3305-735a-4ed9-ad38-213e33e37c04",
      "resource": {
        "resourceType": "Observation",
        "id": "d35e3305-735a-4ed9-ad38-213e33e37c04",
        "meta": {
          "profile": [
            "http://hl7.eu/fhir/laboratory/StructureDefinition/Observation-resultslab-eu-lab"
          ]
        },
        "performer": [
          {
            "display": "The Central European Lab"
          }
        ],
        "category": [
          {
            "coding": [
              {
                "system": "http://terminology.hl7.org/CodeSystem/observation-category",
                "code": "laboratory"
              }
            ]
          }
        ],
        "code": {
          "coding": [
            {
              "code": "5799-2",
              "system": "http://loinc.org",
              "display": "Leukocyte esterase [Presence] in Urine by Test strip"
            }
          ],
          "text": "Leukocyte esterase [Presence] in Urine by Test strip"
        },
        "text": {
          "status": "generated",
          "div": "<div xmlns=\"http://www.w3.org/1999/xhtml\"><table class=\"hl7__eu__lab__report\"><tr><th>Test</th><th>23-Mar-2023</th><th>Reference&#xA0;Range</th><th>Unit</th></tr><tr><td>Leukocyte esterase [Presence] in Urine by Test strip</td></tr></table></div>"
        },
        "status": "final",
        "subject": {
          "reference": "urn:uuid:a52effcc-8cd4-4f8c-8b8e-a89624d3751d",
          "display": "Marthe Gallet"
        },
        "effectiveDateTime": "2023-03-23T19:05:43Z",
        "specimen": {
          "reference": "urn:uuid:4b92e5bf-fb4d-48a4-a663-176c23757ba6"
        }
      }
    },
    {
      "fullUrl": "urn:uuid:cc6cb265-a60f-4316-92e8-1273ee49fed2",
      "resource": {
        "resourceType": "Observation",
        "id": "cc6cb265-a60f-4316-92e8-1273ee49fed2",
        "meta": {
          "profile": [
            "http://hl7.eu/fhir/laboratory/StructureDefinition/Observation-resultslab-eu-lab"
          ]
        },
        "performer": [
          {
            "display": "The Central European Lab"
          }
        ],
        "category": [
          {
            "coding": [
              {
                "system": "http://terminology.hl7.org/CodeSystem/observation-category",
                "code": "laboratory"
              }
            ]
          }
        ],
        "code": {
          "coding": [
            {
              "code": "6690-2",
              "system": "http://loinc.org",
              "display": "Leukocytes [#/volume] in Blood by Automated count"
            }
          ],
          "text": "Leukocytes [#/volume] in Blood by Automated count"
        },
        "valueQuantity": {
          "system": "http://unitsofmeasure.org",
          "value": 3.9,
          "unit": "10*3/uL",
          "code": "10*3/uL"
        },
        "referenceRange": [
          {
            "low": {
              "value": 3.6,
              "code": "10*3/uL",
              "system": "http://unitsofmeasure.org"
            }
          },
          {
            "high": {
              "value": 10.5,
              "code": "10*3/uL",
              "system": "http://unitsofmeasure.org"
            }
          }
        ],
        "text": {
          "status": "generated",
          "div": "<div xmlns=\"http://www.w3.org/1999/xhtml\"><table class=\"hl7__eu__lab__report\"><tr><th>Test</th><th>23-Mar-2023</th><th>Reference&#xA0;Range</th><th>Unit</th></tr><tr><td>Leukocytes [#/volume] in Blood by Automated count</td><td>3.9</td><td>3.6 - 10.5</td><td></td><td>10*3/uL</td></tr></table></div>"
        },
        "status": "final",
        "subject": {
          "reference": "urn:uuid:a52effcc-8cd4-4f8c-8b8e-a89624d3751d",
          "display": "Marthe Gallet"
        },
        "effectiveDateTime": "2023-03-23T19:05:43Z",
        "specimen": {
          "reference": "urn:uuid:de759d16-66d0-44e3-a164-7630d0a5a227"
        }
      }
    },
    {
      "fullUrl": "urn:uuid:06fe329f-17d0-41e3-a3b5-9522dc1610fd",
      "resource": {
        "resourceType": "Observation",
        "id": "06fe329f-17d0-41e3-a3b5-9522dc1610fd",
        "meta": {
          "profile": [
            "http://hl7.eu/fhir/laboratory/StructureDefinition/Observation-resultslab-eu-lab"
          ]
        },
        "performer": [
          {
            "display": "The Central European Lab"
          }
        ],
        "category": [
          {
            "coding": [
              {
                "system": "http://terminology.hl7.org/CodeSystem/observation-category",
                "code": "laboratory"
              }
            ]
          }
        ],
        "code": {
          "coding": [
            {
              "code": "789-8",
              "system": "http://loinc.org",
              "display": "Erythrocytes [#/volume] in Blood by Automated count"
            }
          ],
          "text": "Erythrocytes [#/volume] in Blood by Automated count"
        },
        "valueQuantity": {
          "system": "http://unitsofmeasure.org",
          "value": 5.1,
          "unit": "10*6/uL",
          "code": "10*6/uL"
        },
        "referenceRange": [
          {
            "low": {
              "value": 4.1,
              "code": "10*6/uL",
              "system": "http://unitsofmeasure.org"
            }
          },
          {
            "high": {
              "value": 5.7,
              "code": "10*6/uL",
              "system": "http://unitsofmeasure.org"
            }
          }
        ],
        "text": {
          "status": "generated",
          "div": "<div xmlns=\"http://www.w3.org/1999/xhtml\"><table class=\"hl7__eu__lab__report\"><tr><th>Test</th><th>23-Mar-2023</th><th>Reference&#xA0;Range</th><th>Unit</th></tr><tr><td>Erythrocytes [#/volume] in Blood by Automated count</td><td>5.1</td><td>4.1 - 5.7</td><td></td><td>10*6/uL</td></tr></table></div>"
        },
        "status": "final",
        "subject": {
          "reference": "urn:uuid:a52effcc-8cd4-4f8c-8b8e-a89624d3751d",
          "display": "Marthe Gallet"
        },
        "effectiveDateTime": "2023-03-23T19:05:43Z",
        "specimen": {
          "reference": "urn:uuid:de759d16-66d0-44e3-a164-7630d0a5a227"
        }
      }
    },
    {
      "fullUrl": "urn:uuid:0d0b4787-c69a-4f17-90df-875604ba4b6a",
      "resource": {
        "resourceType": "Observation",
        "id": "0d0b4787-c69a-4f17-90df-875604ba4b6a",
        "meta": {
          "profile": [
            "http://hl7.eu/fhir/laboratory/StructureDefinition/Observation-resultslab-eu-lab"
          ]
        },
        "performer": [
          {
            "display": "The Central European Lab"
          }
        ],
        "category": [
          {
            "coding": [
              {
                "system": "http://terminology.hl7.org/CodeSystem/observation-category",
                "code": "laboratory"
              }
            ]
          }
        ],
        "code": {
          "coding": [
            {
              "code": "718-7",
              "system": "http://loinc.org",
              "display": "Hemoglobin [Mass/volume] in Blood"
            }
          ],
          "text": "Hemoglobin [Mass/volume] in Blood"
        },
        "valueQuantity": {
          "system": "http://unitsofmeasure.org",
          "value": 17,
          "unit": "g/dL",
          "code": "g/dL"
        },
        "referenceRange": [
          {
            "low": {
              "value": 12,
              "code": "g/dL",
              "system": "http://unitsofmeasure.org"
            }
          },
          {
            "high": {
              "value": 15.5,
              "code": "g/dL",
              "system": "http://unitsofmeasure.org"
            }
          }
        ],
        "interpretation": [
          {
            "coding": [
              {
                "code": "H",
                "system": "http://terminology.hl7.org/CodeSystem/v3-ObservationInterpretation",
                "display": "High"
              }
            ]
          }
        ],
        "text": {
          "status": "generated",
          "div": "<div xmlns=\"http://www.w3.org/1999/xhtml\"><table class=\"hl7__eu__lab__report\"><tr><th>Test</th><th>23-Mar-2023</th><th>Reference&#xA0;Range</th><th>Unit</th></tr><tr><td>Hemoglobin [Mass/volume] in Blood</td><td>17.0</td><td>12 - 15.5</td><td>H</td><td>g/dL</td></tr></table></div>"
        },
        "status": "final",
        "subject": {
          "reference": "urn:uuid:a52effcc-8cd4-4f8c-8b8e-a89624d3751d",
          "display": "Marthe Gallet"
        },
        "effectiveDateTime": "2023-03-23T19:05:43Z",
        "specimen": {
          "reference": "urn:uuid:de759d16-66d0-44e3-a164-7630d0a5a227"
        }
      }
    },
    {
      "fullUrl": "urn:uuid:b22d8379-2fde-4244-a834-2e22eb8de731",
      "resource": {
        "resourceType": "Observation",
        "id": "b22d8379-2fde-4244-a834-2e22eb8de731",
        "meta": {
          "profile": [
            "http://hl7.eu/fhir/laboratory/StructureDefinition/Observation-resultslab-eu-lab"
          ]
        },
        "performer": [
          {
            "display": "The Central European Lab"
          }
        ],
        "category": [
          {
            "coding": [
              {
                "system": "http://terminology.hl7.org/CodeSystem/observation-category",
                "code": "laboratory"
              }
            ]
          }
        ],
        "code": {
          "coding": [
            {
              "code": "4544-3",
              "system": "http://loinc.org",
              "display": "Hematocrit [Volume Fraction] of Blood by Automated count"
            }
          ],
          "text": "Hematocrit [Volume Fraction] of Blood by Automated count"
        },
        "valueQuantity": {
          "system": "http://unitsofmeasure.org",
          "value": 41.7,
          "unit": "%",
          "code": "%"
        },
        "referenceRange": [
          {
            "low": {
              "value": 37.5,
              "code": "%",
              "system": "http://unitsofmeasure.org"
            }
          },
          {
            "high": {
              "value": 44.3,
              "code": "%",
              "system": "http://unitsofmeasure.org"
            }
          }
        ],
        "text": {
          "status": "generated",
          "div": "<div xmlns=\"http://www.w3.org/1999/xhtml\"><table class=\"hl7__eu__lab__report\"><tr><th>Test</th><th>23-Mar-2023</th><th>Reference&#xA0;Range</th><th>Unit</th></tr><tr><td>Hematocrit [Volume Fraction] of Blood by Automated count</td><td>41.7</td><td>37.5 - 44.3</td><td></td><td>%</td></tr></table></div>"
        },
        "status": "final",
        "subject": {
          "reference": "urn:uuid:a52effcc-8cd4-4f8c-8b8e-a89624d3751d",
          "display": "Marthe Gallet"
        },
        "effectiveDateTime": "2023-03-23T19:05:43Z",
        "specimen": {
          "reference": "urn:uuid:de759d16-66d0-44e3-a164-7630d0a5a227"
        }
      }
    },
    {
      "fullUrl": "urn:uuid:62280559-f55a-45a0-9c66-16fc8fabf0d2",
      "resource": {
        "resourceType": "Observation",
        "id": "62280559-f55a-45a0-9c66-16fc8fabf0d2",
        "meta": {
          "profile": [
            "http://hl7.eu/fhir/laboratory/StructureDefinition/Observation-resultslab-eu-lab"
          ]
        },
        "performer": [
          {
            "display": "The Central European Lab"
          }
        ],
        "category": [
          {
            "coding": [
              {
                "system": "http://terminology.hl7.org/CodeSystem/observation-category",
                "code": "laboratory"
              }
            ]
          }
        ],
        "code": {
          "coding": [
            {
              "code": "787-2",
              "system": "http://loinc.org",
              "display": "MCV [Entitic volume] by Automated count"
            }
          ],
          "text": "MCV [Entitic volume] by Automated count"
        },
        "valueQuantity": {
          "system": "http://unitsofmeasure.org",
          "value": 93.4,
          "unit": "fL",
          "code": "fL"
        },
        "referenceRange": [
          {
            "low": {
              "value": 78,
              "code": "fL",
              "system": "http://unitsofmeasure.org"
            }
          },
          {
            "high": {
              "value": 98,
              "code": "fL",
              "system": "http://unitsofmeasure.org"
            }
          }
        ],
        "text": {
          "status": "generated",
          "div": "<div xmlns=\"http://www.w3.org/1999/xhtml\"><table class=\"hl7__eu__lab__report\"><tr><th>Test</th><th>23-Mar-2023</th><th>Reference&#xA0;Range</th><th>Unit</th></tr><tr><td>MCV [Entitic volume] by Automated count</td><td>93.4</td><td>78 - 98</td><td></td><td>fL</td></tr></table></div>"
        },
        "status": "final",
        "subject": {
          "reference": "urn:uuid:a52effcc-8cd4-4f8c-8b8e-a89624d3751d",
          "display": "Marthe Gallet"
        },
        "effectiveDateTime": "2023-03-23T19:05:43Z",
        "specimen": {
          "reference": "urn:uuid:de759d16-66d0-44e3-a164-7630d0a5a227"
        }
      }
    },
    {
      "fullUrl": "urn:uuid:82d3312e-cdc6-4fb2-97b2-846b987af854",
      "resource": {
        "resourceType": "Observation",
        "id": "82d3312e-cdc6-4fb2-97b2-846b987af854",
        "meta": {
          "profile": [
            "http://hl7.eu/fhir/laboratory/StructureDefinition/Observation-resultslab-eu-lab"
          ]
        },
        "performer": [
          {
            "display": "The Central European Lab"
          }
        ],
        "category": [
          {
            "coding": [
              {
                "system": "http://terminology.hl7.org/CodeSystem/observation-category",
                "code": "laboratory"
              }
            ]
          }
        ],
        "code": {
          "coding": [
            {
              "code": "785-6",
              "system": "http://loinc.org",
              "display": "MCH [Entitic mass] by Automated count"
            }
          ],
          "text": "MCH [Entitic mass] by Automated count"
        },
        "valueQuantity": {
          "system": "http://unitsofmeasure.org",
          "value": 29.9,
          "unit": "pg",
          "code": "pg"
        },
        "referenceRange": [
          {
            "low": {
              "value": 27,
              "code": "pg",
              "system": "http://unitsofmeasure.org"
            }
          },
          {
            "high": {
              "value": 34,
              "code": "pg",
              "system": "http://unitsofmeasure.org"
            }
          }
        ],
        "text": {
          "status": "generated",
          "div": "<div xmlns=\"http://www.w3.org/1999/xhtml\"><table class=\"hl7__eu__lab__report\"><tr><th>Test</th><th>23-Mar-2023</th><th>Reference&#xA0;Range</th><th>Unit</th></tr><tr><td>MCH [Entitic mass] by Automated count</td><td>29.9</td><td>27 - 34</td><td></td><td>pg</td></tr></table></div>"
        },
        "status": "final",
        "subject": {
          "reference": "urn:uuid:a52effcc-8cd4-4f8c-8b8e-a89624d3751d",
          "display": "Marthe Gallet"
        },
        "effectiveDateTime": "2023-03-23T19:05:43Z",
        "specimen": {
          "reference": "urn:uuid:de759d16-66d0-44e3-a164-7630d0a5a227"
        }
      }
    },
    {
      "fullUrl": "urn:uuid:ebe3e756-dce1-49bb-8392-e33122e0fa97",
      "resource": {
        "resourceType": "Observation",
        "id": "ebe3e756-dce1-49bb-8392-e33122e0fa97",
        "meta": {
          "profile": [
            "http://hl7.eu/fhir/laboratory/StructureDefinition/Observation-resultslab-eu-lab"
          ]
        },
        "performer": [
          {
            "display": "The Central European Lab"
          }
        ],
        "category": [
          {
            "coding": [
              {
                "system": "http://terminology.hl7.org/CodeSystem/observation-category",
                "code": "laboratory"
              }
            ]
          }
        ],
        "code": {
          "coding": [
            {
              "code": "786-4",
              "system": "http://loinc.org",
              "display": "MCHC [Mass/volume] by Automated count"
            }
          ],
          "text": "MCHC [Mass/volume] by Automated count"
        },
        "valueQuantity": {
          "system": "http://unitsofmeasure.org",
          "value": 35.1,
          "unit": "g/dL",
          "code": "g/dL"
        },
        "referenceRange": [
          {
            "low": {
              "value": 31,
              "code": "g/dL",
              "system": "http://unitsofmeasure.org"
            }
          },
          {
            "high": {
              "value": 35,
              "code": "g/dL",
              "system": "http://unitsofmeasure.org"
            }
          }
        ],
        "interpretation": [
          {
            "coding": [
              {
                "code": "H",
                "system": "http://terminology.hl7.org/CodeSystem/v3-ObservationInterpretation",
                "display": "High"
              }
            ]
          }
        ],
        "text": {
          "status": "generated",
          "div": "<div xmlns=\"http://www.w3.org/1999/xhtml\"><table class=\"hl7__eu__lab__report\"><tr><th>Test</th><th>23-Mar-2023</th><th>Reference&#xA0;Range</th><th>Unit</th></tr><tr><td>MCHC [Mass/volume] by Automated count</td><td>35.1</td><td>31 - 35</td><td>H</td><td>g/dL</td></tr></table></div>"
        },
        "status": "final",
        "subject": {
          "reference": "urn:uuid:a52effcc-8cd4-4f8c-8b8e-a89624d3751d",
          "display": "Marthe Gallet"
        },
        "effectiveDateTime": "2023-03-23T19:05:43Z",
        "specimen": {
          "reference": "urn:uuid:de759d16-66d0-44e3-a164-7630d0a5a227"
        }
      }
    },
    {
      "fullUrl": "urn:uuid:a84f257a-62bd-44c1-ade1-ecc263bd0f48",
      "resource": {
        "resourceType": "Observation",
        "id": "a84f257a-62bd-44c1-ade1-ecc263bd0f48",
        "meta": {
          "profile": [
            "http://hl7.eu/fhir/laboratory/StructureDefinition/Observation-resultslab-eu-lab"
          ]
        },
        "performer": [
          {
            "display": "The Central European Lab"
          }
        ],
        "category": [
          {
            "coding": [
              {
                "system": "http://terminology.hl7.org/CodeSystem/observation-category",
                "code": "laboratory"
              }
            ]
          }
        ],
        "code": {
          "coding": [
            {
              "code": "21000-5",
              "system": "http://loinc.org",
              "display": "Erythrocyte distribution width [Entitic volume] by Automated count"
            }
          ],
          "text": "Erythrocyte distribution width [Entitic volume] by Automated count"
        },
        "valueQuantity": {
          "system": "http://unitsofmeasure.org",
          "value": 43.5,
          "unit": "fL",
          "code": "fL"
        },
        "referenceRange": [
          {
            "low": {
              "value": 36,
              "code": "fL",
              "system": "http://unitsofmeasure.org"
            }
          },
          {
            "high": {
              "value": 56,
              "code": "fL",
              "system": "http://unitsofmeasure.org"
            }
          }
        ],
        "text": {
          "status": "generated",
          "div": "<div xmlns=\"http://www.w3.org/1999/xhtml\"><table class=\"hl7__eu__lab__report\"><tr><th>Test</th><th>23-Mar-2023</th><th>Reference&#xA0;Range</th><th>Unit</th></tr><tr><td>Erythrocyte distribution width [Entitic volume] by Automated count</td><td>43.5</td><td>36 - 56</td><td></td><td>fL</td></tr></table></div>"
        },
        "status": "final",
        "subject": {
          "reference": "urn:uuid:a52effcc-8cd4-4f8c-8b8e-a89624d3751d",
          "display": "Marthe Gallet"
        },
        "effectiveDateTime": "2023-03-23T19:05:43Z",
        "specimen": {
          "reference": "urn:uuid:de759d16-66d0-44e3-a164-7630d0a5a227"
        }
      }
    },
    {
      "fullUrl": "urn:uuid:bf8d5d69-daac-4074-9dec-19076877b97d",
      "resource": {
        "resourceType": "Observation",
        "id": "bf8d5d69-daac-4074-9dec-19076877b97d",
        "meta": {
          "profile": [
            "http://hl7.eu/fhir/laboratory/StructureDefinition/Observation-resultslab-eu-lab"
          ]
        },
        "performer": [
          {
            "display": "The Central European Lab"
          }
        ],
        "category": [
          {
            "coding": [
              {
                "system": "http://terminology.hl7.org/CodeSystem/observation-category",
                "code": "laboratory"
              }
            ]
          }
        ],
        "code": {
          "coding": [
            {
              "code": "777-3",
              "system": "http://loinc.org",
              "display": "Platelets [#/volume] in Blood by Automated count"
            }
          ],
          "text": "Platelets [#/volume] in Blood by Automated count"
        },
        "valueQuantity": {
          "system": "http://unitsofmeasure.org",
          "value": 334.5,
          "unit": "10*3/uL",
          "code": "10*3/uL"
        },
        "referenceRange": [
          {
            "low": {
              "value": 150,
              "code": "10*3/uL",
              "system": "http://unitsofmeasure.org"
            }
          },
          {
            "high": {
              "value": 450,
              "code": "10*3/uL",
              "system": "http://unitsofmeasure.org"
            }
          }
        ],
        "text": {
          "status": "generated",
          "div": "<div xmlns=\"http://www.w3.org/1999/xhtml\"><table class=\"hl7__eu__lab__report\"><tr><th>Test</th><th>23-Mar-2023</th><th>Reference&#xA0;Range</th><th>Unit</th></tr><tr><td>Platelets [#/volume] in Blood by Automated count</td><td>334.5</td><td>150 - 450</td><td></td><td>10*3/uL</td></tr></table></div>"
        },
        "status": "final",
        "subject": {
          "reference": "urn:uuid:a52effcc-8cd4-4f8c-8b8e-a89624d3751d",
          "display": "Marthe Gallet"
        },
        "effectiveDateTime": "2023-03-23T19:05:43Z",
        "specimen": {
          "reference": "urn:uuid:de759d16-66d0-44e3-a164-7630d0a5a227"
        }
      }
    },
    {
      "fullUrl": "urn:uuid:fb0170c3-0e3e-4fe1-a01e-2b86b866ea1a",
      "resource": {
        "resourceType": "Observation",
        "id": "fb0170c3-0e3e-4fe1-a01e-2b86b866ea1a",
        "meta": {
          "profile": [
            "http://hl7.eu/fhir/laboratory/StructureDefinition/Observation-resultslab-eu-lab"
          ]
        },
        "performer": [
          {
            "display": "The Central European Lab"
          }
        ],
        "category": [
          {
            "coding": [
              {
                "system": "http://terminology.hl7.org/CodeSystem/observation-category",
                "code": "laboratory"
              }
            ]
          }
        ],
        "code": {
          "coding": [
            {
              "code": "32207-3",
              "system": "http://loinc.org",
              "display": "Platelet distribution width [Entitic volume] in Blood by Automated count"
            }
          ],
          "text": "Platelet distribution width [Entitic volume] in Blood by Automated count"
        },
        "valueQuantity": {
          "system": "http://unitsofmeasure.org",
          "value": 486.6,
          "unit": "fL",
          "code": "fL"
        },
        "referenceRange": [
          {
            "low": {
              "value": 13.4,
              "code": "fL",
              "system": "http://unitsofmeasure.org"
            }
          },
          {
            "high": {
              "value": 17.4,
              "code": "fL",
              "system": "http://unitsofmeasure.org"
            }
          }
        ],
        "interpretation": [
          {
            "coding": [
              {
                "code": "H",
                "system": "http://terminology.hl7.org/CodeSystem/v3-ObservationInterpretation",
                "display": "High"
              }
            ]
          }
        ],
        "text": {
          "status": "generated",
          "div": "<div xmlns=\"http://www.w3.org/1999/xhtml\"><table class=\"hl7__eu__lab__report\"><tr><th>Test</th><th>23-Mar-2023</th><th>Reference&#xA0;Range</th><th>Unit</th></tr><tr><td>Platelet distribution width [Entitic volume] in Blood by Automated count</td><td>486.6</td><td>13.4 - 17.4</td><td>H</td><td>fL</td></tr></table></div>"
        },
        "status": "final",
        "subject": {
          "reference": "urn:uuid:a52effcc-8cd4-4f8c-8b8e-a89624d3751d",
          "display": "Marthe Gallet"
        },
        "effectiveDateTime": "2023-03-23T19:05:43Z",
        "specimen": {
          "reference": "urn:uuid:de759d16-66d0-44e3-a164-7630d0a5a227"
        }
      }
    },
    {
      "fullUrl": "urn:uuid:8794fff2-6dde-4ecb-a153-bafc0e5a75b7",
      "resource": {
        "resourceType": "Observation",
        "id": "8794fff2-6dde-4ecb-a153-bafc0e5a75b7",
        "meta": {
          "profile": [
            "http://hl7.eu/fhir/laboratory/StructureDefinition/Observation-resultslab-eu-lab"
          ]
        },
        "performer": [
          {
            "display": "The Central European Lab"
          }
        ],
        "category": [
          {
            "coding": [
              {
                "system": "http://terminology.hl7.org/CodeSystem/observation-category",
                "code": "laboratory"
              }
            ]
          }
        ],
        "code": {
          "coding": [
            {
              "code": "32623-1",
              "system": "http://loinc.org",
              "display": "Platelet mean volume [Entitic volume] in Blood by Automated count"
            }
          ],
          "text": "Platelet mean volume [Entitic volume] in Blood by Automated count"
        },
        "valueQuantity": {
          "system": "http://unitsofmeasure.org",
          "value": 9.9,
          "unit": "fL",
          "code": "fL"
        },
        "referenceRange": [
          {
            "low": {
              "value": 9.7,
              "code": "fL",
              "system": "http://unitsofmeasure.org"
            }
          },
          {
            "high": {
              "value": 13.5,
              "code": "fL",
              "system": "http://unitsofmeasure.org"
            }
          }
        ],
        "text": {
          "status": "generated",
          "div": "<div xmlns=\"http://www.w3.org/1999/xhtml\"><table class=\"hl7__eu__lab__report\"><tr><th>Test</th><th>23-Mar-2023</th><th>Reference&#xA0;Range</th><th>Unit</th></tr><tr><td>Platelet mean volume [Entitic volume] in Blood by Automated count</td><td>9.9</td><td>9.7 - 13.5</td><td></td><td>fL</td></tr></table></div>"
        },
        "status": "final",
        "subject": {
          "reference": "urn:uuid:a52effcc-8cd4-4f8c-8b8e-a89624d3751d",
          "display": "Marthe Gallet"
        },
        "effectiveDateTime": "2023-03-23T19:05:43Z",
        "specimen": {
          "reference": "urn:uuid:de759d16-66d0-44e3-a164-7630d0a5a227"
        }
      }
    },
    {
      "fullUrl": "urn:uuid:bbf4db24-13f5-40da-b071-e9bab4303641",
      "resource": {
        "resourceType": "Device",
        "id": "bbf4db24-13f5-40da-b071-e9bab4303641",
        "deviceName": [
          {
            "name": "SYNDERAI Synthetic Generator",
            "type": "manufacturer-name"
          }
        ],
        "version": [
          {
            "value": "5.0"
          }
        ],
        "text": {
          "status": "generated",
          "div": "<div xmlns=\"http://www.w3.org/1999/xhtml\">SYNDERAI Synthetic Generator v5.0</div>"
        },
        "status": "active\"",
        "distinctIdentifier": "synderai-generator-50",
        "manufacturer": "SYNDERAI Project"
      }
    },
    {
      "fullUrl": "urn:uuid:42d47906-a9a5-445f-bc36-84e7c34f4830",
      "resource": {
        "resourceType": "Provenance",
        "id": "42d47906-a9a5-445f-bc36-84e7c34f4830",
        "target": [
          {
            "reference": "Patient/a52effcc-8cd4-4f8c-8b8e-a89624d3751d"
          },
          {
            "reference": "Bundle/4b33fef3-c75f-4d1e-8282-dff23c423a6a"
          },
          {
            "reference": "Composition/6d62dc52-8342-4fe9-ba55-9747fa74d383"
          },
          {
            "reference": "PractitionerRole/cc337f10-9202-43e2-bf23-120955d52bd4"
          },
          {
            "reference": "Practitioner/1d9a8c23-0a3f-4709-ad88-5770fe8f1fb7"
          },
          {
            "reference": "PractitionerRole/d622104a-6033-4fcf-a7cc-00c0519d7843"
          },
          {
            "reference": "Organization/6a3b4e3a-5e02-4714-9487-e05eab972b35"
          }
        ],
        "activity": {
          "text": "Synthetic Example Data Generation"
        },
        "policy": [
          "https://synderai.net/synderai-synthetic-data-policy"
        ],
        "agent": [
          {
            "type": {
              "text": "author"
            },
            "who": {
              "reference": "Device/bbf4db24-13f5-40da-b071-e9bab4303641"
            }
          }
        ],
        "reason": [
          {
            "text": "Interoperability Testing and Training (non-clinical use)"
          }
        ],
        "text": {
          "status": "generated",
          "div": "<div xmlns=\"http://www.w3.org/1999/xhtml\">Provenance for SYNDERAI Synthetic Example Data Resource</div>"
        },
        "recorded": "2023-03-23T20:05:43Z"
      }
    },
    {
      "fullUrl": "urn:uuid:cc337f10-9202-43e2-bf23-120955d52bd4",
      "resource": {
        "resourceType": "PractitionerRole",
        "id": "cc337f10-9202-43e2-bf23-120955d52bd4",
        "meta": {
          "profile": [
            "http://hl7.eu/fhir/base/StructureDefinition/practitionerRole-eu"
          ]
        },
        "text": {
          "status": "generated",
          "div": "<div xmlns=\"http://www.w3.org/1999/xhtml\">Laboratory Role Id: cc337f10-9202-43e2-bf23-120955d52bd4</div>"
        },
        "practitioner": {
          "reference": "urn:uuid:1d9a8c23-0a3f-4709-ad88-5770fe8f1fb7"
        }
      }
    },
    {
      "fullUrl": "urn:uuid:1d9a8c23-0a3f-4709-ad88-5770fe8f1fb7",
      "resource": {
        "resourceType": "Practitioner",
        "id": "1d9a8c23-0a3f-4709-ad88-5770fe8f1fb7",
        "meta": {
          "profile": [
            "http://hl7.eu/fhir/base/StructureDefinition/practitioner-eu"
          ]
        },
        "identifier": [
          {
            "assigner": {
              "display": "HL7 Europe"
            },
            "system": "urn:oid:2.16.840.1.113883.2.51.999",
            "value": "775527ca-4a96-4172-b09a-c0e5e13b5f83"
          }
        ],
        "name": [
          {
            "prefix": [
              "dr"
            ],
            "given": [
              "Ex"
            ],
            "family": "Ample"
          }
        ],
        "address": [
          {
            "line": [
              "Laboratoire Central Europenne",
              "Boulevard du Jardin Botanique 32"
            ],
            "postalCode": "1000",
            "city": "Brussels",
            "country": "Belgium"
          }
        ],
        "text": {
          "status": "generated",
          "div": "<div xmlns=\"http://www.w3.org/1999/xhtml\">Laboratory: Laboratoire Central Europenne, 1000 Brussels, Belgium</div>"
        }
      }
    }
  ],
  "type": "document",
  "timestamp": "2023-03-23T20:05:43Z"
}
