{
  "resourceType": "Bundle",
  "id": "b844549c-4cca-44be-9e6d-07fa04be074b",
  "meta": {
    "profile": [
      "http://hl7.eu/fhir/laboratory/StructureDefinition/Bundle-eu-lab"
    ]
  },
  "identifier": {
    "assigner": {
      "display": "HL7 Europe"
    },
    "system": "urn:oid:2.16.840.1.113883.2.51.999",
    "value": "45544eea-e79a-4291-a771-c1df885d309a"
  },
  "entry": [
    {
      "fullUrl": "urn:uuid:37c420e2-bee6-4102-9fa2-71f197da9bf5",
      "resource": {
        "resourceType": "Composition",
        "id": "37c420e2-bee6-4102-9fa2-71f197da9bf5",
        "meta": {
          "profile": [
            "http://hl7.eu/fhir/laboratory/StructureDefinition/Composition-eu-lab"
          ]
        },
        "identifier": {
          "assigner": {
            "display": "HL7 Europe"
          },
          "system": "urn:oid:2.16.840.1.113883.2.51.999",
          "value": "ca43c171-97ad-4596-a9a6-ebcfdd0d8f00"
        },
        "author": [
          {
            "reference": "urn:uuid:289abe7a-da3a-415b-b446-cfc1984621b7"
          }
        ],
        "category": [
          {
            "coding": [
              {
                "code": "26436-6",
                "system": "http://loinc.org",
                "display": "Laboratory studies (set)"
              }
            ]
          }
        ],
        "type": {
          "coding": [
            {
              "code": "11502-2",
              "system": "http://loinc.org",
              "display": "Laboratory report"
            }
          ],
          "text": "Laboratory Report"
        },
        "section": [
          {
            "code": {
              "coding": [
                {
                  "code": "26436-6",
                  "system": "http://loinc.org",
                  "display": "Laboratory studies (set)"
                }
              ],
              "text": "Laboratory studies"
            },
            "section": [
              {
                "code": {
                  "coding": [
                    {
                      "code": "$18719-5",
                      "system": "http://loinc.org",
                      "display": "Chemistry studies (set)"
                    }
                  ],
                  "text": "Chemistry"
                },
                "entry": [
                  {
                    "reference": "urn:uuid:2791f8cc-a32d-479d-a7af-4ceee6474b7a"
                  },
                  {
                    "reference": "urn:uuid:dd4d2648-cbf4-43b4-a724-5e6a90e7e6ad"
                  },
                  {
                    "reference": "urn:uuid:54791f27-3a31-4aad-bddd-95749e25755c"
                  },
                  {
                    "reference": "urn:uuid:02bcd1a1-19ac-47b6-95c0-c6c70246830f"
                  },
                  {
                    "reference": "urn:uuid:53da71e0-67da-4b26-8be0-f371ac95d32b"
                  },
                  {
                    "reference": "urn:uuid:2eefdadf-2967-4b49-a7f6-614b229cae3a"
                  },
                  {
                    "reference": "urn:uuid:303d94b7-ba84-42ad-a52e-2b94cbcf052e"
                  },
                  {
                    "reference": "urn:uuid:3c5c52b4-0dec-4d12-a53f-4ba061930336"
                  },
                  {
                    "reference": "urn:uuid:81b853ad-ae97-494f-850b-742ed7fef158"
                  }
                ],
                "text": {
                  "status": "generated",
                  "div": "<div xmlns=\"http://www.w3.org/1999/xhtml\"><h3>Chemistry</h3><table class=\"hl7__eu__lab__report\"><thead><tr><th>Test</th><th>17-NOV-2015</th><th>Reference&#xA0;Range</th><th>Unit</th></tr></thead><tbody><tr><td>Hemoglobin A1c/Hemoglobin.total in Blood</td><td><strong>6.4 H</strong></td><td>4.8 - 5.7</td><td>%</td></tr><tr><td>Glucose [Mass/volume] in Blood</td><td>90.5</td><td>70 - 99</td><td>mg/dL</td></tr><tr><td>Urea nitrogen [Mass/volume] in Blood</td><td>19.9</td><td>7 - 20</td><td>mg/dL</td></tr><tr><td>Creatinine [Mass/volume] in Blood</td><td>1.1</td><td>0.6 - 1.1</td><td>mg/dL</td></tr><tr><td>Calcium [Mass/volume] in Blood</td><td>9.1</td><td>8.5 - 10.5</td><td>mg/dL</td></tr><tr><td>Sodium [Moles/volume] in Blood</td><td>143.9</td><td>135 - 145</td><td>mmol/L</td></tr><tr><td>Potassium [Moles/volume] in Blood</td><td>5.1</td><td>3.5 - 5.3</td><td>mmol/L</td></tr><tr><td>Chloride [Moles/volume] in Blood</td><td>110.9</td><td>98 - 114</td><td>mmol/L</td></tr><tr><td>Carbon dioxide, total [Moles/volume] in Blood</td><td>25.0</td><td>22 - 29</td><td>mmol/L</td></tr></tbody></table></div>"
                },
                "title": "Chemistry"
              }
            ],
            "title": "Laboratory Report"
          },
          {
            "text": {
              "status": "generated",
              "div": "<div xmlns=\"http://www.w3.org/1999/xhtml\"><h3>Annotation</h3><table class=\"hl7__eu__lab__report\"><tr><th>Conclusion and Recommendations based on this report and previous findings known to us</th></tr><tr><td>The laboratory results show an elevated HbA1c (6.4%), indicating impaired glucose metabolism consistent with prediabetes or early diabetes, despite a normal fasting glucose. Renal function, electrolytes, and other parameters are within normal limits. Recommend clinical correlation and consideration of further evaluation or management for glycemic control.</td></tr></table></div>"
            },
            "code": {
              "coding": [
                {
                  "system": "http://loinc.org",
                  "code": "48767-8",
                  "display": "Annotation comment"
                }
              ]
            },
            "title": "Annotation comment"
          }
        ],
        "status": "final",
        "subject": {
          "reference": "urn:uuid:a3ffa6bc-93c6-4d4e-95db-06f021de2a4e",
          "display": "Aniela Sacharczuk"
        },
        "date": "2015-11-17T06:26:59Z",
        "title": "Laboratory Report",
        "confidentiality": "N"
      }
    },
    {
      "fullUrl": "urn:uuid:0fd9367f-fab6-49e0-b225-b5fced15e436",
      "resource": {
        "resourceType": "DiagnosticReport",
        "id": "0fd9367f-fab6-49e0-b225-b5fced15e436",
        "meta": {
          "profile": [
            "http://hl7.eu/fhir/laboratory/StructureDefinition/DiagnosticReport-eu-lab"
          ]
        },
        "identifier": [
          {
            "assigner": {
              "display": "HL7 Europe"
            },
            "system": "urn:oid:2.16.840.1.113883.2.51.999",
            "value": "e2f33060-5580-4619-9cb6-35a81e4e1364"
          }
        ],
        "extension": [
          {
            "url": "http://hl7.org/fhir/5.0/StructureDefinition/extension-DiagnosticReport.composition",
            "valueReference": {
              "reference": "urn:uuid:ca43c171-97ad-4596-a9a6-ebcfdd0d8f00"
            }
          }
        ],
        "category": [
          {
            "coding": [
              {
                "code": "26436-6",
                "system": "http://loinc.org",
                "display": "Laboratory studies (set)"
              }
            ]
          }
        ],
        "specimen": [
          {
            "reference": "urn:uuid:d22316bd-7f5f-4394-9e37-3dc7e2446c28"
          }
        ],
        "result": [
          {
            "reference": "urn:uuid:2791f8cc-a32d-479d-a7af-4ceee6474b7a"
          },
          {
            "reference": "urn:uuid:dd4d2648-cbf4-43b4-a724-5e6a90e7e6ad"
          },
          {
            "reference": "urn:uuid:54791f27-3a31-4aad-bddd-95749e25755c"
          },
          {
            "reference": "urn:uuid:02bcd1a1-19ac-47b6-95c0-c6c70246830f"
          },
          {
            "reference": "urn:uuid:53da71e0-67da-4b26-8be0-f371ac95d32b"
          },
          {
            "reference": "urn:uuid:2eefdadf-2967-4b49-a7f6-614b229cae3a"
          },
          {
            "reference": "urn:uuid:303d94b7-ba84-42ad-a52e-2b94cbcf052e"
          },
          {
            "reference": "urn:uuid:3c5c52b4-0dec-4d12-a53f-4ba061930336"
          },
          {
            "reference": "urn:uuid:81b853ad-ae97-494f-850b-742ed7fef158"
          }
        ],
        "status": "registered",
        "code": {
          "coding": [
            {
              "code": "11502-2",
              "system": "http://loinc.org",
              "display": "Laboratory report"
            }
          ]
        },
        "subject": {
          "reference": "urn:uuid:a3ffa6bc-93c6-4d4e-95db-06f021de2a4e",
          "display": "Aniela Sacharczuk"
        }
      }
    },
    {
      "fullUrl": "urn:uuid:a3ffa6bc-93c6-4d4e-95db-06f021de2a4e",
      "resource": {
        "resourceType": "Patient",
        "id": "a3ffa6bc-93c6-4d4e-95db-06f021de2a4e",
        "meta": {
          "security": [
            {
              "system": "http://terminology.hl7.org/CodeSystem/v3-ActReason",
              "code": "HTEST"
            },
            {
              "system": "http://terminology.hl7.org/CodeSystem/v3-ActReason",
              "code": "TRAIN"
            }
          ],
          "tag": [
            {
              "system": "https://synderai.net/fhir/CodeSystem/tags",
              "code": "synthetic",
              "display": "SYNDERAI Synthetic data"
            }
          ],
          "profile": [
            "http://hl7.eu/fhir/base/StructureDefinition/patient-eu-core"
          ]
        },
        "identifier": [
          {
            "type": {
              "coding": [
                {
                  "code": "PT",
                  "system": "http://terminology.hl7.org/CodeSystem/v2-0203"
                }
              ]
            },
            "system": "http://ec.europa.eu/identifier/eci",
            "value": "3843-787162-7"
          },
          {
            "type": {
              "coding": [
                {
                  "code": "MR",
                  "system": "http://terminology.hl7.org/CodeSystem/v2-0203"
                }
              ]
            },
            "system": "http://local.setting.eu/identifier",
            "value": "cd2e7aac-e2c0-8306-b862-9ed4c443c8b5"
          }
        ],
        "name": [
          {
            "family": "Sacharczuk"
          },
          {
            "given": [
              "Aniela"
            ]
          },
          {
            "text": "Aniela Sacharczuk"
          }
        ],
        "address": [
          {
            "line": [
              "plac Szpitalna 13"
            ],
            "use": "home",
            "type": "physical",
            "postalCode": "27-600",
            "city": "Sandomierz",
            "country": "Poland"
          }
        ],
        "telecom": [
          {
            "system": "phone",
            "value": "+48 536 227 035"
          }
        ],
        "extension": [
          {
            "url": "http://hl7.org/fhir/StructureDefinition/patient-nationality",
            "valueCodeableConcept": {
              "coding": [
                {
                  "code": "PL",
                  "system": "http://hl7.org/fhir/ValueSet/country"
                }
              ]
            }
          }
        ],
        "text": {
          "status": "generated",
          "div": "<div xmlns=\"http://www.w3.org/1999/xhtml\"><table class=\"hl7__ips\"><tr><td>Aniela Sacharczuk</td><td>female</td><td>02-Nov-1970</td></tr></table></div>"
        },
        "gender": "female",
        "birthDate": "1970-11-02"
      }
    },
    {
      "fullUrl": "urn:uuid:f83c1c7e-00ed-449e-9f52-1fe93968e740",
      "resource": {
        "resourceType": "ServiceRequest",
        "id": "f83c1c7e-00ed-449e-9f52-1fe93968e740",
        "meta": {
          "profile": [
            "http://hl7.eu/fhir/laboratory/StructureDefinition/ServiceRequest-eu-lab"
          ]
        },
        "identifier": [
          {
            "system": "http://example.org",
            "value": "5c70503c-835d-4981-8bbc-fb9769dc355b"
          }
        ],
        "specimen": [
          {
            "reference": "urn:uuid:d22316bd-7f5f-4394-9e37-3dc7e2446c28"
          }
        ],
        "reasonCode": [
          {
            "coding": [
              {
                "code": "237602007",
                "system": "http://snomed.info/sct",
                "display": "Metabolic syndrome X"
              }
            ]
          },
          {
            "coding": [
              {
                "code": "15777000",
                "system": "http://snomed.info/sct",
                "display": "Prediabetes"
              }
            ]
          },
          {
            "coding": [
              {
                "code": "59621000",
                "system": "http://snomed.info/sct",
                "display": "Essential hypertension"
              }
            ]
          }
        ],
        "status": "active",
        "intent": "order",
        "code": {
          "coding": [
            {
              "code": "108252007",
              "system": "http://snomed.info/sct",
              "display": "Laboratory procedure"
            }
          ]
        },
        "subject": {
          "reference": "urn:uuid:a3ffa6bc-93c6-4d4e-95db-06f021de2a4e",
          "display": "Aniela Sacharczuk"
        },
        "requester": {
          "reference": "urn:uuid:1dcf17ad-3621-49ab-b2d6-c9f047fe8bbf"
        }
      }
    },
    {
      "fullUrl": "urn:uuid:1dcf17ad-3621-49ab-b2d6-c9f047fe8bbf",
      "resource": {
        "resourceType": "PractitionerRole",
        "id": "1dcf17ad-3621-49ab-b2d6-c9f047fe8bbf",
        "meta": {
          "profile": [
            "http://hl7.eu/fhir/base/StructureDefinition/practitionerRole-eu"
          ]
        },
        "text": {
          "status": "generated",
          "div": "<div xmlns=\"http://www.w3.org/1999/xhtml\">Provider Role Id: 1dcf17ad-3621-49ab-b2d6-c9f047fe8bbf</div>"
        },
        "organization": {
          "reference": "urn:uuid:a55c2d8b-8398-4c5f-b3a0-aecc3cda7e74"
        }
      }
    },
    {
      "fullUrl": "urn:uuid:a55c2d8b-8398-4c5f-b3a0-aecc3cda7e74",
      "resource": {
        "resourceType": "Organization",
        "id": "a55c2d8b-8398-4c5f-b3a0-aecc3cda7e74",
        "meta": {
          "profile": [
            "http://hl7.eu/fhir/base/StructureDefinition/organization-eu"
          ]
        },
        "identifier": [
          {
            "assigner": {
              "display": "HL7 Europe"
            },
            "system": "urn:oid:2.16.840.1.113883.2.51.999",
            "value": "196cdf12-69a7-430f-88dd-08319c2c61ed"
          }
        ],
        "address": [
          {
            "line": [
              "Józefa Piłsudskiego 17"
            ],
            "city": "Gorzyce",
            "postalCode": "39-432",
            "country": "Poland"
          }
        ],
        "text": {
          "status": "generated",
          "div": "<div xmlns=\"http://www.w3.org/1999/xhtml\">Provider Organization: Ośrodek Zdrowia</div>"
        },
        "name": "Ośrodek Zdrowia"
      }
    },
    {
      "fullUrl": "urn:uuid:d22316bd-7f5f-4394-9e37-3dc7e2446c28",
      "resource": {
        "resourceType": "Specimen",
        "id": "d22316bd-7f5f-4394-9e37-3dc7e2446c28",
        "meta": {
          "profile": [
            "http://hl7.eu/fhir/laboratory/StructureDefinition/Specimen-eu-lab"
          ]
        },
        "collection": {
          "collectedDateTime": "2015-11-17"
        },
        "text": {
          "status": "generated",
          "div": "<div xmlns=\"http://www.w3.org/1999/xhtml\"><table class=\"hl7__eu__lab__report\"><tr><th>Specimen</th><th>Collection Date</th></tr><tr><td>Whole blood specimen (specimen)</td><td><span class=\"nb\">17-Nov-2015</span></td></tr></table></div>"
        },
        "type": {
          "coding": [
            {
              "code": "258580003",
              "system": "http://snomed.info/sct",
              "display": "Whole blood specimen (specimen)"
            }
          ]
        }
      }
    },
    {
      "fullUrl": "urn:uuid:2791f8cc-a32d-479d-a7af-4ceee6474b7a",
      "resource": {
        "resourceType": "Observation",
        "id": "2791f8cc-a32d-479d-a7af-4ceee6474b7a",
        "meta": {
          "profile": [
            "http://hl7.eu/fhir/laboratory/StructureDefinition/Observation-resultslab-eu-lab"
          ]
        },
        "performer": [
          {
            "display": "The Central European Lab"
          }
        ],
        "category": [
          {
            "coding": [
              {
                "system": "http://terminology.hl7.org/CodeSystem/observation-category",
                "code": "laboratory"
              }
            ]
          }
        ],
        "code": {
          "coding": [
            {
              "code": "4548-4",
              "system": "http://loinc.org",
              "display": "Hemoglobin A1c/Hemoglobin.total in Blood"
            }
          ],
          "text": "Hemoglobin A1c/Hemoglobin.total in Blood"
        },
        "valueQuantity": {
          "system": "http://unitsofmeasure.org",
          "value": 6.4,
          "unit": "%",
          "code": "%"
        },
        "referenceRange": [
          {
            "low": {
              "value": 4.8,
              "code": "%",
              "system": "http://unitsofmeasure.org"
            }
          },
          {
            "high": {
              "value": 5.7,
              "code": "%",
              "system": "http://unitsofmeasure.org"
            }
          }
        ],
        "interpretation": [
          {
            "coding": [
              {
                "code": "H",
                "system": "http://terminology.hl7.org/CodeSystem/v3-ObservationInterpretation",
                "display": "High"
              }
            ]
          }
        ],
        "text": {
          "status": "generated",
          "div": "<div xmlns=\"http://www.w3.org/1999/xhtml\"><table class=\"hl7__eu__lab__report\"><tr><th>Test</th><th>17-Nov-2015</th><th>Reference&#xA0;Range</th><th>Unit</th></tr><tr><td>Hemoglobin A1c/Hemoglobin.total in Blood</td><td>6.4</td><td>4.8 - 5.7</td><td>H</td><td>%</td></tr></table></div>"
        },
        "status": "final",
        "subject": {
          "reference": "urn:uuid:a3ffa6bc-93c6-4d4e-95db-06f021de2a4e",
          "display": "Aniela Sacharczuk"
        },
        "effectiveDateTime": "2015-11-17T05:26:59Z",
        "specimen": {
          "reference": "urn:uuid:d22316bd-7f5f-4394-9e37-3dc7e2446c28"
        }
      }
    },
    {
      "fullUrl": "urn:uuid:dd4d2648-cbf4-43b4-a724-5e6a90e7e6ad",
      "resource": {
        "resourceType": "Observation",
        "id": "dd4d2648-cbf4-43b4-a724-5e6a90e7e6ad",
        "meta": {
          "profile": [
            "http://hl7.eu/fhir/laboratory/StructureDefinition/Observation-resultslab-eu-lab"
          ]
        },
        "performer": [
          {
            "display": "The Central European Lab"
          }
        ],
        "category": [
          {
            "coding": [
              {
                "system": "http://terminology.hl7.org/CodeSystem/observation-category",
                "code": "laboratory"
              }
            ]
          }
        ],
        "code": {
          "coding": [
            {
              "code": "2339-0",
              "system": "http://loinc.org",
              "display": "Glucose [Mass/volume] in Blood"
            }
          ],
          "text": "Glucose [Mass/volume] in Blood"
        },
        "valueQuantity": {
          "system": "http://unitsofmeasure.org",
          "value": 90.5,
          "unit": "mg/dL",
          "code": "mg/dL"
        },
        "referenceRange": [
          {
            "low": {
              "value": 70,
              "code": "mg/dL",
              "system": "http://unitsofmeasure.org"
            }
          },
          {
            "high": {
              "value": 99,
              "code": "mg/dL",
              "system": "http://unitsofmeasure.org"
            }
          }
        ],
        "text": {
          "status": "generated",
          "div": "<div xmlns=\"http://www.w3.org/1999/xhtml\"><table class=\"hl7__eu__lab__report\"><tr><th>Test</th><th>17-Nov-2015</th><th>Reference&#xA0;Range</th><th>Unit</th></tr><tr><td>Glucose [Mass/volume] in Blood</td><td>90.5</td><td>70 - 99</td><td></td><td>mg/dL</td></tr></table></div>"
        },
        "status": "final",
        "subject": {
          "reference": "urn:uuid:a3ffa6bc-93c6-4d4e-95db-06f021de2a4e",
          "display": "Aniela Sacharczuk"
        },
        "effectiveDateTime": "2015-11-17T05:26:59Z",
        "specimen": {
          "reference": "urn:uuid:d22316bd-7f5f-4394-9e37-3dc7e2446c28"
        }
      }
    },
    {
      "fullUrl": "urn:uuid:54791f27-3a31-4aad-bddd-95749e25755c",
      "resource": {
        "resourceType": "Observation",
        "id": "54791f27-3a31-4aad-bddd-95749e25755c",
        "meta": {
          "profile": [
            "http://hl7.eu/fhir/laboratory/StructureDefinition/Observation-resultslab-eu-lab"
          ]
        },
        "performer": [
          {
            "display": "The Central European Lab"
          }
        ],
        "category": [
          {
            "coding": [
              {
                "system": "http://terminology.hl7.org/CodeSystem/observation-category",
                "code": "laboratory"
              }
            ]
          }
        ],
        "code": {
          "coding": [
            {
              "code": "6299-2",
              "system": "http://loinc.org",
              "display": "Urea nitrogen [Mass/volume] in Blood"
            }
          ],
          "text": "Urea nitrogen [Mass/volume] in Blood"
        },
        "valueQuantity": {
          "system": "http://unitsofmeasure.org",
          "value": 19.9,
          "unit": "mg/dL",
          "code": "mg/dL"
        },
        "referenceRange": [
          {
            "low": {
              "value": 7,
              "code": "mg/dL",
              "system": "http://unitsofmeasure.org"
            }
          },
          {
            "high": {
              "value": 20,
              "code": "mg/dL",
              "system": "http://unitsofmeasure.org"
            }
          }
        ],
        "text": {
          "status": "generated",
          "div": "<div xmlns=\"http://www.w3.org/1999/xhtml\"><table class=\"hl7__eu__lab__report\"><tr><th>Test</th><th>17-Nov-2015</th><th>Reference&#xA0;Range</th><th>Unit</th></tr><tr><td>Urea nitrogen [Mass/volume] in Blood</td><td>19.9</td><td>7 - 20</td><td></td><td>mg/dL</td></tr></table></div>"
        },
        "status": "final",
        "subject": {
          "reference": "urn:uuid:a3ffa6bc-93c6-4d4e-95db-06f021de2a4e",
          "display": "Aniela Sacharczuk"
        },
        "effectiveDateTime": "2015-11-17T05:26:59Z",
        "specimen": {
          "reference": "urn:uuid:d22316bd-7f5f-4394-9e37-3dc7e2446c28"
        }
      }
    },
    {
      "fullUrl": "urn:uuid:02bcd1a1-19ac-47b6-95c0-c6c70246830f",
      "resource": {
        "resourceType": "Observation",
        "id": "02bcd1a1-19ac-47b6-95c0-c6c70246830f",
        "meta": {
          "profile": [
            "http://hl7.eu/fhir/laboratory/StructureDefinition/Observation-resultslab-eu-lab"
          ]
        },
        "performer": [
          {
            "display": "The Central European Lab"
          }
        ],
        "category": [
          {
            "coding": [
              {
                "system": "http://terminology.hl7.org/CodeSystem/observation-category",
                "code": "laboratory"
              }
            ]
          }
        ],
        "code": {
          "coding": [
            {
              "code": "38483-4",
              "system": "http://loinc.org",
              "display": "Creatinine [Mass/volume] in Blood"
            }
          ],
          "text": "Creatinine [Mass/volume] in Blood"
        },
        "valueQuantity": {
          "system": "http://unitsofmeasure.org",
          "value": 1.1,
          "unit": "mg/dL",
          "code": "mg/dL"
        },
        "referenceRange": [
          {
            "low": {
              "value": 0.6,
              "code": "mg/dL",
              "system": "http://unitsofmeasure.org"
            }
          },
          {
            "high": {
              "value": 1.1,
              "code": "mg/dL",
              "system": "http://unitsofmeasure.org"
            }
          }
        ],
        "text": {
          "status": "generated",
          "div": "<div xmlns=\"http://www.w3.org/1999/xhtml\"><table class=\"hl7__eu__lab__report\"><tr><th>Test</th><th>17-Nov-2015</th><th>Reference&#xA0;Range</th><th>Unit</th></tr><tr><td>Creatinine [Mass/volume] in Blood</td><td>1.1</td><td>0.6 - 1.1</td><td></td><td>mg/dL</td></tr></table></div>"
        },
        "status": "final",
        "subject": {
          "reference": "urn:uuid:a3ffa6bc-93c6-4d4e-95db-06f021de2a4e",
          "display": "Aniela Sacharczuk"
        },
        "effectiveDateTime": "2015-11-17T05:26:59Z",
        "specimen": {
          "reference": "urn:uuid:d22316bd-7f5f-4394-9e37-3dc7e2446c28"
        }
      }
    },
    {
      "fullUrl": "urn:uuid:53da71e0-67da-4b26-8be0-f371ac95d32b",
      "resource": {
        "resourceType": "Observation",
        "id": "53da71e0-67da-4b26-8be0-f371ac95d32b",
        "meta": {
          "profile": [
            "http://hl7.eu/fhir/laboratory/StructureDefinition/Observation-resultslab-eu-lab"
          ]
        },
        "performer": [
          {
            "display": "The Central European Lab"
          }
        ],
        "category": [
          {
            "coding": [
              {
                "system": "http://terminology.hl7.org/CodeSystem/observation-category",
                "code": "laboratory"
              }
            ]
          }
        ],
        "code": {
          "coding": [
            {
              "code": "49765-1",
              "system": "http://loinc.org",
              "display": "Calcium [Mass/volume] in Blood"
            }
          ],
          "text": "Calcium [Mass/volume] in Blood"
        },
        "valueQuantity": {
          "system": "http://unitsofmeasure.org",
          "value": 9.1,
          "unit": "mg/dL",
          "code": "mg/dL"
        },
        "referenceRange": [
          {
            "low": {
              "value": 8.5,
              "code": "mg/dL",
              "system": "http://unitsofmeasure.org"
            }
          },
          {
            "high": {
              "value": 10.5,
              "code": "mg/dL",
              "system": "http://unitsofmeasure.org"
            }
          }
        ],
        "text": {
          "status": "generated",
          "div": "<div xmlns=\"http://www.w3.org/1999/xhtml\"><table class=\"hl7__eu__lab__report\"><tr><th>Test</th><th>17-Nov-2015</th><th>Reference&#xA0;Range</th><th>Unit</th></tr><tr><td>Calcium [Mass/volume] in Blood</td><td>9.1</td><td>8.5 - 10.5</td><td></td><td>mg/dL</td></tr></table></div>"
        },
        "status": "final",
        "subject": {
          "reference": "urn:uuid:a3ffa6bc-93c6-4d4e-95db-06f021de2a4e",
          "display": "Aniela Sacharczuk"
        },
        "effectiveDateTime": "2015-11-17T05:26:59Z",
        "specimen": {
          "reference": "urn:uuid:d22316bd-7f5f-4394-9e37-3dc7e2446c28"
        }
      }
    },
    {
      "fullUrl": "urn:uuid:2eefdadf-2967-4b49-a7f6-614b229cae3a",
      "resource": {
        "resourceType": "Observation",
        "id": "2eefdadf-2967-4b49-a7f6-614b229cae3a",
        "meta": {
          "profile": [
            "http://hl7.eu/fhir/laboratory/StructureDefinition/Observation-resultslab-eu-lab"
          ]
        },
        "performer": [
          {
            "display": "The Central European Lab"
          }
        ],
        "category": [
          {
            "coding": [
              {
                "system": "http://terminology.hl7.org/CodeSystem/observation-category",
                "code": "laboratory"
              }
            ]
          }
        ],
        "code": {
          "coding": [
            {
              "code": "2947-0",
              "system": "http://loinc.org",
              "display": "Sodium [Moles/volume] in Blood"
            }
          ],
          "text": "Sodium [Moles/volume] in Blood"
        },
        "valueQuantity": {
          "system": "http://unitsofmeasure.org",
          "value": 143.9,
          "unit": "mmol/L",
          "code": "mmol/L"
        },
        "referenceRange": [
          {
            "low": {
              "value": 135,
              "code": "mmol/L",
              "system": "http://unitsofmeasure.org"
            }
          },
          {
            "high": {
              "value": 145,
              "code": "mmol/L",
              "system": "http://unitsofmeasure.org"
            }
          }
        ],
        "text": {
          "status": "generated",
          "div": "<div xmlns=\"http://www.w3.org/1999/xhtml\"><table class=\"hl7__eu__lab__report\"><tr><th>Test</th><th>17-Nov-2015</th><th>Reference&#xA0;Range</th><th>Unit</th></tr><tr><td>Sodium [Moles/volume] in Blood</td><td>143.9</td><td>135 - 145</td><td></td><td>mmol/L</td></tr></table></div>"
        },
        "status": "final",
        "subject": {
          "reference": "urn:uuid:a3ffa6bc-93c6-4d4e-95db-06f021de2a4e",
          "display": "Aniela Sacharczuk"
        },
        "effectiveDateTime": "2015-11-17T05:26:59Z",
        "specimen": {
          "reference": "urn:uuid:d22316bd-7f5f-4394-9e37-3dc7e2446c28"
        }
      }
    },
    {
      "fullUrl": "urn:uuid:303d94b7-ba84-42ad-a52e-2b94cbcf052e",
      "resource": {
        "resourceType": "Observation",
        "id": "303d94b7-ba84-42ad-a52e-2b94cbcf052e",
        "meta": {
          "profile": [
            "http://hl7.eu/fhir/laboratory/StructureDefinition/Observation-resultslab-eu-lab"
          ]
        },
        "performer": [
          {
            "display": "The Central European Lab"
          }
        ],
        "category": [
          {
            "coding": [
              {
                "system": "http://terminology.hl7.org/CodeSystem/observation-category",
                "code": "laboratory"
              }
            ]
          }
        ],
        "code": {
          "coding": [
            {
              "code": "6298-4",
              "system": "http://loinc.org",
              "display": "Potassium [Moles/volume] in Blood"
            }
          ],
          "text": "Potassium [Moles/volume] in Blood"
        },
        "valueQuantity": {
          "system": "http://unitsofmeasure.org",
          "value": 5.1,
          "unit": "mmol/L",
          "code": "mmol/L"
        },
        "referenceRange": [
          {
            "low": {
              "value": 3.5,
              "code": "mmol/L",
              "system": "http://unitsofmeasure.org"
            }
          },
          {
            "high": {
              "value": 5.3,
              "code": "mmol/L",
              "system": "http://unitsofmeasure.org"
            }
          }
        ],
        "text": {
          "status": "generated",
          "div": "<div xmlns=\"http://www.w3.org/1999/xhtml\"><table class=\"hl7__eu__lab__report\"><tr><th>Test</th><th>17-Nov-2015</th><th>Reference&#xA0;Range</th><th>Unit</th></tr><tr><td>Potassium [Moles/volume] in Blood</td><td>5.1</td><td>3.5 - 5.3</td><td></td><td>mmol/L</td></tr></table></div>"
        },
        "status": "final",
        "subject": {
          "reference": "urn:uuid:a3ffa6bc-93c6-4d4e-95db-06f021de2a4e",
          "display": "Aniela Sacharczuk"
        },
        "effectiveDateTime": "2015-11-17T05:26:59Z",
        "specimen": {
          "reference": "urn:uuid:d22316bd-7f5f-4394-9e37-3dc7e2446c28"
        }
      }
    },
    {
      "fullUrl": "urn:uuid:3c5c52b4-0dec-4d12-a53f-4ba061930336",
      "resource": {
        "resourceType": "Observation",
        "id": "3c5c52b4-0dec-4d12-a53f-4ba061930336",
        "meta": {
          "profile": [
            "http://hl7.eu/fhir/laboratory/StructureDefinition/Observation-resultslab-eu-lab"
          ]
        },
        "performer": [
          {
            "display": "The Central European Lab"
          }
        ],
        "category": [
          {
            "coding": [
              {
                "system": "http://terminology.hl7.org/CodeSystem/observation-category",
                "code": "laboratory"
              }
            ]
          }
        ],
        "code": {
          "coding": [
            {
              "code": "2069-3",
              "system": "http://loinc.org",
              "display": "Chloride [Moles/volume] in Blood"
            }
          ],
          "text": "Chloride [Moles/volume] in Blood"
        },
        "valueQuantity": {
          "system": "http://unitsofmeasure.org",
          "value": 110.9,
          "unit": "mmol/L",
          "code": "mmol/L"
        },
        "referenceRange": [
          {
            "low": {
              "value": 98,
              "code": "mmol/L",
              "system": "http://unitsofmeasure.org"
            }
          },
          {
            "high": {
              "value": 114,
              "code": "mmol/L",
              "system": "http://unitsofmeasure.org"
            }
          }
        ],
        "text": {
          "status": "generated",
          "div": "<div xmlns=\"http://www.w3.org/1999/xhtml\"><table class=\"hl7__eu__lab__report\"><tr><th>Test</th><th>17-Nov-2015</th><th>Reference&#xA0;Range</th><th>Unit</th></tr><tr><td>Chloride [Moles/volume] in Blood</td><td>110.9</td><td>98 - 114</td><td></td><td>mmol/L</td></tr></table></div>"
        },
        "status": "final",
        "subject": {
          "reference": "urn:uuid:a3ffa6bc-93c6-4d4e-95db-06f021de2a4e",
          "display": "Aniela Sacharczuk"
        },
        "effectiveDateTime": "2015-11-17T05:26:59Z",
        "specimen": {
          "reference": "urn:uuid:d22316bd-7f5f-4394-9e37-3dc7e2446c28"
        }
      }
    },
    {
      "fullUrl": "urn:uuid:81b853ad-ae97-494f-850b-742ed7fef158",
      "resource": {
        "resourceType": "Observation",
        "id": "81b853ad-ae97-494f-850b-742ed7fef158",
        "meta": {
          "profile": [
            "http://hl7.eu/fhir/laboratory/StructureDefinition/Observation-resultslab-eu-lab"
          ]
        },
        "performer": [
          {
            "display": "The Central European Lab"
          }
        ],
        "category": [
          {
            "coding": [
              {
                "system": "http://terminology.hl7.org/CodeSystem/observation-category",
                "code": "laboratory"
              }
            ]
          }
        ],
        "code": {
          "coding": [
            {
              "code": "20565-8",
              "system": "http://loinc.org",
              "display": "Carbon dioxide, total [Moles/volume] in Blood"
            }
          ],
          "text": "Carbon dioxide, total [Moles/volume] in Blood"
        },
        "valueQuantity": {
          "system": "http://unitsofmeasure.org",
          "value": 25,
          "unit": "mmol/L",
          "code": "mmol/L"
        },
        "referenceRange": [
          {
            "low": {
              "value": 22,
              "code": "mmol/L",
              "system": "http://unitsofmeasure.org"
            }
          },
          {
            "high": {
              "value": 29,
              "code": "mmol/L",
              "system": "http://unitsofmeasure.org"
            }
          }
        ],
        "text": {
          "status": "generated",
          "div": "<div xmlns=\"http://www.w3.org/1999/xhtml\"><table class=\"hl7__eu__lab__report\"><tr><th>Test</th><th>17-Nov-2015</th><th>Reference&#xA0;Range</th><th>Unit</th></tr><tr><td>Carbon dioxide, total [Moles/volume] in Blood</td><td>25.0</td><td>22 - 29</td><td></td><td>mmol/L</td></tr></table></div>"
        },
        "status": "final",
        "subject": {
          "reference": "urn:uuid:a3ffa6bc-93c6-4d4e-95db-06f021de2a4e",
          "display": "Aniela Sacharczuk"
        },
        "effectiveDateTime": "2015-11-17T05:26:59Z",
        "specimen": {
          "reference": "urn:uuid:d22316bd-7f5f-4394-9e37-3dc7e2446c28"
        }
      }
    },
    {
      "fullUrl": "urn:uuid:e8e56bbf-6a72-4740-b78b-eed8add2928d",
      "resource": {
        "resourceType": "Device",
        "id": "e8e56bbf-6a72-4740-b78b-eed8add2928d",
        "deviceName": [
          {
            "name": "SYNDERAI Synthetic Generator",
            "type": "manufacturer-name"
          }
        ],
        "version": [
          {
            "value": "5.0"
          }
        ],
        "text": {
          "status": "generated",
          "div": "<div xmlns=\"http://www.w3.org/1999/xhtml\">SYNDERAI Synthetic Generator v5.0</div>"
        },
        "status": "active\"",
        "distinctIdentifier": "synderai-generator-50",
        "manufacturer": "SYNDERAI Project"
      }
    },
    {
      "fullUrl": "urn:uuid:857d6412-c25a-4aea-9948-9dad646051c4",
      "resource": {
        "resourceType": "Provenance",
        "id": "857d6412-c25a-4aea-9948-9dad646051c4",
        "target": [
          {
            "reference": "Patient/a3ffa6bc-93c6-4d4e-95db-06f021de2a4e"
          },
          {
            "reference": "Bundle/b844549c-4cca-44be-9e6d-07fa04be074b"
          },
          {
            "reference": "Composition/37c420e2-bee6-4102-9fa2-71f197da9bf5"
          },
          {
            "reference": "PractitionerRole/289abe7a-da3a-415b-b446-cfc1984621b7"
          },
          {
            "reference": "Practitioner/47c646dd-e6c7-4182-8819-976fc90a9592"
          },
          {
            "reference": "PractitionerRole/1dcf17ad-3621-49ab-b2d6-c9f047fe8bbf"
          },
          {
            "reference": "Organization/a55c2d8b-8398-4c5f-b3a0-aecc3cda7e74"
          }
        ],
        "activity": {
          "text": "Synthetic Example Data Generation"
        },
        "policy": [
          "https://synderai.net/synderai-synthetic-data-policy"
        ],
        "agent": [
          {
            "type": {
              "text": "author"
            },
            "who": {
              "reference": "Device/e8e56bbf-6a72-4740-b78b-eed8add2928d"
            }
          }
        ],
        "reason": [
          {
            "text": "Interoperability Testing and Training (non-clinical use)"
          }
        ],
        "text": {
          "status": "generated",
          "div": "<div xmlns=\"http://www.w3.org/1999/xhtml\">Provenance for SYNDERAI Synthetic Example Data Resource</div>"
        },
        "recorded": "2015-11-17T06:26:59Z"
      }
    },
    {
      "fullUrl": "urn:uuid:289abe7a-da3a-415b-b446-cfc1984621b7",
      "resource": {
        "resourceType": "PractitionerRole",
        "id": "289abe7a-da3a-415b-b446-cfc1984621b7",
        "meta": {
          "profile": [
            "http://hl7.eu/fhir/base/StructureDefinition/practitionerRole-eu"
          ]
        },
        "text": {
          "status": "generated",
          "div": "<div xmlns=\"http://www.w3.org/1999/xhtml\">Laboratory Role Id: 289abe7a-da3a-415b-b446-cfc1984621b7</div>"
        },
        "practitioner": {
          "reference": "urn:uuid:47c646dd-e6c7-4182-8819-976fc90a9592"
        }
      }
    },
    {
      "fullUrl": "urn:uuid:47c646dd-e6c7-4182-8819-976fc90a9592",
      "resource": {
        "resourceType": "Practitioner",
        "id": "47c646dd-e6c7-4182-8819-976fc90a9592",
        "meta": {
          "profile": [
            "http://hl7.eu/fhir/base/StructureDefinition/practitioner-eu"
          ]
        },
        "identifier": [
          {
            "assigner": {
              "display": "HL7 Europe"
            },
            "system": "urn:oid:2.16.840.1.113883.2.51.999",
            "value": "8ea9fa28-1fcf-46dc-857b-7af2a2c2d7d0"
          }
        ],
        "name": [
          {
            "prefix": [
              "dr"
            ],
            "given": [
              "Ex"
            ],
            "family": "Ample"
          }
        ],
        "address": [
          {
            "line": [
              "Laboratoire Central Européenne",
              "Boulevard du Jardin Botanique 32"
            ],
            "postalCode": "1000",
            "city": "Brussels",
            "country": "Belgium"
          }
        ],
        "text": {
          "status": "generated",
          "div": "<div xmlns=\"http://www.w3.org/1999/xhtml\">Laboratory: Laboratoire Central Européenne, 1000 Brussels, Belgium</div>"
        }
      }
    }
  ],
  "type": "document",
  "timestamp": "2015-11-17T06:26:59Z"
}
