{
  "resourceType": "Bundle",
  "id": "313da934-2412-478a-9409-98f7513f2163",
  "meta": {
    "profile": [
      "http://hl7.eu/fhir/laboratory/StructureDefinition/Bundle-eu-lab"
    ]
  },
  "identifier": {
    "assigner": {
      "display": "HL7 Europe"
    },
    "system": "urn:oid:2.16.840.1.113883.2.51.999",
    "value": "f64e876e-7ef6-484c-a29b-2be00cc600f0"
  },
  "entry": [
    {
      "fullUrl": "urn:uuid:916f85f8-4d1c-4536-830c-c5c2c3b1067f",
      "resource": {
        "resourceType": "Composition",
        "id": "916f85f8-4d1c-4536-830c-c5c2c3b1067f",
        "meta": {
          "profile": [
            "http://hl7.eu/fhir/laboratory/StructureDefinition/Composition-eu-lab"
          ]
        },
        "identifier": {
          "assigner": {
            "display": "HL7 Europe"
          },
          "system": "urn:oid:2.16.840.1.113883.2.51.999",
          "value": "1e9313e5-b9af-4efe-8210-439c9eb08b16"
        },
        "author": [
          {
            "reference": "urn:uuid:d82dea4d-a873-4785-bd0b-4c190daab810"
          }
        ],
        "category": [
          {
            "coding": [
              {
                "code": "26436-6",
                "system": "http://loinc.org",
                "display": "Laboratory studies (set)"
              }
            ]
          }
        ],
        "type": {
          "coding": [
            {
              "code": "11502-2",
              "system": "http://loinc.org",
              "display": "Laboratory report"
            }
          ],
          "text": "Laboratory Report"
        },
        "section": [
          {
            "code": {
              "coding": [
                {
                  "code": "26436-6",
                  "system": "http://loinc.org",
                  "display": "Laboratory studies (set)"
                }
              ],
              "text": "Laboratory studies"
            },
            "section": [
              {
                "code": {
                  "coding": [
                    {
                      "code": "$18719-5",
                      "system": "http://loinc.org",
                      "display": "Chemistry studies (set)"
                    }
                  ],
                  "text": "Chemistry"
                },
                "entry": [
                  {
                    "reference": "urn:uuid:89c0505d-2e51-41a0-bbc9-511367dbe0da"
                  },
                  {
                    "reference": "urn:uuid:a0156fec-b1b6-446f-8941-f1cdffa6e552"
                  },
                  {
                    "reference": "urn:uuid:1f6355d6-8203-4b96-97ce-c202442035dc"
                  },
                  {
                    "reference": "urn:uuid:a6d4f6d4-07be-4a82-a380-7f89b8ccdb41"
                  },
                  {
                    "reference": "urn:uuid:2df62516-b8fa-42ea-acfb-2fde6a5269a6"
                  },
                  {
                    "reference": "urn:uuid:20e87278-7b11-46db-8e9a-223717258f32"
                  },
                  {
                    "reference": "urn:uuid:5930e258-f087-4898-9ceb-9c031be944b0"
                  },
                  {
                    "reference": "urn:uuid:4bed69f7-79a0-426b-bcb3-cdc61b6aa662"
                  },
                  {
                    "reference": "urn:uuid:05b63cb2-439f-464e-8497-9c915a36d1db"
                  },
                  {
                    "reference": "urn:uuid:11caf742-fcc3-4ad1-bdfa-7b0a7ba0b1c1"
                  },
                  {
                    "reference": "urn:uuid:49dc4085-3f9c-4a63-83af-7c3928bceee9"
                  },
                  {
                    "reference": "urn:uuid:15323f82-60fa-4aae-9e67-4caad9e6533e"
                  },
                  {
                    "reference": "urn:uuid:013cf329-5058-4887-94dc-e4d3fc3608a5"
                  },
                  {
                    "reference": "urn:uuid:ee7735f2-112e-4163-970c-8942980bb2c3"
                  },
                  {
                    "reference": "urn:uuid:6370d285-d8be-43dd-937a-a7fb04c82a12"
                  },
                  {
                    "reference": "urn:uuid:73a3c623-16c4-469d-9a39-1a45519c80b0"
                  },
                  {
                    "reference": "urn:uuid:58f1c530-2335-457e-94dd-1ca359826312"
                  },
                  {
                    "reference": "urn:uuid:09350bd8-9eee-4816-bdde-d985a783a51a"
                  }
                ],
                "text": {
                  "status": "generated",
                  "div": "<div xmlns=\"http://www.w3.org/1999/xhtml\"><h3>Chemistry</h3><table class=\"hl7__eu__lab__report\"><thead><tr><th>Test</th><th>05-APR-2024</th><th>Reference&#xA0;Range</th><th>Unit</th></tr></thead><tbody><tr><td>Glucose [Mass/volume] in Serum or Plasma</td><td>71.7</td><td>70 - 140</td><td>mg/dL</td></tr><tr><td>Urea nitrogen [Mass/volume] in Serum or Plasma</td><td>16.9</td><td>7 - 20</td><td>mg/dL</td></tr><tr><td>Creatinine [Mass/volume] in Serum or Plasma</td><td><strong>2.0 H</strong></td><td>0.9 - 1.3</td><td>mg/dL</td></tr><tr><td>Calcium [Mass/volume] in Serum or Plasma</td><td>10.1</td><td>8.5 - 10.5</td><td>mg/dL</td></tr><tr><td>Sodium [Moles/volume] in Serum or Plasma</td><td>136.0</td><td>135 - 145</td><td>mmol/L</td></tr><tr><td>Potassium [Moles/volume] in Serum or Plasma</td><td>4.0</td><td>3.5 - 5.3</td><td>mmol/L</td></tr><tr><td>Chloride [Moles/volume] in Serum or Plasma</td><td><strong>107.1 H</strong></td><td>98 - 107</td><td>mmol/L</td></tr><tr><td>Carbon dioxide, total [Moles/volume] in Serum or Plasma</td><td>25.8</td><td>22 - 33</td><td>mmol/L</td></tr><tr><td>Ketones [Presence] in Urine by Test strip</td><td>Urine ketone test = ++</td><td></td><td></td></tr><tr><td>Hemoglobin A1c/Hemoglobin.total in Blood</td><td><strong>3.3 L</strong></td><td>4.3 - 6</td><td>%</td></tr><tr><td>Glucose [Mass/volume] in Blood</td><td>71.7</td><td>70 - 140</td><td>mg/dL</td></tr><tr><td>Urea nitrogen [Mass/volume] in Blood</td><td>16.9</td><td>7 - 20</td><td>mg/dL</td></tr><tr><td>Creatinine [Mass/volume] in Blood</td><td><strong>3.9 H</strong></td><td>0.9 - 1.3</td><td>mg/dL</td></tr><tr><td>Calcium [Mass/volume] in Blood</td><td>10.1</td><td>8.5 - 10.5</td><td>mg/dL</td></tr><tr><td>Sodium [Moles/volume] in Blood</td><td>136.0</td><td>135 - 145</td><td>mmol/L</td></tr><tr><td>Potassium [Moles/volume] in Blood</td><td>4.0</td><td>3.5 - 5.1</td><td>mmol/L</td></tr><tr><td>Chloride [Moles/volume] in Blood</td><td>107.1</td><td>98 - 108</td><td>mmol/L</td></tr><tr><td>Carbon dioxide, total [Moles/volume] in Blood</td><td>25.8</td><td>22 - 29</td><td>mmol/L</td></tr></tbody></table></div>"
                },
                "title": "Chemistry"
              },
              {
                "code": {
                  "coding": [
                    {
                      "code": "$18729-4",
                      "system": "http://loinc.org",
                      "display": "Urinalysis studies (set)"
                    }
                  ],
                  "text": "Urinalysis"
                },
                "entry": [
                  {
                    "reference": "urn:uuid:9773299f-c3b1-45e1-a224-58a7b217cbf0"
                  },
                  {
                    "reference": "urn:uuid:4acc6bff-b0a2-4ef3-bc31-5ec8b4da3042"
                  },
                  {
                    "reference": "urn:uuid:9f549296-a68f-425c-a985-bf3a165fa2a5"
                  },
                  {
                    "reference": "urn:uuid:054d9668-6f2b-4624-9651-3748a2507a18"
                  },
                  {
                    "reference": "urn:uuid:e724e714-749d-46ec-b0c4-16e103ef70d1"
                  },
                  {
                    "reference": "urn:uuid:92e4645f-81e8-4d23-873a-a0119868142a"
                  },
                  {
                    "reference": "urn:uuid:e1d3bd1f-a7e7-4c85-beb2-079072647050"
                  },
                  {
                    "reference": "urn:uuid:29c522f8-19ab-415b-ae66-6a7b4da96d3a"
                  },
                  {
                    "reference": "urn:uuid:ebcc4aa2-68f6-4a31-a290-a313198f2c93"
                  },
                  {
                    "reference": "urn:uuid:4317bdb0-2e94-466c-ad8c-8f4281476257"
                  },
                  {
                    "reference": "urn:uuid:5b9c3898-d0ce-4ae3-8653-21c75e3b1209"
                  },
                  {
                    "reference": "urn:uuid:90975379-f794-4f7e-a3b4-f3fcae67ac01"
                  }
                ],
                "text": {
                  "status": "generated",
                  "div": "<div xmlns=\"http://www.w3.org/1999/xhtml\"><h3>Urinalysis</h3><table class=\"hl7__eu__lab__report\"><thead><tr><th>Test</th><th>05-APR-2024</th><th>Reference&#xA0;Range</th><th>Unit</th></tr></thead><tbody><tr><td>Glucose [Mass/volume] in Urine by Test strip</td><td><strong>1.5 H</strong></td><td>0 - 0.8</td><td>mg/dL</td></tr><tr><td>Glucose [Presence] in Urine by Test strip</td><td>++</td><td></td><td></td></tr><tr><td>Bilirubin.total [Mass/volume] in Urine by Test strip</td><td>0.6</td><td>0 - 1.9</td><td>mg/dL</td></tr><tr><td>Bilirubin.total [Presence] in Urine by Test strip</td><td>Finding of bilirubin in urine</td><td></td><td></td></tr><tr><td>Ketones [Mass/volume] in Urine by Test strip</td><td>2.2</td><td>0 - 3</td><td>mg/dL</td></tr><tr><td>Specific gravity of Urine by Test strip</td><td><strong>1.0 L</strong></td><td>1.01 - 1.03</td><td>{nominal}</td></tr><tr><td>pH of Urine by Test strip</td><td>5.0</td><td>4.5 - 7.5</td><td>pH</td></tr><tr><td>Protein [Mass/volume] in Urine by Test strip</td><td><strong>390.6 H</strong></td><td>0 - 149</td><td>mg/dL</td></tr><tr><td>Protein [Presence] in Urine by Test strip</td><td>Urine protein test = ++</td><td></td><td></td></tr><tr><td>Nitrite [Presence] in Urine by Test strip</td><td>Urine nitrite negative</td><td></td><td></td></tr><tr><td>Hemoglobin [Presence] in Urine by Test strip</td><td>Urine blood test = negative</td><td></td><td></td></tr><tr><td>Leukocyte esterase [Presence] in Urine by Test strip</td><td>Urine leukocyte test negative</td><td></td><td></td></tr></tbody></table></div>"
                },
                "title": "Urinalysis"
              },
              {
                "code": {
                  "coding": [
                    {
                      "code": "$LP7846-1",
                      "system": "http://loinc.org",
                      "display": "Specimen information"
                    }
                  ],
                  "text": "Specimen information"
                },
                "entry": [
                  {
                    "reference": "urn:uuid:39e98cd0-8eff-472a-a187-2dab3903e380"
                  },
                  {
                    "reference": "urn:uuid:1f7eb2a4-2930-4642-88a4-563e21664647"
                  },
                  {
                    "reference": "urn:uuid:2d954a9c-e688-4c92-9cde-959b2f365dc9"
                  },
                  {
                    "reference": "urn:uuid:dac2bd0b-b733-4f3b-bcbb-04aa3525b7ae"
                  }
                ],
                "text": {
                  "status": "generated",
                  "div": "<div xmlns=\"http://www.w3.org/1999/xhtml\"><h3>Specimen information</h3><table class=\"hl7__eu__lab__report\"><thead><tr><th>Test</th><th>05-APR-2024</th><th>Specimen</th><th></th></tr></thead><tbody><tr><td>Appearance of Urine</td><td>Cloudy urine</td><td>Urine</td><td></td></tr><tr><td>Odor of Urine</td><td>Urine smell ammoniacal</td><td>Urine</td><td></td></tr><tr><td>Clarity of Urine</td><td>Translucent</td><td>Urine</td><td></td></tr><tr><td>Color of Urine</td><td>Brown color</td><td>Urine</td><td></td></tr></tbody></table></div>"
                },
                "title": "Specimen information"
              }
            ],
            "title": "Laboratory Report"
          },
          {
            "text": {
              "status": "generated",
              "div": "<div xmlns=\"http://www.w3.org/1999/xhtml\"><h3>Annotation</h3><table class=\"hl7__eu__lab__report\"><tr><th>Conclusion and Recommendations based on this report and previous findings known to us</th></tr><tr><td>The patient shows elevated creatinine, suggesting impaired renal function, and significant proteinuria, indicating possible nephropathy. Urine is abnormal in appearance, color, and specific gravity, supporting renal involvement. Low HbA1c and normoglycemia may reflect recent changes in glucose metabolism or possible malnutrition. No evidence of urinary tract infection. Recommend further nephrological evaluation and assessment for underlying causes of renal impairment.</td></tr></table></div>"
            },
            "code": {
              "coding": [
                {
                  "system": "http://loinc.org",
                  "code": "48767-8",
                  "display": "Annotation comment"
                }
              ]
            },
            "title": "Annotation comment"
          }
        ],
        "status": "final",
        "subject": {
          "reference": "urn:uuid:4163cb00-379e-4d79-a74d-f9afa41c7919",
          "display": "Victor Lagarde"
        },
        "date": "2024-04-05T06:48:18Z",
        "title": "Laboratory Report",
        "confidentiality": "N"
      }
    },
    {
      "fullUrl": "urn:uuid:22a8f55d-7b11-4e6f-bd00-aa7bfab83226",
      "resource": {
        "resourceType": "DiagnosticReport",
        "id": "22a8f55d-7b11-4e6f-bd00-aa7bfab83226",
        "meta": {
          "profile": [
            "http://hl7.eu/fhir/laboratory/StructureDefinition/DiagnosticReport-eu-lab"
          ]
        },
        "identifier": [
          {
            "assigner": {
              "display": "HL7 Europe"
            },
            "system": "urn:oid:2.16.840.1.113883.2.51.999",
            "value": "01f64bce-b9c0-46a4-9edb-41b20b688f99"
          }
        ],
        "extension": [
          {
            "url": "http://hl7.org/fhir/5.0/StructureDefinition/extension-DiagnosticReport.composition",
            "valueReference": {
              "reference": "urn:uuid:1e9313e5-b9af-4efe-8210-439c9eb08b16"
            }
          }
        ],
        "category": [
          {
            "coding": [
              {
                "code": "26436-6",
                "system": "http://loinc.org",
                "display": "Laboratory studies (set)"
              }
            ]
          }
        ],
        "specimen": [
          {
            "reference": "urn:uuid:25d7297b-cdb7-45ae-a50c-4405be29667f"
          },
          {
            "reference": "urn:uuid:2cee96e2-e774-4127-ace2-23fe4156c44e"
          },
          {
            "reference": "urn:uuid:149e61e6-8b1f-49b5-b40d-6624539d9e27"
          }
        ],
        "result": [
          {
            "reference": "urn:uuid:89c0505d-2e51-41a0-bbc9-511367dbe0da"
          },
          {
            "reference": "urn:uuid:a0156fec-b1b6-446f-8941-f1cdffa6e552"
          },
          {
            "reference": "urn:uuid:1f6355d6-8203-4b96-97ce-c202442035dc"
          },
          {
            "reference": "urn:uuid:a6d4f6d4-07be-4a82-a380-7f89b8ccdb41"
          },
          {
            "reference": "urn:uuid:2df62516-b8fa-42ea-acfb-2fde6a5269a6"
          },
          {
            "reference": "urn:uuid:20e87278-7b11-46db-8e9a-223717258f32"
          },
          {
            "reference": "urn:uuid:5930e258-f087-4898-9ceb-9c031be944b0"
          },
          {
            "reference": "urn:uuid:4bed69f7-79a0-426b-bcb3-cdc61b6aa662"
          },
          {
            "reference": "urn:uuid:39e98cd0-8eff-472a-a187-2dab3903e380"
          },
          {
            "reference": "urn:uuid:1f7eb2a4-2930-4642-88a4-563e21664647"
          },
          {
            "reference": "urn:uuid:2d954a9c-e688-4c92-9cde-959b2f365dc9"
          },
          {
            "reference": "urn:uuid:dac2bd0b-b733-4f3b-bcbb-04aa3525b7ae"
          },
          {
            "reference": "urn:uuid:9773299f-c3b1-45e1-a224-58a7b217cbf0"
          },
          {
            "reference": "urn:uuid:4acc6bff-b0a2-4ef3-bc31-5ec8b4da3042"
          },
          {
            "reference": "urn:uuid:9f549296-a68f-425c-a985-bf3a165fa2a5"
          },
          {
            "reference": "urn:uuid:054d9668-6f2b-4624-9651-3748a2507a18"
          },
          {
            "reference": "urn:uuid:e724e714-749d-46ec-b0c4-16e103ef70d1"
          },
          {
            "reference": "urn:uuid:05b63cb2-439f-464e-8497-9c915a36d1db"
          },
          {
            "reference": "urn:uuid:92e4645f-81e8-4d23-873a-a0119868142a"
          },
          {
            "reference": "urn:uuid:e1d3bd1f-a7e7-4c85-beb2-079072647050"
          },
          {
            "reference": "urn:uuid:29c522f8-19ab-415b-ae66-6a7b4da96d3a"
          },
          {
            "reference": "urn:uuid:ebcc4aa2-68f6-4a31-a290-a313198f2c93"
          },
          {
            "reference": "urn:uuid:4317bdb0-2e94-466c-ad8c-8f4281476257"
          },
          {
            "reference": "urn:uuid:5b9c3898-d0ce-4ae3-8653-21c75e3b1209"
          },
          {
            "reference": "urn:uuid:90975379-f794-4f7e-a3b4-f3fcae67ac01"
          },
          {
            "reference": "urn:uuid:11caf742-fcc3-4ad1-bdfa-7b0a7ba0b1c1"
          },
          {
            "reference": "urn:uuid:49dc4085-3f9c-4a63-83af-7c3928bceee9"
          },
          {
            "reference": "urn:uuid:15323f82-60fa-4aae-9e67-4caad9e6533e"
          },
          {
            "reference": "urn:uuid:013cf329-5058-4887-94dc-e4d3fc3608a5"
          },
          {
            "reference": "urn:uuid:ee7735f2-112e-4163-970c-8942980bb2c3"
          },
          {
            "reference": "urn:uuid:6370d285-d8be-43dd-937a-a7fb04c82a12"
          },
          {
            "reference": "urn:uuid:73a3c623-16c4-469d-9a39-1a45519c80b0"
          },
          {
            "reference": "urn:uuid:58f1c530-2335-457e-94dd-1ca359826312"
          },
          {
            "reference": "urn:uuid:09350bd8-9eee-4816-bdde-d985a783a51a"
          }
        ],
        "status": "registered",
        "code": {
          "coding": [
            {
              "code": "11502-2",
              "system": "http://loinc.org",
              "display": "Laboratory report"
            }
          ]
        },
        "subject": {
          "reference": "urn:uuid:4163cb00-379e-4d79-a74d-f9afa41c7919",
          "display": "Victor Lagarde"
        }
      }
    },
    {
      "fullUrl": "urn:uuid:4163cb00-379e-4d79-a74d-f9afa41c7919",
      "resource": {
        "resourceType": "Patient",
        "id": "4163cb00-379e-4d79-a74d-f9afa41c7919",
        "meta": {
          "security": [
            {
              "system": "http://terminology.hl7.org/CodeSystem/v3-ActReason",
              "code": "HTEST"
            },
            {
              "system": "http://terminology.hl7.org/CodeSystem/v3-ActReason",
              "code": "TRAIN"
            }
          ],
          "tag": [
            {
              "system": "https://synderai.net/fhir/CodeSystem/tags",
              "code": "synthetic",
              "display": "SYNDERAI Synthetic data"
            }
          ],
          "profile": [
            "http://hl7.eu/fhir/base/StructureDefinition/patient-eu-core"
          ]
        },
        "identifier": [
          {
            "type": {
              "coding": [
                {
                  "code": "PT",
                  "system": "http://terminology.hl7.org/CodeSystem/v2-0203"
                }
              ]
            },
            "system": "http://ec.europa.eu/identifier/eci",
            "value": "9925-001801-9"
          },
          {
            "type": {
              "coding": [
                {
                  "code": "MR",
                  "system": "http://terminology.hl7.org/CodeSystem/v2-0203"
                }
              ]
            },
            "system": "http://local.setting.eu/identifier",
            "value": "22c2dfd0-ac57-8833-2532-848f180896a4"
          }
        ],
        "name": [
          {
            "family": "Lagarde"
          },
          {
            "given": [
              "Victor"
            ]
          },
          {
            "text": "Victor Lagarde"
          }
        ],
        "address": [
          {
            "line": [
              "avenue Robert"
            ],
            "use": "home",
            "type": "physical",
            "postalCode": "80300",
            "city": "Albert",
            "country": "France"
          }
        ],
        "telecom": [
          {
            "system": "phone",
            "value": "0177941801"
          }
        ],
        "extension": [
          {
            "url": "http://hl7.org/fhir/StructureDefinition/patient-nationality",
            "valueCodeableConcept": {
              "coding": [
                {
                  "code": "FR",
                  "system": "http://hl7.org/fhir/ValueSet/country"
                }
              ]
            }
          }
        ],
        "text": {
          "status": "generated",
          "div": "<div xmlns=\"http://www.w3.org/1999/xhtml\"><table class=\"hl7__ips\"><tr><td>Victor Lagarde</td><td>male</td><td>31-Aug-1939</td></tr></table></div>"
        },
        "gender": "male",
        "birthDate": "1939-08-31"
      }
    },
    {
      "fullUrl": "urn:uuid:3d2679c1-47ce-441d-834c-884b1dd14d54",
      "resource": {
        "resourceType": "ServiceRequest",
        "id": "3d2679c1-47ce-441d-834c-884b1dd14d54",
        "meta": {
          "profile": [
            "http://hl7.eu/fhir/laboratory/StructureDefinition/ServiceRequest-eu-lab"
          ]
        },
        "identifier": [
          {
            "system": "http://example.org",
            "value": "c431eaa2-2225-4306-9e71-2c22d5249d1f"
          }
        ],
        "specimen": [
          {
            "reference": "urn:uuid:25d7297b-cdb7-45ae-a50c-4405be29667f"
          },
          {
            "reference": "urn:uuid:2cee96e2-e774-4127-ace2-23fe4156c44e"
          },
          {
            "reference": "urn:uuid:149e61e6-8b1f-49b5-b40d-6624539d9e27"
          }
        ],
        "reasonCode": [
          {
            "coding": [
              {
                "code": "433144002",
                "system": "http://snomed.info/sct",
                "display": "Chronic kidney disease stage 3"
              }
            ]
          },
          {
            "coding": [
              {
                "code": "157141000119108",
                "system": "http://snomed.info/sct",
                "display": "Proteinuria due to type 2 diabetes mellitus"
              }
            ]
          },
          {
            "coding": [
              {
                "code": "431856006",
                "system": "http://snomed.info/sct",
                "display": "Chronic kidney disease stage 2"
              }
            ]
          },
          {
            "coding": [
              {
                "code": "90781000119102",
                "system": "http://snomed.info/sct",
                "display": "Microalbuminuria due to type 2 diabetes mellitus"
              }
            ]
          },
          {
            "coding": [
              {
                "code": "127013003",
                "system": "http://snomed.info/sct",
                "display": "Disorder of kidney due to diabetes mellitus"
              }
            ]
          },
          {
            "coding": [
              {
                "code": "431855005",
                "system": "http://snomed.info/sct",
                "display": "Chronic kidney disease stage 1"
              }
            ]
          },
          {
            "coding": [
              {
                "code": "55822004",
                "system": "http://snomed.info/sct",
                "display": "Hyperlipidemia"
              }
            ]
          },
          {
            "coding": [
              {
                "code": "59621000",
                "system": "http://snomed.info/sct",
                "display": "Essential hypertension"
              }
            ]
          },
          {
            "coding": [
              {
                "code": "237602007",
                "system": "http://snomed.info/sct",
                "display": "Metabolic syndrome X"
              }
            ]
          },
          {
            "coding": [
              {
                "code": "414545008",
                "system": "http://snomed.info/sct",
                "display": "Ischemic heart disease"
              }
            ]
          },
          {
            "coding": [
              {
                "code": "40055000",
                "system": "http://snomed.info/sct",
                "display": "Chronic sinusitis"
              }
            ]
          },
          {
            "coding": [
              {
                "code": "15777000",
                "system": "http://snomed.info/sct",
                "display": "Prediabetes"
              }
            ]
          },
          {
            "coding": [
              {
                "code": "271737000",
                "system": "http://snomed.info/sct",
                "display": "Anemia"
              }
            ]
          }
        ],
        "status": "active",
        "intent": "order",
        "code": {
          "coding": [
            {
              "code": "108252007",
              "system": "http://snomed.info/sct",
              "display": "Laboratory procedure"
            }
          ]
        },
        "subject": {
          "reference": "urn:uuid:4163cb00-379e-4d79-a74d-f9afa41c7919",
          "display": "Victor Lagarde"
        },
        "requester": {
          "reference": "urn:uuid:563f5f70-4355-4b44-b116-d8efe016684f"
        }
      }
    },
    {
      "fullUrl": "urn:uuid:563f5f70-4355-4b44-b116-d8efe016684f",
      "resource": {
        "resourceType": "PractitionerRole",
        "id": "563f5f70-4355-4b44-b116-d8efe016684f",
        "meta": {
          "profile": [
            "http://hl7.eu/fhir/base/StructureDefinition/practitionerRole-eu"
          ]
        },
        "text": {
          "status": "generated",
          "div": "<div xmlns=\"http://www.w3.org/1999/xhtml\">Provider Role Id: 563f5f70-4355-4b44-b116-d8efe016684f</div>"
        },
        "organization": {
          "reference": "urn:uuid:27863125-8205-47da-89b3-056267f96f30"
        }
      }
    },
    {
      "fullUrl": "urn:uuid:27863125-8205-47da-89b3-056267f96f30",
      "resource": {
        "resourceType": "Organization",
        "id": "27863125-8205-47da-89b3-056267f96f30",
        "meta": {
          "profile": [
            "http://hl7.eu/fhir/base/StructureDefinition/organization-eu"
          ]
        },
        "identifier": [
          {
            "assigner": {
              "display": "HL7 Europe"
            },
            "system": "urn:oid:2.16.840.1.113883.2.51.999",
            "value": "9f8ed523-21ab-4fa6-aa56-2d1e7be7abed"
          }
        ],
        "address": [
          {
            "city": "Auxerre",
            "postalCode": "89000",
            "country": "France"
          }
        ],
        "text": {
          "status": "generated",
          "div": "<div xmlns=\"http://www.w3.org/1999/xhtml\">Provider Organization: Thiriot Didier (Cardiologie)</div>"
        },
        "name": "Thiriot Didier (Cardiologie)"
      }
    },
    {
      "fullUrl": "urn:uuid:25d7297b-cdb7-45ae-a50c-4405be29667f",
      "resource": {
        "resourceType": "Specimen",
        "id": "25d7297b-cdb7-45ae-a50c-4405be29667f",
        "meta": {
          "profile": [
            "http://hl7.eu/fhir/laboratory/StructureDefinition/Specimen-eu-lab"
          ]
        },
        "collection": {
          "collectedDateTime": "2024-04-05"
        },
        "text": {
          "status": "generated",
          "div": "<div xmlns=\"http://www.w3.org/1999/xhtml\"><table class=\"hl7__eu__lab__report\"><tr><th>Specimen</th><th>Collection Date</th></tr><tr><td>Acellular blood (serum or plasma) specimen</td><td><span class=\"nb\">05-Apr-2024</span></td></tr></table></div>"
        },
        "type": {
          "coding": [
            {
              "code": "122592007",
              "system": "http://snomed.info/sct",
              "display": "Acellular blood (serum or plasma) specimen"
            }
          ]
        }
      }
    },
    {
      "fullUrl": "urn:uuid:2cee96e2-e774-4127-ace2-23fe4156c44e",
      "resource": {
        "resourceType": "Specimen",
        "id": "2cee96e2-e774-4127-ace2-23fe4156c44e",
        "meta": {
          "profile": [
            "http://hl7.eu/fhir/laboratory/StructureDefinition/Specimen-eu-lab"
          ]
        },
        "collection": {
          "collectedDateTime": "2024-04-05"
        },
        "text": {
          "status": "generated",
          "div": "<div xmlns=\"http://www.w3.org/1999/xhtml\"><table class=\"hl7__eu__lab__report\"><tr><th>Specimen</th><th>Collection Date</th></tr><tr><td>Urine specimen</td><td><span class=\"nb\">05-Apr-2024</span></td></tr></table></div>"
        },
        "type": {
          "coding": [
            {
              "code": "122575003",
              "system": "http://snomed.info/sct",
              "display": "Urine specimen"
            }
          ]
        }
      }
    },
    {
      "fullUrl": "urn:uuid:149e61e6-8b1f-49b5-b40d-6624539d9e27",
      "resource": {
        "resourceType": "Specimen",
        "id": "149e61e6-8b1f-49b5-b40d-6624539d9e27",
        "meta": {
          "profile": [
            "http://hl7.eu/fhir/laboratory/StructureDefinition/Specimen-eu-lab"
          ]
        },
        "collection": {
          "collectedDateTime": "2024-04-05"
        },
        "text": {
          "status": "generated",
          "div": "<div xmlns=\"http://www.w3.org/1999/xhtml\"><table class=\"hl7__eu__lab__report\"><tr><th>Specimen</th><th>Collection Date</th></tr><tr><td>Whole blood specimen (specimen)</td><td><span class=\"nb\">05-Apr-2024</span></td></tr></table></div>"
        },
        "type": {
          "coding": [
            {
              "code": "258580003",
              "system": "http://snomed.info/sct",
              "display": "Whole blood specimen (specimen)"
            }
          ]
        }
      }
    },
    {
      "fullUrl": "urn:uuid:89c0505d-2e51-41a0-bbc9-511367dbe0da",
      "resource": {
        "resourceType": "Observation",
        "id": "89c0505d-2e51-41a0-bbc9-511367dbe0da",
        "meta": {
          "profile": [
            "http://hl7.eu/fhir/laboratory/StructureDefinition/Observation-resultslab-eu-lab"
          ]
        },
        "performer": [
          {
            "display": "The Central European Lab"
          }
        ],
        "category": [
          {
            "coding": [
              {
                "system": "http://terminology.hl7.org/CodeSystem/observation-category",
                "code": "laboratory"
              }
            ]
          }
        ],
        "code": {
          "coding": [
            {
              "code": "2345-7",
              "system": "http://loinc.org",
              "display": "Glucose [Mass/volume] in Serum or Plasma"
            }
          ],
          "text": "Glucose [Mass/volume] in Serum or Plasma"
        },
        "valueQuantity": {
          "system": "http://unitsofmeasure.org",
          "value": 71.7,
          "unit": "mg/dL",
          "code": "mg/dL"
        },
        "referenceRange": [
          {
            "low": {
              "value": 70,
              "code": "mg/dL",
              "system": "http://unitsofmeasure.org"
            }
          },
          {
            "high": {
              "value": 140,
              "code": "mg/dL",
              "system": "http://unitsofmeasure.org"
            }
          }
        ],
        "text": {
          "status": "generated",
          "div": "<div xmlns=\"http://www.w3.org/1999/xhtml\"><table class=\"hl7__eu__lab__report\"><tr><th>Test</th><th>05-Apr-2024</th><th>Reference&#xA0;Range</th><th>Unit</th></tr><tr><td>Glucose [Mass/volume] in Serum or Plasma</td><td>71.7</td><td>70 - 140</td><td></td><td>mg/dL</td></tr></table></div>"
        },
        "status": "final",
        "subject": {
          "reference": "urn:uuid:4163cb00-379e-4d79-a74d-f9afa41c7919",
          "display": "Victor Lagarde"
        },
        "effectiveDateTime": "2024-04-05T04:48:18Z",
        "specimen": {
          "reference": "urn:uuid:25d7297b-cdb7-45ae-a50c-4405be29667f"
        }
      }
    },
    {
      "fullUrl": "urn:uuid:a0156fec-b1b6-446f-8941-f1cdffa6e552",
      "resource": {
        "resourceType": "Observation",
        "id": "a0156fec-b1b6-446f-8941-f1cdffa6e552",
        "meta": {
          "profile": [
            "http://hl7.eu/fhir/laboratory/StructureDefinition/Observation-resultslab-eu-lab"
          ]
        },
        "performer": [
          {
            "display": "The Central European Lab"
          }
        ],
        "category": [
          {
            "coding": [
              {
                "system": "http://terminology.hl7.org/CodeSystem/observation-category",
                "code": "laboratory"
              }
            ]
          }
        ],
        "code": {
          "coding": [
            {
              "code": "3094-0",
              "system": "http://loinc.org",
              "display": "Urea nitrogen [Mass/volume] in Serum or Plasma"
            }
          ],
          "text": "Urea nitrogen [Mass/volume] in Serum or Plasma"
        },
        "valueQuantity": {
          "system": "http://unitsofmeasure.org",
          "value": 16.9,
          "unit": "mg/dL",
          "code": "mg/dL"
        },
        "referenceRange": [
          {
            "low": {
              "value": 7,
              "code": "mg/dL",
              "system": "http://unitsofmeasure.org"
            }
          },
          {
            "high": {
              "value": 20,
              "code": "mg/dL",
              "system": "http://unitsofmeasure.org"
            }
          }
        ],
        "text": {
          "status": "generated",
          "div": "<div xmlns=\"http://www.w3.org/1999/xhtml\"><table class=\"hl7__eu__lab__report\"><tr><th>Test</th><th>05-Apr-2024</th><th>Reference&#xA0;Range</th><th>Unit</th></tr><tr><td>Urea nitrogen [Mass/volume] in Serum or Plasma</td><td>16.9</td><td>7 - 20</td><td></td><td>mg/dL</td></tr></table></div>"
        },
        "status": "final",
        "subject": {
          "reference": "urn:uuid:4163cb00-379e-4d79-a74d-f9afa41c7919",
          "display": "Victor Lagarde"
        },
        "effectiveDateTime": "2024-04-05T04:48:18Z",
        "specimen": {
          "reference": "urn:uuid:25d7297b-cdb7-45ae-a50c-4405be29667f"
        }
      }
    },
    {
      "fullUrl": "urn:uuid:1f6355d6-8203-4b96-97ce-c202442035dc",
      "resource": {
        "resourceType": "Observation",
        "id": "1f6355d6-8203-4b96-97ce-c202442035dc",
        "meta": {
          "profile": [
            "http://hl7.eu/fhir/laboratory/StructureDefinition/Observation-resultslab-eu-lab"
          ]
        },
        "performer": [
          {
            "display": "The Central European Lab"
          }
        ],
        "category": [
          {
            "coding": [
              {
                "system": "http://terminology.hl7.org/CodeSystem/observation-category",
                "code": "laboratory"
              }
            ]
          }
        ],
        "code": {
          "coding": [
            {
              "code": "2160-0",
              "system": "http://loinc.org",
              "display": "Creatinine [Mass/volume] in Serum or Plasma"
            }
          ],
          "text": "Creatinine [Mass/volume] in Serum or Plasma"
        },
        "valueQuantity": {
          "system": "http://unitsofmeasure.org",
          "value": 2,
          "unit": "mg/dL",
          "code": "mg/dL"
        },
        "referenceRange": [
          {
            "low": {
              "value": 0.9,
              "code": "mg/dL",
              "system": "http://unitsofmeasure.org"
            }
          },
          {
            "high": {
              "value": 1.3,
              "code": "mg/dL",
              "system": "http://unitsofmeasure.org"
            }
          }
        ],
        "interpretation": [
          {
            "coding": [
              {
                "code": "H",
                "system": "http://terminology.hl7.org/CodeSystem/v3-ObservationInterpretation",
                "display": "High"
              }
            ]
          }
        ],
        "text": {
          "status": "generated",
          "div": "<div xmlns=\"http://www.w3.org/1999/xhtml\"><table class=\"hl7__eu__lab__report\"><tr><th>Test</th><th>05-Apr-2024</th><th>Reference&#xA0;Range</th><th>Unit</th></tr><tr><td>Creatinine [Mass/volume] in Serum or Plasma</td><td>2.0</td><td>0.9 - 1.3</td><td>H</td><td>mg/dL</td></tr></table></div>"
        },
        "status": "final",
        "subject": {
          "reference": "urn:uuid:4163cb00-379e-4d79-a74d-f9afa41c7919",
          "display": "Victor Lagarde"
        },
        "effectiveDateTime": "2024-04-05T04:48:18Z",
        "specimen": {
          "reference": "urn:uuid:25d7297b-cdb7-45ae-a50c-4405be29667f"
        }
      }
    },
    {
      "fullUrl": "urn:uuid:a6d4f6d4-07be-4a82-a380-7f89b8ccdb41",
      "resource": {
        "resourceType": "Observation",
        "id": "a6d4f6d4-07be-4a82-a380-7f89b8ccdb41",
        "meta": {
          "profile": [
            "http://hl7.eu/fhir/laboratory/StructureDefinition/Observation-resultslab-eu-lab"
          ]
        },
        "performer": [
          {
            "display": "The Central European Lab"
          }
        ],
        "category": [
          {
            "coding": [
              {
                "system": "http://terminology.hl7.org/CodeSystem/observation-category",
                "code": "laboratory"
              }
            ]
          }
        ],
        "code": {
          "coding": [
            {
              "code": "17861-6",
              "system": "http://loinc.org",
              "display": "Calcium [Mass/volume] in Serum or Plasma"
            }
          ],
          "text": "Calcium [Mass/volume] in Serum or Plasma"
        },
        "valueQuantity": {
          "system": "http://unitsofmeasure.org",
          "value": 10.1,
          "unit": "mg/dL",
          "code": "mg/dL"
        },
        "referenceRange": [
          {
            "low": {
              "value": 8.5,
              "code": "mg/dL",
              "system": "http://unitsofmeasure.org"
            }
          },
          {
            "high": {
              "value": 10.5,
              "code": "mg/dL",
              "system": "http://unitsofmeasure.org"
            }
          }
        ],
        "text": {
          "status": "generated",
          "div": "<div xmlns=\"http://www.w3.org/1999/xhtml\"><table class=\"hl7__eu__lab__report\"><tr><th>Test</th><th>05-Apr-2024</th><th>Reference&#xA0;Range</th><th>Unit</th></tr><tr><td>Calcium [Mass/volume] in Serum or Plasma</td><td>10.1</td><td>8.5 - 10.5</td><td></td><td>mg/dL</td></tr></table></div>"
        },
        "status": "final",
        "subject": {
          "reference": "urn:uuid:4163cb00-379e-4d79-a74d-f9afa41c7919",
          "display": "Victor Lagarde"
        },
        "effectiveDateTime": "2024-04-05T04:48:18Z",
        "specimen": {
          "reference": "urn:uuid:25d7297b-cdb7-45ae-a50c-4405be29667f"
        }
      }
    },
    {
      "fullUrl": "urn:uuid:2df62516-b8fa-42ea-acfb-2fde6a5269a6",
      "resource": {
        "resourceType": "Observation",
        "id": "2df62516-b8fa-42ea-acfb-2fde6a5269a6",
        "meta": {
          "profile": [
            "http://hl7.eu/fhir/laboratory/StructureDefinition/Observation-resultslab-eu-lab"
          ]
        },
        "performer": [
          {
            "display": "The Central European Lab"
          }
        ],
        "category": [
          {
            "coding": [
              {
                "system": "http://terminology.hl7.org/CodeSystem/observation-category",
                "code": "laboratory"
              }
            ]
          }
        ],
        "code": {
          "coding": [
            {
              "code": "2951-2",
              "system": "http://loinc.org",
              "display": "Sodium [Moles/volume] in Serum or Plasma"
            }
          ],
          "text": "Sodium [Moles/volume] in Serum or Plasma"
        },
        "valueQuantity": {
          "system": "http://unitsofmeasure.org",
          "value": 136,
          "unit": "mmol/L",
          "code": "mmol/L"
        },
        "referenceRange": [
          {
            "low": {
              "value": 135,
              "code": "mmol/L",
              "system": "http://unitsofmeasure.org"
            }
          },
          {
            "high": {
              "value": 145,
              "code": "mmol/L",
              "system": "http://unitsofmeasure.org"
            }
          }
        ],
        "text": {
          "status": "generated",
          "div": "<div xmlns=\"http://www.w3.org/1999/xhtml\"><table class=\"hl7__eu__lab__report\"><tr><th>Test</th><th>05-Apr-2024</th><th>Reference&#xA0;Range</th><th>Unit</th></tr><tr><td>Sodium [Moles/volume] in Serum or Plasma</td><td>136.0</td><td>135 - 145</td><td></td><td>mmol/L</td></tr></table></div>"
        },
        "status": "final",
        "subject": {
          "reference": "urn:uuid:4163cb00-379e-4d79-a74d-f9afa41c7919",
          "display": "Victor Lagarde"
        },
        "effectiveDateTime": "2024-04-05T04:48:18Z",
        "specimen": {
          "reference": "urn:uuid:25d7297b-cdb7-45ae-a50c-4405be29667f"
        }
      }
    },
    {
      "fullUrl": "urn:uuid:20e87278-7b11-46db-8e9a-223717258f32",
      "resource": {
        "resourceType": "Observation",
        "id": "20e87278-7b11-46db-8e9a-223717258f32",
        "meta": {
          "profile": [
            "http://hl7.eu/fhir/laboratory/StructureDefinition/Observation-resultslab-eu-lab"
          ]
        },
        "performer": [
          {
            "display": "The Central European Lab"
          }
        ],
        "category": [
          {
            "coding": [
              {
                "system": "http://terminology.hl7.org/CodeSystem/observation-category",
                "code": "laboratory"
              }
            ]
          }
        ],
        "code": {
          "coding": [
            {
              "code": "2823-3",
              "system": "http://loinc.org",
              "display": "Potassium [Moles/volume] in Serum or Plasma"
            }
          ],
          "text": "Potassium [Moles/volume] in Serum or Plasma"
        },
        "valueQuantity": {
          "system": "http://unitsofmeasure.org",
          "value": 4,
          "unit": "mmol/L",
          "code": "mmol/L"
        },
        "referenceRange": [
          {
            "low": {
              "value": 3.5,
              "code": "mmol/L",
              "system": "http://unitsofmeasure.org"
            }
          },
          {
            "high": {
              "value": 5.3,
              "code": "mmol/L",
              "system": "http://unitsofmeasure.org"
            }
          }
        ],
        "text": {
          "status": "generated",
          "div": "<div xmlns=\"http://www.w3.org/1999/xhtml\"><table class=\"hl7__eu__lab__report\"><tr><th>Test</th><th>05-Apr-2024</th><th>Reference&#xA0;Range</th><th>Unit</th></tr><tr><td>Potassium [Moles/volume] in Serum or Plasma</td><td>4.0</td><td>3.5 - 5.3</td><td></td><td>mmol/L</td></tr></table></div>"
        },
        "status": "final",
        "subject": {
          "reference": "urn:uuid:4163cb00-379e-4d79-a74d-f9afa41c7919",
          "display": "Victor Lagarde"
        },
        "effectiveDateTime": "2024-04-05T04:48:18Z",
        "specimen": {
          "reference": "urn:uuid:25d7297b-cdb7-45ae-a50c-4405be29667f"
        }
      }
    },
    {
      "fullUrl": "urn:uuid:5930e258-f087-4898-9ceb-9c031be944b0",
      "resource": {
        "resourceType": "Observation",
        "id": "5930e258-f087-4898-9ceb-9c031be944b0",
        "meta": {
          "profile": [
            "http://hl7.eu/fhir/laboratory/StructureDefinition/Observation-resultslab-eu-lab"
          ]
        },
        "performer": [
          {
            "display": "The Central European Lab"
          }
        ],
        "category": [
          {
            "coding": [
              {
                "system": "http://terminology.hl7.org/CodeSystem/observation-category",
                "code": "laboratory"
              }
            ]
          }
        ],
        "code": {
          "coding": [
            {
              "code": "2075-0",
              "system": "http://loinc.org",
              "display": "Chloride [Moles/volume] in Serum or Plasma"
            }
          ],
          "text": "Chloride [Moles/volume] in Serum or Plasma"
        },
        "valueQuantity": {
          "system": "http://unitsofmeasure.org",
          "value": 107.1,
          "unit": "mmol/L",
          "code": "mmol/L"
        },
        "referenceRange": [
          {
            "low": {
              "value": 98,
              "code": "mmol/L",
              "system": "http://unitsofmeasure.org"
            }
          },
          {
            "high": {
              "value": 107,
              "code": "mmol/L",
              "system": "http://unitsofmeasure.org"
            }
          }
        ],
        "interpretation": [
          {
            "coding": [
              {
                "code": "H",
                "system": "http://terminology.hl7.org/CodeSystem/v3-ObservationInterpretation",
                "display": "High"
              }
            ]
          }
        ],
        "text": {
          "status": "generated",
          "div": "<div xmlns=\"http://www.w3.org/1999/xhtml\"><table class=\"hl7__eu__lab__report\"><tr><th>Test</th><th>05-Apr-2024</th><th>Reference&#xA0;Range</th><th>Unit</th></tr><tr><td>Chloride [Moles/volume] in Serum or Plasma</td><td>107.1</td><td>98 - 107</td><td>H</td><td>mmol/L</td></tr></table></div>"
        },
        "status": "final",
        "subject": {
          "reference": "urn:uuid:4163cb00-379e-4d79-a74d-f9afa41c7919",
          "display": "Victor Lagarde"
        },
        "effectiveDateTime": "2024-04-05T04:48:18Z",
        "specimen": {
          "reference": "urn:uuid:25d7297b-cdb7-45ae-a50c-4405be29667f"
        }
      }
    },
    {
      "fullUrl": "urn:uuid:4bed69f7-79a0-426b-bcb3-cdc61b6aa662",
      "resource": {
        "resourceType": "Observation",
        "id": "4bed69f7-79a0-426b-bcb3-cdc61b6aa662",
        "meta": {
          "profile": [
            "http://hl7.eu/fhir/laboratory/StructureDefinition/Observation-resultslab-eu-lab"
          ]
        },
        "performer": [
          {
            "display": "The Central European Lab"
          }
        ],
        "category": [
          {
            "coding": [
              {
                "system": "http://terminology.hl7.org/CodeSystem/observation-category",
                "code": "laboratory"
              }
            ]
          }
        ],
        "code": {
          "coding": [
            {
              "code": "2028-9",
              "system": "http://loinc.org",
              "display": "Carbon dioxide, total [Moles/volume] in Serum or Plasma"
            }
          ],
          "text": "Carbon dioxide, total [Moles/volume] in Serum or Plasma"
        },
        "valueQuantity": {
          "system": "http://unitsofmeasure.org",
          "value": 25.8,
          "unit": "mmol/L",
          "code": "mmol/L"
        },
        "referenceRange": [
          {
            "low": {
              "value": 22,
              "code": "mmol/L",
              "system": "http://unitsofmeasure.org"
            }
          },
          {
            "high": {
              "value": 33,
              "code": "mmol/L",
              "system": "http://unitsofmeasure.org"
            }
          }
        ],
        "text": {
          "status": "generated",
          "div": "<div xmlns=\"http://www.w3.org/1999/xhtml\"><table class=\"hl7__eu__lab__report\"><tr><th>Test</th><th>05-Apr-2024</th><th>Reference&#xA0;Range</th><th>Unit</th></tr><tr><td>Carbon dioxide, total [Moles/volume] in Serum or Plasma</td><td>25.8</td><td>22 - 33</td><td></td><td>mmol/L</td></tr></table></div>"
        },
        "status": "final",
        "subject": {
          "reference": "urn:uuid:4163cb00-379e-4d79-a74d-f9afa41c7919",
          "display": "Victor Lagarde"
        },
        "effectiveDateTime": "2024-04-05T04:48:18Z",
        "specimen": {
          "reference": "urn:uuid:25d7297b-cdb7-45ae-a50c-4405be29667f"
        }
      }
    },
    {
      "fullUrl": "urn:uuid:39e98cd0-8eff-472a-a187-2dab3903e380",
      "resource": {
        "resourceType": "Observation",
        "id": "39e98cd0-8eff-472a-a187-2dab3903e380",
        "meta": {
          "profile": [
            "http://hl7.eu/fhir/laboratory/StructureDefinition/Observation-resultslab-eu-lab"
          ]
        },
        "performer": [
          {
            "display": "The Central European Lab"
          }
        ],
        "category": [
          {
            "coding": [
              {
                "system": "http://terminology.hl7.org/CodeSystem/observation-category",
                "code": "laboratory"
              }
            ]
          }
        ],
        "code": {
          "coding": [
            {
              "code": "5767-9",
              "system": "http://loinc.org",
              "display": "Appearance of Urine"
            }
          ],
          "text": "Appearance of Urine"
        },
        "text": {
          "status": "generated",
          "div": "<div xmlns=\"http://www.w3.org/1999/xhtml\"><table class=\"hl7__eu__lab__report\"><tr><th>Test</th><th>05-Apr-2024</th><th>Reference&#xA0;Range</th><th>Unit</th></tr><tr><td>Appearance of Urine</td></tr></table></div>"
        },
        "status": "final",
        "subject": {
          "reference": "urn:uuid:4163cb00-379e-4d79-a74d-f9afa41c7919",
          "display": "Victor Lagarde"
        },
        "effectiveDateTime": "2024-04-05T04:48:18Z",
        "specimen": {
          "reference": "urn:uuid:2cee96e2-e774-4127-ace2-23fe4156c44e"
        }
      }
    },
    {
      "fullUrl": "urn:uuid:1f7eb2a4-2930-4642-88a4-563e21664647",
      "resource": {
        "resourceType": "Observation",
        "id": "1f7eb2a4-2930-4642-88a4-563e21664647",
        "meta": {
          "profile": [
            "http://hl7.eu/fhir/laboratory/StructureDefinition/Observation-resultslab-eu-lab"
          ]
        },
        "performer": [
          {
            "display": "The Central European Lab"
          }
        ],
        "category": [
          {
            "coding": [
              {
                "system": "http://terminology.hl7.org/CodeSystem/observation-category",
                "code": "laboratory"
              }
            ]
          }
        ],
        "code": {
          "coding": [
            {
              "code": "34533-0",
              "system": "http://loinc.org",
              "display": "Odor of Urine"
            }
          ],
          "text": "Odor of Urine"
        },
        "text": {
          "status": "generated",
          "div": "<div xmlns=\"http://www.w3.org/1999/xhtml\"><table class=\"hl7__eu__lab__report\"><tr><th>Test</th><th>05-Apr-2024</th><th>Reference&#xA0;Range</th><th>Unit</th></tr><tr><td>Odor of Urine</td></tr></table></div>"
        },
        "status": "final",
        "subject": {
          "reference": "urn:uuid:4163cb00-379e-4d79-a74d-f9afa41c7919",
          "display": "Victor Lagarde"
        },
        "effectiveDateTime": "2024-04-05T04:48:18Z",
        "specimen": {
          "reference": "urn:uuid:2cee96e2-e774-4127-ace2-23fe4156c44e"
        }
      }
    },
    {
      "fullUrl": "urn:uuid:2d954a9c-e688-4c92-9cde-959b2f365dc9",
      "resource": {
        "resourceType": "Observation",
        "id": "2d954a9c-e688-4c92-9cde-959b2f365dc9",
        "meta": {
          "profile": [
            "http://hl7.eu/fhir/laboratory/StructureDefinition/Observation-resultslab-eu-lab"
          ]
        },
        "performer": [
          {
            "display": "The Central European Lab"
          }
        ],
        "category": [
          {
            "coding": [
              {
                "system": "http://terminology.hl7.org/CodeSystem/observation-category",
                "code": "laboratory"
              }
            ]
          }
        ],
        "code": {
          "coding": [
            {
              "code": "32167-9",
              "system": "http://loinc.org",
              "display": "Clarity of Urine"
            }
          ],
          "text": "Clarity of Urine"
        },
        "text": {
          "status": "generated",
          "div": "<div xmlns=\"http://www.w3.org/1999/xhtml\"><table class=\"hl7__eu__lab__report\"><tr><th>Test</th><th>05-Apr-2024</th><th>Reference&#xA0;Range</th><th>Unit</th></tr><tr><td>Clarity of Urine</td></tr></table></div>"
        },
        "status": "final",
        "subject": {
          "reference": "urn:uuid:4163cb00-379e-4d79-a74d-f9afa41c7919",
          "display": "Victor Lagarde"
        },
        "effectiveDateTime": "2024-04-05T04:48:18Z",
        "specimen": {
          "reference": "urn:uuid:2cee96e2-e774-4127-ace2-23fe4156c44e"
        }
      }
    },
    {
      "fullUrl": "urn:uuid:dac2bd0b-b733-4f3b-bcbb-04aa3525b7ae",
      "resource": {
        "resourceType": "Observation",
        "id": "dac2bd0b-b733-4f3b-bcbb-04aa3525b7ae",
        "meta": {
          "profile": [
            "http://hl7.eu/fhir/laboratory/StructureDefinition/Observation-resultslab-eu-lab"
          ]
        },
        "performer": [
          {
            "display": "The Central European Lab"
          }
        ],
        "category": [
          {
            "coding": [
              {
                "system": "http://terminology.hl7.org/CodeSystem/observation-category",
                "code": "laboratory"
              }
            ]
          }
        ],
        "code": {
          "coding": [
            {
              "code": "5778-6",
              "system": "http://loinc.org",
              "display": "Color of Urine"
            }
          ],
          "text": "Color of Urine"
        },
        "text": {
          "status": "generated",
          "div": "<div xmlns=\"http://www.w3.org/1999/xhtml\"><table class=\"hl7__eu__lab__report\"><tr><th>Test</th><th>05-Apr-2024</th><th>Reference&#xA0;Range</th><th>Unit</th></tr><tr><td>Color of Urine</td></tr></table></div>"
        },
        "status": "final",
        "subject": {
          "reference": "urn:uuid:4163cb00-379e-4d79-a74d-f9afa41c7919",
          "display": "Victor Lagarde"
        },
        "effectiveDateTime": "2024-04-05T04:48:18Z",
        "specimen": {
          "reference": "urn:uuid:2cee96e2-e774-4127-ace2-23fe4156c44e"
        }
      }
    },
    {
      "fullUrl": "urn:uuid:9773299f-c3b1-45e1-a224-58a7b217cbf0",
      "resource": {
        "resourceType": "Observation",
        "id": "9773299f-c3b1-45e1-a224-58a7b217cbf0",
        "meta": {
          "profile": [
            "http://hl7.eu/fhir/laboratory/StructureDefinition/Observation-resultslab-eu-lab"
          ]
        },
        "performer": [
          {
            "display": "The Central European Lab"
          }
        ],
        "category": [
          {
            "coding": [
              {
                "system": "http://terminology.hl7.org/CodeSystem/observation-category",
                "code": "laboratory"
              }
            ]
          }
        ],
        "code": {
          "coding": [
            {
              "code": "5792-7",
              "system": "http://loinc.org",
              "display": "Glucose [Mass/volume] in Urine by Test strip"
            }
          ],
          "text": "Glucose [Mass/volume] in Urine by Test strip"
        },
        "valueQuantity": {
          "system": "http://unitsofmeasure.org",
          "value": 1.5,
          "unit": "mg/dL",
          "code": "mg/dL"
        },
        "referenceRange": [
          {
            "low": {
              "value": 0,
              "code": "mg/dL",
              "system": "http://unitsofmeasure.org"
            }
          },
          {
            "high": {
              "value": 0.8,
              "code": "mg/dL",
              "system": "http://unitsofmeasure.org"
            }
          }
        ],
        "interpretation": [
          {
            "coding": [
              {
                "code": "H",
                "system": "http://terminology.hl7.org/CodeSystem/v3-ObservationInterpretation",
                "display": "High"
              }
            ]
          }
        ],
        "text": {
          "status": "generated",
          "div": "<div xmlns=\"http://www.w3.org/1999/xhtml\"><table class=\"hl7__eu__lab__report\"><tr><th>Test</th><th>05-Apr-2024</th><th>Reference&#xA0;Range</th><th>Unit</th></tr><tr><td>Glucose [Mass/volume] in Urine by Test strip</td><td>1.5</td><td>0 - 0.8</td><td>H</td><td>mg/dL</td></tr></table></div>"
        },
        "status": "final",
        "subject": {
          "reference": "urn:uuid:4163cb00-379e-4d79-a74d-f9afa41c7919",
          "display": "Victor Lagarde"
        },
        "effectiveDateTime": "2024-04-05T04:48:18Z",
        "specimen": {
          "reference": "urn:uuid:2cee96e2-e774-4127-ace2-23fe4156c44e"
        }
      }
    },
    {
      "fullUrl": "urn:uuid:4acc6bff-b0a2-4ef3-bc31-5ec8b4da3042",
      "resource": {
        "resourceType": "Observation",
        "id": "4acc6bff-b0a2-4ef3-bc31-5ec8b4da3042",
        "meta": {
          "profile": [
            "http://hl7.eu/fhir/laboratory/StructureDefinition/Observation-resultslab-eu-lab"
          ]
        },
        "performer": [
          {
            "display": "The Central European Lab"
          }
        ],
        "category": [
          {
            "coding": [
              {
                "system": "http://terminology.hl7.org/CodeSystem/observation-category",
                "code": "laboratory"
              }
            ]
          }
        ],
        "code": {
          "coding": [
            {
              "code": "25428-4",
              "system": "http://loinc.org",
              "display": "Glucose [Presence] in Urine by Test strip"
            }
          ],
          "text": "Glucose [Presence] in Urine by Test strip"
        },
        "text": {
          "status": "generated",
          "div": "<div xmlns=\"http://www.w3.org/1999/xhtml\"><table class=\"hl7__eu__lab__report\"><tr><th>Test</th><th>05-Apr-2024</th><th>Reference&#xA0;Range</th><th>Unit</th></tr><tr><td>Glucose [Presence] in Urine by Test strip</td></tr></table></div>"
        },
        "status": "final",
        "subject": {
          "reference": "urn:uuid:4163cb00-379e-4d79-a74d-f9afa41c7919",
          "display": "Victor Lagarde"
        },
        "effectiveDateTime": "2024-04-05T04:48:18Z",
        "specimen": {
          "reference": "urn:uuid:2cee96e2-e774-4127-ace2-23fe4156c44e"
        }
      }
    },
    {
      "fullUrl": "urn:uuid:9f549296-a68f-425c-a985-bf3a165fa2a5",
      "resource": {
        "resourceType": "Observation",
        "id": "9f549296-a68f-425c-a985-bf3a165fa2a5",
        "meta": {
          "profile": [
            "http://hl7.eu/fhir/laboratory/StructureDefinition/Observation-resultslab-eu-lab"
          ]
        },
        "performer": [
          {
            "display": "The Central European Lab"
          }
        ],
        "category": [
          {
            "coding": [
              {
                "system": "http://terminology.hl7.org/CodeSystem/observation-category",
                "code": "laboratory"
              }
            ]
          }
        ],
        "code": {
          "coding": [
            {
              "code": "20505-4",
              "system": "http://loinc.org",
              "display": "Bilirubin.total [Mass/volume] in Urine by Test strip"
            }
          ],
          "text": "Bilirubin.total [Mass/volume] in Urine by Test strip"
        },
        "valueQuantity": {
          "system": "http://unitsofmeasure.org",
          "value": 0.6,
          "unit": "mg/dL",
          "code": "mg/dL"
        },
        "referenceRange": [
          {
            "low": {
              "value": 0,
              "code": "mg/dL",
              "system": "http://unitsofmeasure.org"
            }
          },
          {
            "high": {
              "value": 1.9,
              "code": "mg/dL",
              "system": "http://unitsofmeasure.org"
            }
          }
        ],
        "text": {
          "status": "generated",
          "div": "<div xmlns=\"http://www.w3.org/1999/xhtml\"><table class=\"hl7__eu__lab__report\"><tr><th>Test</th><th>05-Apr-2024</th><th>Reference&#xA0;Range</th><th>Unit</th></tr><tr><td>Bilirubin.total [Mass/volume] in Urine by Test strip</td><td>0.6</td><td>0 - 1.9</td><td></td><td>mg/dL</td></tr></table></div>"
        },
        "status": "final",
        "subject": {
          "reference": "urn:uuid:4163cb00-379e-4d79-a74d-f9afa41c7919",
          "display": "Victor Lagarde"
        },
        "effectiveDateTime": "2024-04-05T04:48:18Z",
        "specimen": {
          "reference": "urn:uuid:2cee96e2-e774-4127-ace2-23fe4156c44e"
        }
      }
    },
    {
      "fullUrl": "urn:uuid:054d9668-6f2b-4624-9651-3748a2507a18",
      "resource": {
        "resourceType": "Observation",
        "id": "054d9668-6f2b-4624-9651-3748a2507a18",
        "meta": {
          "profile": [
            "http://hl7.eu/fhir/laboratory/StructureDefinition/Observation-resultslab-eu-lab"
          ]
        },
        "performer": [
          {
            "display": "The Central European Lab"
          }
        ],
        "category": [
          {
            "coding": [
              {
                "system": "http://terminology.hl7.org/CodeSystem/observation-category",
                "code": "laboratory"
              }
            ]
          }
        ],
        "code": {
          "coding": [
            {
              "code": "5770-3",
              "system": "http://loinc.org",
              "display": "Bilirubin.total [Presence] in Urine by Test strip"
            }
          ],
          "text": "Bilirubin.total [Presence] in Urine by Test strip"
        },
        "text": {
          "status": "generated",
          "div": "<div xmlns=\"http://www.w3.org/1999/xhtml\"><table class=\"hl7__eu__lab__report\"><tr><th>Test</th><th>05-Apr-2024</th><th>Reference&#xA0;Range</th><th>Unit</th></tr><tr><td>Bilirubin.total [Presence] in Urine by Test strip</td></tr></table></div>"
        },
        "status": "final",
        "subject": {
          "reference": "urn:uuid:4163cb00-379e-4d79-a74d-f9afa41c7919",
          "display": "Victor Lagarde"
        },
        "effectiveDateTime": "2024-04-05T04:48:18Z",
        "specimen": {
          "reference": "urn:uuid:2cee96e2-e774-4127-ace2-23fe4156c44e"
        }
      }
    },
    {
      "fullUrl": "urn:uuid:e724e714-749d-46ec-b0c4-16e103ef70d1",
      "resource": {
        "resourceType": "Observation",
        "id": "e724e714-749d-46ec-b0c4-16e103ef70d1",
        "meta": {
          "profile": [
            "http://hl7.eu/fhir/laboratory/StructureDefinition/Observation-resultslab-eu-lab"
          ]
        },
        "performer": [
          {
            "display": "The Central European Lab"
          }
        ],
        "category": [
          {
            "coding": [
              {
                "system": "http://terminology.hl7.org/CodeSystem/observation-category",
                "code": "laboratory"
              }
            ]
          }
        ],
        "code": {
          "coding": [
            {
              "code": "5797-6",
              "system": "http://loinc.org",
              "display": "Ketones [Mass/volume] in Urine by Test strip"
            }
          ],
          "text": "Ketones [Mass/volume] in Urine by Test strip"
        },
        "valueQuantity": {
          "system": "http://unitsofmeasure.org",
          "value": 2.2,
          "unit": "mg/dL",
          "code": "mg/dL"
        },
        "referenceRange": [
          {
            "low": {
              "value": 0,
              "code": "mg/dL",
              "system": "http://unitsofmeasure.org"
            }
          },
          {
            "high": {
              "value": 3,
              "code": "mg/dL",
              "system": "http://unitsofmeasure.org"
            }
          }
        ],
        "text": {
          "status": "generated",
          "div": "<div xmlns=\"http://www.w3.org/1999/xhtml\"><table class=\"hl7__eu__lab__report\"><tr><th>Test</th><th>05-Apr-2024</th><th>Reference&#xA0;Range</th><th>Unit</th></tr><tr><td>Ketones [Mass/volume] in Urine by Test strip</td><td>2.2</td><td>0 - 3</td><td></td><td>mg/dL</td></tr></table></div>"
        },
        "status": "final",
        "subject": {
          "reference": "urn:uuid:4163cb00-379e-4d79-a74d-f9afa41c7919",
          "display": "Victor Lagarde"
        },
        "effectiveDateTime": "2024-04-05T04:48:18Z",
        "specimen": {
          "reference": "urn:uuid:2cee96e2-e774-4127-ace2-23fe4156c44e"
        }
      }
    },
    {
      "fullUrl": "urn:uuid:05b63cb2-439f-464e-8497-9c915a36d1db",
      "resource": {
        "resourceType": "Observation",
        "id": "05b63cb2-439f-464e-8497-9c915a36d1db",
        "meta": {
          "profile": [
            "http://hl7.eu/fhir/laboratory/StructureDefinition/Observation-resultslab-eu-lab"
          ]
        },
        "performer": [
          {
            "display": "The Central European Lab"
          }
        ],
        "category": [
          {
            "coding": [
              {
                "system": "http://terminology.hl7.org/CodeSystem/observation-category",
                "code": "laboratory"
              }
            ]
          }
        ],
        "code": {
          "coding": [
            {
              "code": "2514-8",
              "system": "http://loinc.org",
              "display": "Ketones [Presence] in Urine by Test strip"
            }
          ],
          "text": "Ketones [Presence] in Urine by Test strip"
        },
        "text": {
          "status": "generated",
          "div": "<div xmlns=\"http://www.w3.org/1999/xhtml\"><table class=\"hl7__eu__lab__report\"><tr><th>Test</th><th>05-Apr-2024</th><th>Reference&#xA0;Range</th><th>Unit</th></tr><tr><td>Ketones [Presence] in Urine by Test strip</td></tr></table></div>"
        },
        "status": "final",
        "subject": {
          "reference": "urn:uuid:4163cb00-379e-4d79-a74d-f9afa41c7919",
          "display": "Victor Lagarde"
        },
        "effectiveDateTime": "2024-04-05T04:48:18Z",
        "specimen": {
          "reference": "urn:uuid:2cee96e2-e774-4127-ace2-23fe4156c44e"
        }
      }
    },
    {
      "fullUrl": "urn:uuid:92e4645f-81e8-4d23-873a-a0119868142a",
      "resource": {
        "resourceType": "Observation",
        "id": "92e4645f-81e8-4d23-873a-a0119868142a",
        "meta": {
          "profile": [
            "http://hl7.eu/fhir/laboratory/StructureDefinition/Observation-resultslab-eu-lab"
          ]
        },
        "performer": [
          {
            "display": "The Central European Lab"
          }
        ],
        "category": [
          {
            "coding": [
              {
                "system": "http://terminology.hl7.org/CodeSystem/observation-category",
                "code": "laboratory"
              }
            ]
          }
        ],
        "code": {
          "coding": [
            {
              "code": "5811-5",
              "system": "http://loinc.org",
              "display": "Specific gravity of Urine by Test strip"
            }
          ],
          "text": "Specific gravity of Urine by Test strip"
        },
        "valueQuantity": {
          "system": "http://unitsofmeasure.org",
          "value": 1,
          "unit": "{nominal}",
          "code": "{nominal}"
        },
        "referenceRange": [
          {
            "low": {
              "value": 1.01,
              "code": "g/mL",
              "system": "http://unitsofmeasure.org"
            }
          },
          {
            "high": {
              "value": 1.03,
              "code": "g/mL",
              "system": "http://unitsofmeasure.org"
            }
          }
        ],
        "interpretation": [
          {
            "coding": [
              {
                "code": "L",
                "system": "http://terminology.hl7.org/CodeSystem/v3-ObservationInterpretation",
                "display": "Low"
              }
            ]
          }
        ],
        "text": {
          "status": "generated",
          "div": "<div xmlns=\"http://www.w3.org/1999/xhtml\"><table class=\"hl7__eu__lab__report\"><tr><th>Test</th><th>05-Apr-2024</th><th>Reference&#xA0;Range</th><th>Unit</th></tr><tr><td>Specific gravity of Urine by Test strip</td><td>1.0</td><td>1.01 - 1.03</td><td>L</td><td>{nominal}</td></tr></table></div>"
        },
        "status": "final",
        "subject": {
          "reference": "urn:uuid:4163cb00-379e-4d79-a74d-f9afa41c7919",
          "display": "Victor Lagarde"
        },
        "effectiveDateTime": "2024-04-05T04:48:18Z",
        "specimen": {
          "reference": "urn:uuid:2cee96e2-e774-4127-ace2-23fe4156c44e"
        }
      }
    },
    {
      "fullUrl": "urn:uuid:e1d3bd1f-a7e7-4c85-beb2-079072647050",
      "resource": {
        "resourceType": "Observation",
        "id": "e1d3bd1f-a7e7-4c85-beb2-079072647050",
        "meta": {
          "profile": [
            "http://hl7.eu/fhir/laboratory/StructureDefinition/Observation-resultslab-eu-lab"
          ]
        },
        "performer": [
          {
            "display": "The Central European Lab"
          }
        ],
        "category": [
          {
            "coding": [
              {
                "system": "http://terminology.hl7.org/CodeSystem/observation-category",
                "code": "laboratory"
              }
            ]
          }
        ],
        "code": {
          "coding": [
            {
              "code": "5803-2",
              "system": "http://loinc.org",
              "display": "pH of Urine by Test strip"
            }
          ],
          "text": "pH of Urine by Test strip"
        },
        "valueQuantity": {
          "system": "http://unitsofmeasure.org",
          "value": 5,
          "unit": "pH",
          "code": "pH"
        },
        "referenceRange": [
          {
            "low": {
              "value": 4.5,
              "code": "pH",
              "system": "http://unitsofmeasure.org"
            }
          },
          {
            "high": {
              "value": 7.5,
              "code": "pH",
              "system": "http://unitsofmeasure.org"
            }
          }
        ],
        "text": {
          "status": "generated",
          "div": "<div xmlns=\"http://www.w3.org/1999/xhtml\"><table class=\"hl7__eu__lab__report\"><tr><th>Test</th><th>05-Apr-2024</th><th>Reference&#xA0;Range</th><th>Unit</th></tr><tr><td>pH of Urine by Test strip</td><td>5.0</td><td>4.5 - 7.5</td><td></td><td>pH</td></tr></table></div>"
        },
        "status": "final",
        "subject": {
          "reference": "urn:uuid:4163cb00-379e-4d79-a74d-f9afa41c7919",
          "display": "Victor Lagarde"
        },
        "effectiveDateTime": "2024-04-05T04:48:18Z",
        "specimen": {
          "reference": "urn:uuid:2cee96e2-e774-4127-ace2-23fe4156c44e"
        }
      }
    },
    {
      "fullUrl": "urn:uuid:29c522f8-19ab-415b-ae66-6a7b4da96d3a",
      "resource": {
        "resourceType": "Observation",
        "id": "29c522f8-19ab-415b-ae66-6a7b4da96d3a",
        "meta": {
          "profile": [
            "http://hl7.eu/fhir/laboratory/StructureDefinition/Observation-resultslab-eu-lab"
          ]
        },
        "performer": [
          {
            "display": "The Central European Lab"
          }
        ],
        "category": [
          {
            "coding": [
              {
                "system": "http://terminology.hl7.org/CodeSystem/observation-category",
                "code": "laboratory"
              }
            ]
          }
        ],
        "code": {
          "coding": [
            {
              "code": "5804-0",
              "system": "http://loinc.org",
              "display": "Protein [Mass/volume] in Urine by Test strip"
            }
          ],
          "text": "Protein [Mass/volume] in Urine by Test strip"
        },
        "valueQuantity": {
          "system": "http://unitsofmeasure.org",
          "value": 390.6,
          "unit": "mg/dL",
          "code": "mg/dL"
        },
        "referenceRange": [
          {
            "low": {
              "value": 0,
              "code": "mg/dL",
              "system": "http://unitsofmeasure.org"
            }
          },
          {
            "high": {
              "value": 149,
              "code": "mg/dL",
              "system": "http://unitsofmeasure.org"
            }
          }
        ],
        "interpretation": [
          {
            "coding": [
              {
                "code": "H",
                "system": "http://terminology.hl7.org/CodeSystem/v3-ObservationInterpretation",
                "display": "High"
              }
            ]
          }
        ],
        "text": {
          "status": "generated",
          "div": "<div xmlns=\"http://www.w3.org/1999/xhtml\"><table class=\"hl7__eu__lab__report\"><tr><th>Test</th><th>05-Apr-2024</th><th>Reference&#xA0;Range</th><th>Unit</th></tr><tr><td>Protein [Mass/volume] in Urine by Test strip</td><td>390.6</td><td>0 - 149</td><td>H</td><td>mg/dL</td></tr></table></div>"
        },
        "status": "final",
        "subject": {
          "reference": "urn:uuid:4163cb00-379e-4d79-a74d-f9afa41c7919",
          "display": "Victor Lagarde"
        },
        "effectiveDateTime": "2024-04-05T04:48:18Z",
        "specimen": {
          "reference": "urn:uuid:2cee96e2-e774-4127-ace2-23fe4156c44e"
        }
      }
    },
    {
      "fullUrl": "urn:uuid:ebcc4aa2-68f6-4a31-a290-a313198f2c93",
      "resource": {
        "resourceType": "Observation",
        "id": "ebcc4aa2-68f6-4a31-a290-a313198f2c93",
        "meta": {
          "profile": [
            "http://hl7.eu/fhir/laboratory/StructureDefinition/Observation-resultslab-eu-lab"
          ]
        },
        "performer": [
          {
            "display": "The Central European Lab"
          }
        ],
        "category": [
          {
            "coding": [
              {
                "system": "http://terminology.hl7.org/CodeSystem/observation-category",
                "code": "laboratory"
              }
            ]
          }
        ],
        "code": {
          "coding": [
            {
              "code": "20454-5",
              "system": "http://loinc.org",
              "display": "Protein [Presence] in Urine by Test strip"
            }
          ],
          "text": "Protein [Presence] in Urine by Test strip"
        },
        "text": {
          "status": "generated",
          "div": "<div xmlns=\"http://www.w3.org/1999/xhtml\"><table class=\"hl7__eu__lab__report\"><tr><th>Test</th><th>05-Apr-2024</th><th>Reference&#xA0;Range</th><th>Unit</th></tr><tr><td>Protein [Presence] in Urine by Test strip</td></tr></table></div>"
        },
        "status": "final",
        "subject": {
          "reference": "urn:uuid:4163cb00-379e-4d79-a74d-f9afa41c7919",
          "display": "Victor Lagarde"
        },
        "effectiveDateTime": "2024-04-05T04:48:18Z",
        "specimen": {
          "reference": "urn:uuid:2cee96e2-e774-4127-ace2-23fe4156c44e"
        }
      }
    },
    {
      "fullUrl": "urn:uuid:4317bdb0-2e94-466c-ad8c-8f4281476257",
      "resource": {
        "resourceType": "Observation",
        "id": "4317bdb0-2e94-466c-ad8c-8f4281476257",
        "meta": {
          "profile": [
            "http://hl7.eu/fhir/laboratory/StructureDefinition/Observation-resultslab-eu-lab"
          ]
        },
        "performer": [
          {
            "display": "The Central European Lab"
          }
        ],
        "category": [
          {
            "coding": [
              {
                "system": "http://terminology.hl7.org/CodeSystem/observation-category",
                "code": "laboratory"
              }
            ]
          }
        ],
        "code": {
          "coding": [
            {
              "code": "5802-4",
              "system": "http://loinc.org",
              "display": "Nitrite [Presence] in Urine by Test strip"
            }
          ],
          "text": "Nitrite [Presence] in Urine by Test strip"
        },
        "text": {
          "status": "generated",
          "div": "<div xmlns=\"http://www.w3.org/1999/xhtml\"><table class=\"hl7__eu__lab__report\"><tr><th>Test</th><th>05-Apr-2024</th><th>Reference&#xA0;Range</th><th>Unit</th></tr><tr><td>Nitrite [Presence] in Urine by Test strip</td></tr></table></div>"
        },
        "status": "final",
        "subject": {
          "reference": "urn:uuid:4163cb00-379e-4d79-a74d-f9afa41c7919",
          "display": "Victor Lagarde"
        },
        "effectiveDateTime": "2024-04-05T04:48:18Z",
        "specimen": {
          "reference": "urn:uuid:2cee96e2-e774-4127-ace2-23fe4156c44e"
        }
      }
    },
    {
      "fullUrl": "urn:uuid:5b9c3898-d0ce-4ae3-8653-21c75e3b1209",
      "resource": {
        "resourceType": "Observation",
        "id": "5b9c3898-d0ce-4ae3-8653-21c75e3b1209",
        "meta": {
          "profile": [
            "http://hl7.eu/fhir/laboratory/StructureDefinition/Observation-resultslab-eu-lab"
          ]
        },
        "performer": [
          {
            "display": "The Central European Lab"
          }
        ],
        "category": [
          {
            "coding": [
              {
                "system": "http://terminology.hl7.org/CodeSystem/observation-category",
                "code": "laboratory"
              }
            ]
          }
        ],
        "code": {
          "coding": [
            {
              "code": "5794-3",
              "system": "http://loinc.org",
              "display": "Hemoglobin [Presence] in Urine by Test strip"
            }
          ],
          "text": "Hemoglobin [Presence] in Urine by Test strip"
        },
        "text": {
          "status": "generated",
          "div": "<div xmlns=\"http://www.w3.org/1999/xhtml\"><table class=\"hl7__eu__lab__report\"><tr><th>Test</th><th>05-Apr-2024</th><th>Reference&#xA0;Range</th><th>Unit</th></tr><tr><td>Hemoglobin [Presence] in Urine by Test strip</td></tr></table></div>"
        },
        "status": "final",
        "subject": {
          "reference": "urn:uuid:4163cb00-379e-4d79-a74d-f9afa41c7919",
          "display": "Victor Lagarde"
        },
        "effectiveDateTime": "2024-04-05T04:48:18Z",
        "specimen": {
          "reference": "urn:uuid:2cee96e2-e774-4127-ace2-23fe4156c44e"
        }
      }
    },
    {
      "fullUrl": "urn:uuid:90975379-f794-4f7e-a3b4-f3fcae67ac01",
      "resource": {
        "resourceType": "Observation",
        "id": "90975379-f794-4f7e-a3b4-f3fcae67ac01",
        "meta": {
          "profile": [
            "http://hl7.eu/fhir/laboratory/StructureDefinition/Observation-resultslab-eu-lab"
          ]
        },
        "performer": [
          {
            "display": "The Central European Lab"
          }
        ],
        "category": [
          {
            "coding": [
              {
                "system": "http://terminology.hl7.org/CodeSystem/observation-category",
                "code": "laboratory"
              }
            ]
          }
        ],
        "code": {
          "coding": [
            {
              "code": "5799-2",
              "system": "http://loinc.org",
              "display": "Leukocyte esterase [Presence] in Urine by Test strip"
            }
          ],
          "text": "Leukocyte esterase [Presence] in Urine by Test strip"
        },
        "text": {
          "status": "generated",
          "div": "<div xmlns=\"http://www.w3.org/1999/xhtml\"><table class=\"hl7__eu__lab__report\"><tr><th>Test</th><th>05-Apr-2024</th><th>Reference&#xA0;Range</th><th>Unit</th></tr><tr><td>Leukocyte esterase [Presence] in Urine by Test strip</td></tr></table></div>"
        },
        "status": "final",
        "subject": {
          "reference": "urn:uuid:4163cb00-379e-4d79-a74d-f9afa41c7919",
          "display": "Victor Lagarde"
        },
        "effectiveDateTime": "2024-04-05T04:48:18Z",
        "specimen": {
          "reference": "urn:uuid:2cee96e2-e774-4127-ace2-23fe4156c44e"
        }
      }
    },
    {
      "fullUrl": "urn:uuid:11caf742-fcc3-4ad1-bdfa-7b0a7ba0b1c1",
      "resource": {
        "resourceType": "Observation",
        "id": "11caf742-fcc3-4ad1-bdfa-7b0a7ba0b1c1",
        "meta": {
          "profile": [
            "http://hl7.eu/fhir/laboratory/StructureDefinition/Observation-resultslab-eu-lab"
          ]
        },
        "performer": [
          {
            "display": "The Central European Lab"
          }
        ],
        "category": [
          {
            "coding": [
              {
                "system": "http://terminology.hl7.org/CodeSystem/observation-category",
                "code": "laboratory"
              }
            ]
          }
        ],
        "code": {
          "coding": [
            {
              "code": "4548-4",
              "system": "http://loinc.org",
              "display": "Hemoglobin A1c/Hemoglobin.total in Blood"
            }
          ],
          "text": "Hemoglobin A1c/Hemoglobin.total in Blood"
        },
        "valueQuantity": {
          "system": "http://unitsofmeasure.org",
          "value": 3.3,
          "unit": "%",
          "code": "%"
        },
        "referenceRange": [
          {
            "low": {
              "value": 4.3,
              "code": "%",
              "system": "http://unitsofmeasure.org"
            }
          },
          {
            "high": {
              "value": 6,
              "code": "%",
              "system": "http://unitsofmeasure.org"
            }
          }
        ],
        "interpretation": [
          {
            "coding": [
              {
                "code": "L",
                "system": "http://terminology.hl7.org/CodeSystem/v3-ObservationInterpretation",
                "display": "Low"
              }
            ]
          }
        ],
        "text": {
          "status": "generated",
          "div": "<div xmlns=\"http://www.w3.org/1999/xhtml\"><table class=\"hl7__eu__lab__report\"><tr><th>Test</th><th>05-Apr-2024</th><th>Reference&#xA0;Range</th><th>Unit</th></tr><tr><td>Hemoglobin A1c/Hemoglobin.total in Blood</td><td>3.3</td><td>4.3 - 6</td><td>L</td><td>%</td></tr></table></div>"
        },
        "status": "final",
        "subject": {
          "reference": "urn:uuid:4163cb00-379e-4d79-a74d-f9afa41c7919",
          "display": "Victor Lagarde"
        },
        "effectiveDateTime": "2024-04-05T04:48:18Z",
        "specimen": {
          "reference": "urn:uuid:149e61e6-8b1f-49b5-b40d-6624539d9e27"
        }
      }
    },
    {
      "fullUrl": "urn:uuid:49dc4085-3f9c-4a63-83af-7c3928bceee9",
      "resource": {
        "resourceType": "Observation",
        "id": "49dc4085-3f9c-4a63-83af-7c3928bceee9",
        "meta": {
          "profile": [
            "http://hl7.eu/fhir/laboratory/StructureDefinition/Observation-resultslab-eu-lab"
          ]
        },
        "performer": [
          {
            "display": "The Central European Lab"
          }
        ],
        "category": [
          {
            "coding": [
              {
                "system": "http://terminology.hl7.org/CodeSystem/observation-category",
                "code": "laboratory"
              }
            ]
          }
        ],
        "code": {
          "coding": [
            {
              "code": "2339-0",
              "system": "http://loinc.org",
              "display": "Glucose [Mass/volume] in Blood"
            }
          ],
          "text": "Glucose [Mass/volume] in Blood"
        },
        "valueQuantity": {
          "system": "http://unitsofmeasure.org",
          "value": 71.7,
          "unit": "mg/dL",
          "code": "mg/dL"
        },
        "referenceRange": [
          {
            "low": {
              "value": 70,
              "code": "mg/dL",
              "system": "http://unitsofmeasure.org"
            }
          },
          {
            "high": {
              "value": 140,
              "code": "mg/dL",
              "system": "http://unitsofmeasure.org"
            }
          }
        ],
        "text": {
          "status": "generated",
          "div": "<div xmlns=\"http://www.w3.org/1999/xhtml\"><table class=\"hl7__eu__lab__report\"><tr><th>Test</th><th>05-Apr-2024</th><th>Reference&#xA0;Range</th><th>Unit</th></tr><tr><td>Glucose [Mass/volume] in Blood</td><td>71.7</td><td>70 - 140</td><td></td><td>mg/dL</td></tr></table></div>"
        },
        "status": "final",
        "subject": {
          "reference": "urn:uuid:4163cb00-379e-4d79-a74d-f9afa41c7919",
          "display": "Victor Lagarde"
        },
        "effectiveDateTime": "2024-04-05T04:48:18Z",
        "specimen": {
          "reference": "urn:uuid:149e61e6-8b1f-49b5-b40d-6624539d9e27"
        }
      }
    },
    {
      "fullUrl": "urn:uuid:15323f82-60fa-4aae-9e67-4caad9e6533e",
      "resource": {
        "resourceType": "Observation",
        "id": "15323f82-60fa-4aae-9e67-4caad9e6533e",
        "meta": {
          "profile": [
            "http://hl7.eu/fhir/laboratory/StructureDefinition/Observation-resultslab-eu-lab"
          ]
        },
        "performer": [
          {
            "display": "The Central European Lab"
          }
        ],
        "category": [
          {
            "coding": [
              {
                "system": "http://terminology.hl7.org/CodeSystem/observation-category",
                "code": "laboratory"
              }
            ]
          }
        ],
        "code": {
          "coding": [
            {
              "code": "6299-2",
              "system": "http://loinc.org",
              "display": "Urea nitrogen [Mass/volume] in Blood"
            }
          ],
          "text": "Urea nitrogen [Mass/volume] in Blood"
        },
        "valueQuantity": {
          "system": "http://unitsofmeasure.org",
          "value": 16.9,
          "unit": "mg/dL",
          "code": "mg/dL"
        },
        "referenceRange": [
          {
            "low": {
              "value": 7,
              "code": "mg/dL",
              "system": "http://unitsofmeasure.org"
            }
          },
          {
            "high": {
              "value": 20,
              "code": "mg/dL",
              "system": "http://unitsofmeasure.org"
            }
          }
        ],
        "text": {
          "status": "generated",
          "div": "<div xmlns=\"http://www.w3.org/1999/xhtml\"><table class=\"hl7__eu__lab__report\"><tr><th>Test</th><th>05-Apr-2024</th><th>Reference&#xA0;Range</th><th>Unit</th></tr><tr><td>Urea nitrogen [Mass/volume] in Blood</td><td>16.9</td><td>7 - 20</td><td></td><td>mg/dL</td></tr></table></div>"
        },
        "status": "final",
        "subject": {
          "reference": "urn:uuid:4163cb00-379e-4d79-a74d-f9afa41c7919",
          "display": "Victor Lagarde"
        },
        "effectiveDateTime": "2024-04-05T04:48:18Z",
        "specimen": {
          "reference": "urn:uuid:149e61e6-8b1f-49b5-b40d-6624539d9e27"
        }
      }
    },
    {
      "fullUrl": "urn:uuid:013cf329-5058-4887-94dc-e4d3fc3608a5",
      "resource": {
        "resourceType": "Observation",
        "id": "013cf329-5058-4887-94dc-e4d3fc3608a5",
        "meta": {
          "profile": [
            "http://hl7.eu/fhir/laboratory/StructureDefinition/Observation-resultslab-eu-lab"
          ]
        },
        "performer": [
          {
            "display": "The Central European Lab"
          }
        ],
        "category": [
          {
            "coding": [
              {
                "system": "http://terminology.hl7.org/CodeSystem/observation-category",
                "code": "laboratory"
              }
            ]
          }
        ],
        "code": {
          "coding": [
            {
              "code": "38483-4",
              "system": "http://loinc.org",
              "display": "Creatinine [Mass/volume] in Blood"
            }
          ],
          "text": "Creatinine [Mass/volume] in Blood"
        },
        "valueQuantity": {
          "system": "http://unitsofmeasure.org",
          "value": 3.9,
          "unit": "mg/dL",
          "code": "mg/dL"
        },
        "referenceRange": [
          {
            "low": {
              "value": 0.9,
              "code": "mg/dL",
              "system": "http://unitsofmeasure.org"
            }
          },
          {
            "high": {
              "value": 1.3,
              "code": "mg/dL",
              "system": "http://unitsofmeasure.org"
            }
          }
        ],
        "interpretation": [
          {
            "coding": [
              {
                "code": "H",
                "system": "http://terminology.hl7.org/CodeSystem/v3-ObservationInterpretation",
                "display": "High"
              }
            ]
          }
        ],
        "text": {
          "status": "generated",
          "div": "<div xmlns=\"http://www.w3.org/1999/xhtml\"><table class=\"hl7__eu__lab__report\"><tr><th>Test</th><th>05-Apr-2024</th><th>Reference&#xA0;Range</th><th>Unit</th></tr><tr><td>Creatinine [Mass/volume] in Blood</td><td>3.9</td><td>0.9 - 1.3</td><td>H</td><td>mg/dL</td></tr></table></div>"
        },
        "status": "final",
        "subject": {
          "reference": "urn:uuid:4163cb00-379e-4d79-a74d-f9afa41c7919",
          "display": "Victor Lagarde"
        },
        "effectiveDateTime": "2024-04-05T04:48:18Z",
        "specimen": {
          "reference": "urn:uuid:149e61e6-8b1f-49b5-b40d-6624539d9e27"
        }
      }
    },
    {
      "fullUrl": "urn:uuid:ee7735f2-112e-4163-970c-8942980bb2c3",
      "resource": {
        "resourceType": "Observation",
        "id": "ee7735f2-112e-4163-970c-8942980bb2c3",
        "meta": {
          "profile": [
            "http://hl7.eu/fhir/laboratory/StructureDefinition/Observation-resultslab-eu-lab"
          ]
        },
        "performer": [
          {
            "display": "The Central European Lab"
          }
        ],
        "category": [
          {
            "coding": [
              {
                "system": "http://terminology.hl7.org/CodeSystem/observation-category",
                "code": "laboratory"
              }
            ]
          }
        ],
        "code": {
          "coding": [
            {
              "code": "49765-1",
              "system": "http://loinc.org",
              "display": "Calcium [Mass/volume] in Blood"
            }
          ],
          "text": "Calcium [Mass/volume] in Blood"
        },
        "valueQuantity": {
          "system": "http://unitsofmeasure.org",
          "value": 10.1,
          "unit": "mg/dL",
          "code": "mg/dL"
        },
        "referenceRange": [
          {
            "low": {
              "value": 8.5,
              "code": "mg/dL",
              "system": "http://unitsofmeasure.org"
            }
          },
          {
            "high": {
              "value": 10.5,
              "code": "mg/dL",
              "system": "http://unitsofmeasure.org"
            }
          }
        ],
        "text": {
          "status": "generated",
          "div": "<div xmlns=\"http://www.w3.org/1999/xhtml\"><table class=\"hl7__eu__lab__report\"><tr><th>Test</th><th>05-Apr-2024</th><th>Reference&#xA0;Range</th><th>Unit</th></tr><tr><td>Calcium [Mass/volume] in Blood</td><td>10.1</td><td>8.5 - 10.5</td><td></td><td>mg/dL</td></tr></table></div>"
        },
        "status": "final",
        "subject": {
          "reference": "urn:uuid:4163cb00-379e-4d79-a74d-f9afa41c7919",
          "display": "Victor Lagarde"
        },
        "effectiveDateTime": "2024-04-05T04:48:18Z",
        "specimen": {
          "reference": "urn:uuid:149e61e6-8b1f-49b5-b40d-6624539d9e27"
        }
      }
    },
    {
      "fullUrl": "urn:uuid:6370d285-d8be-43dd-937a-a7fb04c82a12",
      "resource": {
        "resourceType": "Observation",
        "id": "6370d285-d8be-43dd-937a-a7fb04c82a12",
        "meta": {
          "profile": [
            "http://hl7.eu/fhir/laboratory/StructureDefinition/Observation-resultslab-eu-lab"
          ]
        },
        "performer": [
          {
            "display": "The Central European Lab"
          }
        ],
        "category": [
          {
            "coding": [
              {
                "system": "http://terminology.hl7.org/CodeSystem/observation-category",
                "code": "laboratory"
              }
            ]
          }
        ],
        "code": {
          "coding": [
            {
              "code": "2947-0",
              "system": "http://loinc.org",
              "display": "Sodium [Moles/volume] in Blood"
            }
          ],
          "text": "Sodium [Moles/volume] in Blood"
        },
        "valueQuantity": {
          "system": "http://unitsofmeasure.org",
          "value": 136,
          "unit": "mmol/L",
          "code": "mmol/L"
        },
        "referenceRange": [
          {
            "low": {
              "value": 135,
              "code": "mmol/L",
              "system": "http://unitsofmeasure.org"
            }
          },
          {
            "high": {
              "value": 145,
              "code": "mmol/L",
              "system": "http://unitsofmeasure.org"
            }
          }
        ],
        "text": {
          "status": "generated",
          "div": "<div xmlns=\"http://www.w3.org/1999/xhtml\"><table class=\"hl7__eu__lab__report\"><tr><th>Test</th><th>05-Apr-2024</th><th>Reference&#xA0;Range</th><th>Unit</th></tr><tr><td>Sodium [Moles/volume] in Blood</td><td>136.0</td><td>135 - 145</td><td></td><td>mmol/L</td></tr></table></div>"
        },
        "status": "final",
        "subject": {
          "reference": "urn:uuid:4163cb00-379e-4d79-a74d-f9afa41c7919",
          "display": "Victor Lagarde"
        },
        "effectiveDateTime": "2024-04-05T04:48:18Z",
        "specimen": {
          "reference": "urn:uuid:149e61e6-8b1f-49b5-b40d-6624539d9e27"
        }
      }
    },
    {
      "fullUrl": "urn:uuid:73a3c623-16c4-469d-9a39-1a45519c80b0",
      "resource": {
        "resourceType": "Observation",
        "id": "73a3c623-16c4-469d-9a39-1a45519c80b0",
        "meta": {
          "profile": [
            "http://hl7.eu/fhir/laboratory/StructureDefinition/Observation-resultslab-eu-lab"
          ]
        },
        "performer": [
          {
            "display": "The Central European Lab"
          }
        ],
        "category": [
          {
            "coding": [
              {
                "system": "http://terminology.hl7.org/CodeSystem/observation-category",
                "code": "laboratory"
              }
            ]
          }
        ],
        "code": {
          "coding": [
            {
              "code": "6298-4",
              "system": "http://loinc.org",
              "display": "Potassium [Moles/volume] in Blood"
            }
          ],
          "text": "Potassium [Moles/volume] in Blood"
        },
        "valueQuantity": {
          "system": "http://unitsofmeasure.org",
          "value": 4,
          "unit": "mmol/L",
          "code": "mmol/L"
        },
        "referenceRange": [
          {
            "low": {
              "value": 3.5,
              "code": "mmol/L",
              "system": "http://unitsofmeasure.org"
            }
          },
          {
            "high": {
              "value": 5.1,
              "code": "mmol/L",
              "system": "http://unitsofmeasure.org"
            }
          }
        ],
        "text": {
          "status": "generated",
          "div": "<div xmlns=\"http://www.w3.org/1999/xhtml\"><table class=\"hl7__eu__lab__report\"><tr><th>Test</th><th>05-Apr-2024</th><th>Reference&#xA0;Range</th><th>Unit</th></tr><tr><td>Potassium [Moles/volume] in Blood</td><td>4.0</td><td>3.5 - 5.1</td><td></td><td>mmol/L</td></tr></table></div>"
        },
        "status": "final",
        "subject": {
          "reference": "urn:uuid:4163cb00-379e-4d79-a74d-f9afa41c7919",
          "display": "Victor Lagarde"
        },
        "effectiveDateTime": "2024-04-05T04:48:18Z",
        "specimen": {
          "reference": "urn:uuid:149e61e6-8b1f-49b5-b40d-6624539d9e27"
        }
      }
    },
    {
      "fullUrl": "urn:uuid:58f1c530-2335-457e-94dd-1ca359826312",
      "resource": {
        "resourceType": "Observation",
        "id": "58f1c530-2335-457e-94dd-1ca359826312",
        "meta": {
          "profile": [
            "http://hl7.eu/fhir/laboratory/StructureDefinition/Observation-resultslab-eu-lab"
          ]
        },
        "performer": [
          {
            "display": "The Central European Lab"
          }
        ],
        "category": [
          {
            "coding": [
              {
                "system": "http://terminology.hl7.org/CodeSystem/observation-category",
                "code": "laboratory"
              }
            ]
          }
        ],
        "code": {
          "coding": [
            {
              "code": "2069-3",
              "system": "http://loinc.org",
              "display": "Chloride [Moles/volume] in Blood"
            }
          ],
          "text": "Chloride [Moles/volume] in Blood"
        },
        "valueQuantity": {
          "system": "http://unitsofmeasure.org",
          "value": 107.1,
          "unit": "mmol/L",
          "code": "mmol/L"
        },
        "referenceRange": [
          {
            "low": {
              "value": 98,
              "code": "mmol/L",
              "system": "http://unitsofmeasure.org"
            }
          },
          {
            "high": {
              "value": 108,
              "code": "mmol/L",
              "system": "http://unitsofmeasure.org"
            }
          }
        ],
        "text": {
          "status": "generated",
          "div": "<div xmlns=\"http://www.w3.org/1999/xhtml\"><table class=\"hl7__eu__lab__report\"><tr><th>Test</th><th>05-Apr-2024</th><th>Reference&#xA0;Range</th><th>Unit</th></tr><tr><td>Chloride [Moles/volume] in Blood</td><td>107.1</td><td>98 - 108</td><td></td><td>mmol/L</td></tr></table></div>"
        },
        "status": "final",
        "subject": {
          "reference": "urn:uuid:4163cb00-379e-4d79-a74d-f9afa41c7919",
          "display": "Victor Lagarde"
        },
        "effectiveDateTime": "2024-04-05T04:48:18Z",
        "specimen": {
          "reference": "urn:uuid:149e61e6-8b1f-49b5-b40d-6624539d9e27"
        }
      }
    },
    {
      "fullUrl": "urn:uuid:09350bd8-9eee-4816-bdde-d985a783a51a",
      "resource": {
        "resourceType": "Observation",
        "id": "09350bd8-9eee-4816-bdde-d985a783a51a",
        "meta": {
          "profile": [
            "http://hl7.eu/fhir/laboratory/StructureDefinition/Observation-resultslab-eu-lab"
          ]
        },
        "performer": [
          {
            "display": "The Central European Lab"
          }
        ],
        "category": [
          {
            "coding": [
              {
                "system": "http://terminology.hl7.org/CodeSystem/observation-category",
                "code": "laboratory"
              }
            ]
          }
        ],
        "code": {
          "coding": [
            {
              "code": "20565-8",
              "system": "http://loinc.org",
              "display": "Carbon dioxide, total [Moles/volume] in Blood"
            }
          ],
          "text": "Carbon dioxide, total [Moles/volume] in Blood"
        },
        "valueQuantity": {
          "system": "http://unitsofmeasure.org",
          "value": 25.8,
          "unit": "mmol/L",
          "code": "mmol/L"
        },
        "referenceRange": [
          {
            "low": {
              "value": 22,
              "code": "mmol/L",
              "system": "http://unitsofmeasure.org"
            }
          },
          {
            "high": {
              "value": 29,
              "code": "mmol/L",
              "system": "http://unitsofmeasure.org"
            }
          }
        ],
        "text": {
          "status": "generated",
          "div": "<div xmlns=\"http://www.w3.org/1999/xhtml\"><table class=\"hl7__eu__lab__report\"><tr><th>Test</th><th>05-Apr-2024</th><th>Reference&#xA0;Range</th><th>Unit</th></tr><tr><td>Carbon dioxide, total [Moles/volume] in Blood</td><td>25.8</td><td>22 - 29</td><td></td><td>mmol/L</td></tr></table></div>"
        },
        "status": "final",
        "subject": {
          "reference": "urn:uuid:4163cb00-379e-4d79-a74d-f9afa41c7919",
          "display": "Victor Lagarde"
        },
        "effectiveDateTime": "2024-04-05T04:48:18Z",
        "specimen": {
          "reference": "urn:uuid:149e61e6-8b1f-49b5-b40d-6624539d9e27"
        }
      }
    },
    {
      "fullUrl": "urn:uuid:9f56fa68-5d74-4f84-9ee4-bca73f4eb854",
      "resource": {
        "resourceType": "Device",
        "id": "9f56fa68-5d74-4f84-9ee4-bca73f4eb854",
        "deviceName": [
          {
            "name": "SYNDERAI Synthetic Generator",
            "type": "manufacturer-name"
          }
        ],
        "version": [
          {
            "value": "5.0"
          }
        ],
        "text": {
          "status": "generated",
          "div": "<div xmlns=\"http://www.w3.org/1999/xhtml\">SYNDERAI Synthetic Generator v5.0</div>"
        },
        "status": "active\"",
        "distinctIdentifier": "synderai-generator-50",
        "manufacturer": "SYNDERAI Project"
      }
    },
    {
      "fullUrl": "urn:uuid:97e6cdbb-92da-4021-997f-fc9c576dbc08",
      "resource": {
        "resourceType": "Provenance",
        "id": "97e6cdbb-92da-4021-997f-fc9c576dbc08",
        "target": [
          {
            "reference": "Patient/4163cb00-379e-4d79-a74d-f9afa41c7919"
          },
          {
            "reference": "Bundle/313da934-2412-478a-9409-98f7513f2163"
          },
          {
            "reference": "Composition/916f85f8-4d1c-4536-830c-c5c2c3b1067f"
          },
          {
            "reference": "PractitionerRole/d82dea4d-a873-4785-bd0b-4c190daab810"
          },
          {
            "reference": "Practitioner/53c66087-89de-45d9-b596-9bc6706b772b"
          },
          {
            "reference": "PractitionerRole/563f5f70-4355-4b44-b116-d8efe016684f"
          },
          {
            "reference": "Organization/27863125-8205-47da-89b3-056267f96f30"
          }
        ],
        "activity": {
          "text": "Synthetic Example Data Generation"
        },
        "policy": [
          "https://synderai.net/synderai-synthetic-data-policy"
        ],
        "agent": [
          {
            "type": {
              "text": "author"
            },
            "who": {
              "reference": "Device/9f56fa68-5d74-4f84-9ee4-bca73f4eb854"
            }
          }
        ],
        "reason": [
          {
            "text": "Interoperability Testing and Training (non-clinical use)"
          }
        ],
        "text": {
          "status": "generated",
          "div": "<div xmlns=\"http://www.w3.org/1999/xhtml\">Provenance for SYNDERAI Synthetic Example Data Resource</div>"
        },
        "recorded": "2024-04-05T06:48:18Z"
      }
    },
    {
      "fullUrl": "urn:uuid:d82dea4d-a873-4785-bd0b-4c190daab810",
      "resource": {
        "resourceType": "PractitionerRole",
        "id": "d82dea4d-a873-4785-bd0b-4c190daab810",
        "meta": {
          "profile": [
            "http://hl7.eu/fhir/base/StructureDefinition/practitionerRole-eu"
          ]
        },
        "text": {
          "status": "generated",
          "div": "<div xmlns=\"http://www.w3.org/1999/xhtml\">Laboratory Role Id: d82dea4d-a873-4785-bd0b-4c190daab810</div>"
        },
        "practitioner": {
          "reference": "urn:uuid:53c66087-89de-45d9-b596-9bc6706b772b"
        }
      }
    },
    {
      "fullUrl": "urn:uuid:53c66087-89de-45d9-b596-9bc6706b772b",
      "resource": {
        "resourceType": "Practitioner",
        "id": "53c66087-89de-45d9-b596-9bc6706b772b",
        "meta": {
          "profile": [
            "http://hl7.eu/fhir/base/StructureDefinition/practitioner-eu"
          ]
        },
        "identifier": [
          {
            "assigner": {
              "display": "HL7 Europe"
            },
            "system": "urn:oid:2.16.840.1.113883.2.51.999",
            "value": "9e5fa8f5-28d7-4b62-a271-2b4ba7539145"
          }
        ],
        "name": [
          {
            "prefix": [
              "dr"
            ],
            "given": [
              "Ex"
            ],
            "family": "Ample"
          }
        ],
        "address": [
          {
            "line": [
              "Laboratoire Central Europenne",
              "Boulevard du Jardin Botanique 32"
            ],
            "postalCode": "1000",
            "city": "Brussels",
            "country": "Belgium"
          }
        ],
        "text": {
          "status": "generated",
          "div": "<div xmlns=\"http://www.w3.org/1999/xhtml\">Laboratory: Laboratoire Central Europenne, 1000 Brussels, Belgium</div>"
        }
      }
    }
  ],
  "type": "document",
  "timestamp": "2024-04-05T06:48:18Z"
}
