{
  "resourceType": "Bundle",
  "id": "edf49b2a-4fbb-4791-8e2f-1a90341f88d9",
  "meta": {
    "profile": [
      "http://hl7.eu/fhir/laboratory/StructureDefinition/Bundle-eu-lab"
    ]
  },
  "identifier": {
    "assigner": {
      "display": "HL7 Europe"
    },
    "system": "urn:oid:2.16.840.1.113883.2.51.999",
    "value": "2b117863-2434-478b-a29a-db389f739f52"
  },
  "entry": [
    {
      "fullUrl": "urn:uuid:59688dae-bf3d-47ac-b43c-60e80e2b1c76",
      "resource": {
        "resourceType": "Composition",
        "id": "59688dae-bf3d-47ac-b43c-60e80e2b1c76",
        "meta": {
          "profile": [
            "http://hl7.eu/fhir/laboratory/StructureDefinition/Composition-eu-lab"
          ]
        },
        "identifier": {
          "assigner": {
            "display": "HL7 Europe"
          },
          "system": "urn:oid:2.16.840.1.113883.2.51.999",
          "value": "dbc30e35-9135-462b-905b-e1e3467b7889"
        },
        "author": [
          {
            "reference": "urn:uuid:291d30e8-4f5f-402d-abb5-cdbd44a0c427"
          }
        ],
        "category": [
          {
            "coding": [
              {
                "code": "26436-6",
                "system": "http://loinc.org",
                "display": "Laboratory studies (set)"
              }
            ]
          }
        ],
        "type": {
          "coding": [
            {
              "code": "11502-2",
              "system": "http://loinc.org",
              "display": "Laboratory report"
            }
          ],
          "text": "Laboratory Report"
        },
        "section": [
          {
            "code": {
              "coding": [
                {
                  "code": "26436-6",
                  "system": "http://loinc.org",
                  "display": "Laboratory studies (set)"
                }
              ],
              "text": "Laboratory studies"
            },
            "section": [
              {
                "code": {
                  "coding": [
                    {
                      "code": "$18719-5",
                      "system": "http://loinc.org",
                      "display": "Chemistry studies (set)"
                    }
                  ],
                  "text": "Chemistry"
                },
                "entry": [
                  {
                    "reference": "urn:uuid:f5bcd76b-d5e3-4062-b31c-299c9dfe200c"
                  },
                  {
                    "reference": "urn:uuid:2824f4b1-de81-4627-ab88-32cf13d13446"
                  },
                  {
                    "reference": "urn:uuid:c2c593a9-a52d-43eb-8ef4-3c10fb8e2026"
                  },
                  {
                    "reference": "urn:uuid:a3e2e98e-6e05-464f-8e62-4a9fe57dda61"
                  },
                  {
                    "reference": "urn:uuid:d09b35d7-fc75-431b-b51c-b715e0fd92a5"
                  },
                  {
                    "reference": "urn:uuid:b22644aa-9cc7-4e66-b83f-43294bed3be8"
                  },
                  {
                    "reference": "urn:uuid:16194c97-6c66-46df-8b48-a88fe07d4818"
                  },
                  {
                    "reference": "urn:uuid:2ed4fa28-a768-4707-a59e-4c26b7bccb4b"
                  },
                  {
                    "reference": "urn:uuid:dee9b951-b560-4c27-ae62-c22cdcd00665"
                  },
                  {
                    "reference": "urn:uuid:a8d0671b-2617-499d-8a99-d78d0885b591"
                  },
                  {
                    "reference": "urn:uuid:ba50f068-c66f-431c-b596-4822169de66f"
                  },
                  {
                    "reference": "urn:uuid:aa08252e-2a84-4ad3-bdbc-8d487737083f"
                  },
                  {
                    "reference": "urn:uuid:414e3f3d-dfda-4c4b-b46a-e33350078bd8"
                  },
                  {
                    "reference": "urn:uuid:bca0fda3-4504-4a41-a50b-e0ac6e6ed793"
                  },
                  {
                    "reference": "urn:uuid:4055a662-335c-490a-a918-1c8be685ecbf"
                  },
                  {
                    "reference": "urn:uuid:eca2e1f6-526f-4baf-9df4-38db2c2db755"
                  }
                ],
                "text": {
                  "status": "generated",
                  "div": "<div xmlns=\"http://www.w3.org/1999/xhtml\"><h3>Chemistry</h3><table class=\"hl7__eu__lab__report\"><thead><tr><th>Test</th><th>27-JUL-2017</th><th>Reference&#xA0;Range</th><th>Unit</th></tr></thead><tbody><tr><td>Glucose [Mass/volume] in Blood</td><td>85.7</td><td>70 - 140</td><td>mg/dL</td></tr><tr><td>Urea nitrogen [Mass/volume] in Blood</td><td>7.8</td><td>7 - 30</td><td>mg/dL</td></tr><tr><td>Creatinine [Mass/volume] in Blood</td><td><strong>3.4 H</strong></td><td>0.5 - 1.3</td><td>mg/dL</td></tr><tr><td>Calcium [Mass/volume] in Blood</td><td>8.8</td><td>8.6 - 10.2</td><td>mg/dL</td></tr><tr><td>Sodium [Moles/volume] in Blood</td><td>140.9</td><td>135 - 145</td><td>mmol/L</td></tr><tr><td>Potassium [Moles/volume] in Blood</td><td>3.7</td><td>3.5 - 5.1</td><td>mmol/L</td></tr><tr><td>Chloride [Moles/volume] in Blood</td><td>102.0</td><td>98 - 114</td><td>mmol/L</td></tr><tr><td>Carbon dioxide, total [Moles/volume] in Blood</td><td>28.3</td><td>22 - 32</td><td>mmol/L</td></tr><tr><td>Protein [Mass/volume] in Serum or Plasma</td><td>8.0</td><td>6 - 8.3</td><td>g/dL</td></tr><tr><td>Albumin [Mass/volume] in Serum or Plasma</td><td>3.7</td><td>3.5 - 5.5</td><td>g/dL</td></tr><tr><td>Globulin [Mass/volume] in Serum by calculation</td><td>2.3</td><td>2 - 3.5</td><td>g/L</td></tr><tr><td>Bilirubin.total [Mass/volume] in Serum or Plasma</td><td>0.3</td><td>0.3 - 1.2</td><td>mg/dL</td></tr><tr><td>Alkaline phosphatase [Enzymatic activity/volume] in Serum or Plasma</td><td>48.9</td><td>44 - 142</td><td>U/L</td></tr><tr><td>Alanine aminotransferase [Enzymatic activity/volume] in Serum or Plasma</td><td><strong>57.5 H</strong></td><td>7 - 40</td><td>U/L</td></tr><tr><td>Aspartate aminotransferase [Enzymatic activity/volume] in Serum or Plasma</td><td>28.4</td><td>10 - 40</td><td>U/L</td></tr><tr><td>Ketones [Presence] in Urine by Test strip</td><td>Urine ketone test = +++</td><td></td><td></td></tr></tbody></table></div>"
                },
                "title": "Chemistry"
              },
              {
                "code": {
                  "coding": [
                    {
                      "code": "$18729-4",
                      "system": "http://loinc.org",
                      "display": "Urinalysis studies (set)"
                    }
                  ],
                  "text": "Urinalysis"
                },
                "entry": [
                  {
                    "reference": "urn:uuid:79067a05-574f-4761-a378-4e9183c60c1c"
                  },
                  {
                    "reference": "urn:uuid:7b7c443b-dbab-4f2a-a010-c54878a8127c"
                  },
                  {
                    "reference": "urn:uuid:0a2f1251-d12b-4e0d-a382-5de6da3a18b0"
                  },
                  {
                    "reference": "urn:uuid:4ea7351b-aaf0-4137-8a31-480842ada28e"
                  },
                  {
                    "reference": "urn:uuid:9c44faea-5828-43d4-ad65-2c702428b2b1"
                  },
                  {
                    "reference": "urn:uuid:3c445863-1a67-46c6-88d1-39cb53910efe"
                  },
                  {
                    "reference": "urn:uuid:f657a280-47ad-4a9f-9020-f97f7e08b9e6"
                  },
                  {
                    "reference": "urn:uuid:688f9054-a9e9-4c67-a89f-a255c0675876"
                  },
                  {
                    "reference": "urn:uuid:0058cdb9-d0d7-4dc2-b004-e0463afd5365"
                  },
                  {
                    "reference": "urn:uuid:10739b5b-2ded-467f-8804-b4af025be637"
                  },
                  {
                    "reference": "urn:uuid:085e92df-ca66-4499-aecf-d42dc0b5366c"
                  },
                  {
                    "reference": "urn:uuid:837b9317-58a9-4bec-bb35-111b997e0404"
                  }
                ],
                "text": {
                  "status": "generated",
                  "div": "<div xmlns=\"http://www.w3.org/1999/xhtml\"><h3>Urinalysis</h3><table class=\"hl7__eu__lab__report\"><thead><tr><th>Test</th><th>27-JUL-2017</th><th>Reference&#xA0;Range</th><th>Unit</th></tr></thead><tbody><tr><td>Glucose [Mass/volume] in Urine by Test strip</td><td><strong>0.7 L</strong></td><td>0.8 - 0</td><td>mg/dL</td></tr><tr><td>Glucose [Presence] in Urine by Test strip</td><td>++</td><td></td><td></td></tr><tr><td>Bilirubin.total [Mass/volume] in Urine by Test strip</td><td>1.0</td><td>0 - 1.5</td><td>mg/dL</td></tr><tr><td>Bilirubin.total [Presence] in Urine by Test strip</td><td>Finding of bilirubin in urine</td><td></td><td></td></tr><tr><td>Ketones [Mass/volume] in Urine by Test strip</td><td><strong>18.3 H</strong></td><td>0 - 8</td><td>mg/dL</td></tr><tr><td>Specific gravity of Urine by Test strip</td><td><strong>1.0 L</strong></td><td>1.01 - 1.03</td><td>{nominal}</td></tr><tr><td>pH of Urine by Test strip</td><td>5.9</td><td>4.6 - 7.5</td><td>pH</td></tr><tr><td>Protein [Mass/volume] in Urine by Test strip</td><td><strong>255.4 H</strong></td><td>0 - 14</td><td>mg/dL</td></tr><tr><td>Protein [Presence] in Urine by Test strip</td><td>Urine protein test = +++</td><td></td><td></td></tr><tr><td>Nitrite [Presence] in Urine by Test strip</td><td>Urine nitrite negative</td><td></td><td></td></tr><tr><td>Hemoglobin [Presence] in Urine by Test strip</td><td>Urine blood test = negative</td><td></td><td></td></tr><tr><td>Leukocyte esterase [Presence] in Urine by Test strip</td><td>Urine leukocyte test negative</td><td></td><td></td></tr></tbody></table></div>"
                },
                "title": "Urinalysis"
              },
              {
                "code": {
                  "coding": [
                    {
                      "code": "$LP7846-1",
                      "system": "http://loinc.org",
                      "display": "Specimen information"
                    }
                  ],
                  "text": "Specimen information"
                },
                "entry": [
                  {
                    "reference": "urn:uuid:418f05a6-101d-48f5-a701-3876d14976cb"
                  },
                  {
                    "reference": "urn:uuid:01c8eced-cba8-4ed7-a8e6-98e24a0ae210"
                  },
                  {
                    "reference": "urn:uuid:16e223c1-edef-4ad4-91bd-dd1491c355c7"
                  },
                  {
                    "reference": "urn:uuid:cbd156f0-bee9-4470-8f96-2bab1066bfd7"
                  }
                ],
                "text": {
                  "status": "generated",
                  "div": "<div xmlns=\"http://www.w3.org/1999/xhtml\"><h3>Specimen information</h3><table class=\"hl7__eu__lab__report\"><thead><tr><th>Test</th><th>27-JUL-2017</th><th>Specimen</th><th></th></tr></thead><tbody><tr><td>Appearance of Urine</td><td>Cloudy urine</td><td>Urine</td><td></td></tr><tr><td>Odor of Urine</td><td>Urine smell ammoniacal</td><td>Urine</td><td></td></tr><tr><td>Clarity of Urine</td><td>Translucent</td><td>Urine</td><td></td></tr><tr><td>Color of Urine</td><td>Brown color</td><td>Urine</td><td></td></tr></tbody></table></div>"
                },
                "title": "Specimen information"
              }
            ],
            "title": "Laboratory Report"
          },
          {
            "text": {
              "status": "generated",
              "div": "<div xmlns=\"http://www.w3.org/1999/xhtml\"><h3>Annotation</h3><table class=\"hl7__eu__lab__report\"><tr><th>Conclusion and Recommendations based on this report and previous findings known to us</th></tr><tr><td>The patient shows markedly elevated serum creatinine, indicating significant renal impairment, and elevated ALT, suggesting possible liver involvement. Urinalysis reveals proteinuria, glucosuria, ketonuria, low specific gravity, and abnormal urine appearance, supporting renal dysfunction and possible metabolic derangement (e.g., diabetes or dehydration). No evidence of urinary tract infection. Recommend urgent clinical evaluation for acute or chronic kidney disease and metabolic assessment.</td></tr></table></div>"
            },
            "code": {
              "coding": [
                {
                  "system": "http://loinc.org",
                  "code": "48767-8",
                  "display": "Annotation comment"
                }
              ]
            },
            "title": "Annotation comment"
          }
        ],
        "status": "final",
        "subject": {
          "reference": "urn:uuid:c64fde65-7c74-4cde-809a-f9c931c1c974",
          "display": "Maria Nohlmans"
        },
        "date": "2017-07-27T23:37:39Z",
        "title": "Laboratory Report",
        "confidentiality": "N"
      }
    },
    {
      "fullUrl": "urn:uuid:8714d156-2952-4a92-8083-1643a057eb1e",
      "resource": {
        "resourceType": "DiagnosticReport",
        "id": "8714d156-2952-4a92-8083-1643a057eb1e",
        "meta": {
          "profile": [
            "http://hl7.eu/fhir/laboratory/StructureDefinition/DiagnosticReport-eu-lab"
          ]
        },
        "identifier": [
          {
            "assigner": {
              "display": "HL7 Europe"
            },
            "system": "urn:oid:2.16.840.1.113883.2.51.999",
            "value": "afe4addd-7453-47c0-9f80-ef58c76d15fb"
          }
        ],
        "extension": [
          {
            "url": "http://hl7.org/fhir/5.0/StructureDefinition/extension-DiagnosticReport.composition",
            "valueReference": {
              "reference": "urn:uuid:dbc30e35-9135-462b-905b-e1e3467b7889"
            }
          }
        ],
        "category": [
          {
            "coding": [
              {
                "code": "26436-6",
                "system": "http://loinc.org",
                "display": "Laboratory studies (set)"
              }
            ]
          }
        ],
        "specimen": [
          {
            "reference": "urn:uuid:d22effce-b2b8-4e20-9ce1-d5bb4391dced"
          },
          {
            "reference": "urn:uuid:dea4bf4a-8c73-4f0b-85f0-d65893653f26"
          },
          {
            "reference": "urn:uuid:4736ff0d-55bc-45d2-ab90-4f8f1400e6b5"
          },
          {
            "reference": "urn:uuid:9cc53633-ba88-48a5-ba3c-16d022e1f49d"
          }
        ],
        "result": [
          {
            "reference": "urn:uuid:f5bcd76b-d5e3-4062-b31c-299c9dfe200c"
          },
          {
            "reference": "urn:uuid:2824f4b1-de81-4627-ab88-32cf13d13446"
          },
          {
            "reference": "urn:uuid:c2c593a9-a52d-43eb-8ef4-3c10fb8e2026"
          },
          {
            "reference": "urn:uuid:a3e2e98e-6e05-464f-8e62-4a9fe57dda61"
          },
          {
            "reference": "urn:uuid:d09b35d7-fc75-431b-b51c-b715e0fd92a5"
          },
          {
            "reference": "urn:uuid:b22644aa-9cc7-4e66-b83f-43294bed3be8"
          },
          {
            "reference": "urn:uuid:16194c97-6c66-46df-8b48-a88fe07d4818"
          },
          {
            "reference": "urn:uuid:2ed4fa28-a768-4707-a59e-4c26b7bccb4b"
          },
          {
            "reference": "urn:uuid:dee9b951-b560-4c27-ae62-c22cdcd00665"
          },
          {
            "reference": "urn:uuid:a8d0671b-2617-499d-8a99-d78d0885b591"
          },
          {
            "reference": "urn:uuid:ba50f068-c66f-431c-b596-4822169de66f"
          },
          {
            "reference": "urn:uuid:aa08252e-2a84-4ad3-bdbc-8d487737083f"
          },
          {
            "reference": "urn:uuid:414e3f3d-dfda-4c4b-b46a-e33350078bd8"
          },
          {
            "reference": "urn:uuid:bca0fda3-4504-4a41-a50b-e0ac6e6ed793"
          },
          {
            "reference": "urn:uuid:4055a662-335c-490a-a918-1c8be685ecbf"
          },
          {
            "reference": "urn:uuid:418f05a6-101d-48f5-a701-3876d14976cb"
          },
          {
            "reference": "urn:uuid:01c8eced-cba8-4ed7-a8e6-98e24a0ae210"
          },
          {
            "reference": "urn:uuid:16e223c1-edef-4ad4-91bd-dd1491c355c7"
          },
          {
            "reference": "urn:uuid:cbd156f0-bee9-4470-8f96-2bab1066bfd7"
          },
          {
            "reference": "urn:uuid:79067a05-574f-4761-a378-4e9183c60c1c"
          },
          {
            "reference": "urn:uuid:7b7c443b-dbab-4f2a-a010-c54878a8127c"
          },
          {
            "reference": "urn:uuid:0a2f1251-d12b-4e0d-a382-5de6da3a18b0"
          },
          {
            "reference": "urn:uuid:4ea7351b-aaf0-4137-8a31-480842ada28e"
          },
          {
            "reference": "urn:uuid:9c44faea-5828-43d4-ad65-2c702428b2b1"
          },
          {
            "reference": "urn:uuid:eca2e1f6-526f-4baf-9df4-38db2c2db755"
          },
          {
            "reference": "urn:uuid:3c445863-1a67-46c6-88d1-39cb53910efe"
          },
          {
            "reference": "urn:uuid:f657a280-47ad-4a9f-9020-f97f7e08b9e6"
          },
          {
            "reference": "urn:uuid:688f9054-a9e9-4c67-a89f-a255c0675876"
          },
          {
            "reference": "urn:uuid:0058cdb9-d0d7-4dc2-b004-e0463afd5365"
          },
          {
            "reference": "urn:uuid:10739b5b-2ded-467f-8804-b4af025be637"
          },
          {
            "reference": "urn:uuid:085e92df-ca66-4499-aecf-d42dc0b5366c"
          },
          {
            "reference": "urn:uuid:837b9317-58a9-4bec-bb35-111b997e0404"
          }
        ],
        "status": "registered",
        "code": {
          "coding": [
            {
              "code": "11502-2",
              "system": "http://loinc.org",
              "display": "Laboratory report"
            }
          ]
        },
        "subject": {
          "reference": "urn:uuid:c64fde65-7c74-4cde-809a-f9c931c1c974",
          "display": "Maria Nohlmans"
        }
      }
    },
    {
      "fullUrl": "urn:uuid:c64fde65-7c74-4cde-809a-f9c931c1c974",
      "resource": {
        "resourceType": "Patient",
        "id": "c64fde65-7c74-4cde-809a-f9c931c1c974",
        "meta": {
          "security": [
            {
              "system": "http://terminology.hl7.org/CodeSystem/v3-ActReason",
              "code": "HTEST"
            },
            {
              "system": "http://terminology.hl7.org/CodeSystem/v3-ActReason",
              "code": "TRAIN"
            }
          ],
          "tag": [
            {
              "system": "https://synderai.net/fhir/CodeSystem/tags",
              "code": "synthetic",
              "display": "SYNDERAI Synthetic data"
            }
          ],
          "profile": [
            "http://hl7.eu/fhir/base/StructureDefinition/patient-eu-core"
          ]
        },
        "identifier": [
          {
            "type": {
              "coding": [
                {
                  "code": "PT",
                  "system": "http://terminology.hl7.org/CodeSystem/v2-0203"
                }
              ]
            },
            "system": "http://ec.europa.eu/identifier/eci",
            "value": "6886-506417-1"
          },
          {
            "type": {
              "coding": [
                {
                  "code": "MR",
                  "system": "http://terminology.hl7.org/CodeSystem/v2-0203"
                }
              ]
            },
            "system": "http://local.setting.eu/identifier",
            "value": "2cb21ed6-b617-b1f3-2290-589a710de5ee"
          }
        ],
        "name": [
          {
            "family": "Nohlmans"
          },
          {
            "given": [
              "Maria"
            ]
          },
          {
            "text": "Maria Nohlmans"
          }
        ],
        "address": [
          {
            "line": [
              "Alfons-Wulff-Weg 1"
            ],
            "use": "home",
            "type": "physical",
            "postalCode": "25813",
            "city": "Husum",
            "country": "Germany"
          }
        ],
        "telecom": [
          {
            "system": "phone",
            "value": "+49(0)1911 105501"
          }
        ],
        "extension": [
          {
            "url": "http://hl7.org/fhir/StructureDefinition/patient-nationality",
            "valueCodeableConcept": {
              "coding": [
                {
                  "code": "DE",
                  "system": "http://hl7.org/fhir/ValueSet/country"
                }
              ]
            }
          }
        ],
        "text": {
          "status": "generated",
          "div": "<div xmlns=\"http://www.w3.org/1999/xhtml\"><table class=\"hl7__ips\"><tr><td>Maria Nohlmans</td><td>female</td><td>11-Jun-1947</td></tr></table></div>"
        },
        "gender": "female",
        "birthDate": "1947-06-11"
      }
    },
    {
      "fullUrl": "urn:uuid:65745859-c418-4863-8934-5f4cf75787d9",
      "resource": {
        "resourceType": "ServiceRequest",
        "id": "65745859-c418-4863-8934-5f4cf75787d9",
        "meta": {
          "profile": [
            "http://hl7.eu/fhir/laboratory/StructureDefinition/ServiceRequest-eu-lab"
          ]
        },
        "identifier": [
          {
            "system": "http://example.org",
            "value": "e0dba557-57c7-4843-9a1e-973e51f5b748"
          }
        ],
        "specimen": [
          {
            "reference": "urn:uuid:d22effce-b2b8-4e20-9ce1-d5bb4391dced"
          },
          {
            "reference": "urn:uuid:dea4bf4a-8c73-4f0b-85f0-d65893653f26"
          },
          {
            "reference": "urn:uuid:4736ff0d-55bc-45d2-ab90-4f8f1400e6b5"
          },
          {
            "reference": "urn:uuid:9cc53633-ba88-48a5-ba3c-16d022e1f49d"
          }
        ],
        "reasonCode": [
          {
            "coding": [
              {
                "code": "401314000",
                "system": "http://snomed.info/sct",
                "display": "Acute non-ST segment elevation myocardial infarction"
              }
            ]
          },
          {
            "coding": [
              {
                "code": "157141000119108",
                "system": "http://snomed.info/sct",
                "display": "Proteinuria due to type 2 diabetes mellitus"
              }
            ]
          },
          {
            "coding": [
              {
                "code": "237602007",
                "system": "http://snomed.info/sct",
                "display": "Metabolic syndrome X"
              }
            ]
          },
          {
            "coding": [
              {
                "code": "90781000119102",
                "system": "http://snomed.info/sct",
                "display": "Microalbuminuria due to type 2 diabetes mellitus"
              }
            ]
          },
          {
            "coding": [
              {
                "code": "127013003",
                "system": "http://snomed.info/sct",
                "display": "Disorder of kidney due to diabetes mellitus"
              }
            ]
          },
          {
            "coding": [
              {
                "code": "59621000",
                "system": "http://snomed.info/sct",
                "display": "Essential hypertension"
              }
            ]
          },
          {
            "coding": [
              {
                "code": "271737000",
                "system": "http://snomed.info/sct",
                "display": "Anemia"
              }
            ]
          },
          {
            "coding": [
              {
                "code": "15777000",
                "system": "http://snomed.info/sct",
                "display": "Prediabetes"
              }
            ]
          }
        ],
        "status": "active",
        "intent": "order",
        "code": {
          "coding": [
            {
              "code": "108252007",
              "system": "http://snomed.info/sct",
              "display": "Laboratory procedure"
            }
          ]
        },
        "subject": {
          "reference": "urn:uuid:c64fde65-7c74-4cde-809a-f9c931c1c974",
          "display": "Maria Nohlmans"
        },
        "requester": {
          "reference": "urn:uuid:3b888d4e-ca2e-422c-9a77-5edbb8eb95ff"
        }
      }
    },
    {
      "fullUrl": "urn:uuid:3b888d4e-ca2e-422c-9a77-5edbb8eb95ff",
      "resource": {
        "resourceType": "PractitionerRole",
        "id": "3b888d4e-ca2e-422c-9a77-5edbb8eb95ff",
        "meta": {
          "profile": [
            "http://hl7.eu/fhir/base/StructureDefinition/practitionerRole-eu"
          ]
        },
        "text": {
          "status": "generated",
          "div": "<div xmlns=\"http://www.w3.org/1999/xhtml\">Provider Role Id: 3b888d4e-ca2e-422c-9a77-5edbb8eb95ff</div>"
        },
        "organization": {
          "reference": "urn:uuid:fffac135-04f6-4a1a-8f2b-93603879b87a"
        }
      }
    },
    {
      "fullUrl": "urn:uuid:fffac135-04f6-4a1a-8f2b-93603879b87a",
      "resource": {
        "resourceType": "Organization",
        "id": "fffac135-04f6-4a1a-8f2b-93603879b87a",
        "meta": {
          "profile": [
            "http://hl7.eu/fhir/base/StructureDefinition/organization-eu"
          ]
        },
        "identifier": [
          {
            "assigner": {
              "display": "HL7 Europe"
            },
            "system": "urn:oid:2.16.840.1.113883.2.51.999",
            "value": "51dd66b6-aeaf-4d02-ade7-eda3136087c7"
          }
        ],
        "address": [
          {
            "line": [
              "Brinckmannstraße 35"
            ],
            "city": "Husum",
            "postalCode": "25813",
            "country": "Germany"
          }
        ],
        "text": {
          "status": "generated",
          "div": "<div xmlns=\"http://www.w3.org/1999/xhtml\">Provider Organization: Dr. Wolfram Hussels Kieferorthopäde</div>"
        },
        "name": "Dr. Wolfram Hussels Kieferorthopäde"
      }
    },
    {
      "fullUrl": "urn:uuid:d22effce-b2b8-4e20-9ce1-d5bb4391dced",
      "resource": {
        "resourceType": "Specimen",
        "id": "d22effce-b2b8-4e20-9ce1-d5bb4391dced",
        "meta": {
          "profile": [
            "http://hl7.eu/fhir/laboratory/StructureDefinition/Specimen-eu-lab"
          ]
        },
        "collection": {
          "collectedDateTime": "2017-07-27"
        },
        "text": {
          "status": "generated",
          "div": "<div xmlns=\"http://www.w3.org/1999/xhtml\"><table class=\"hl7__eu__lab__report\"><tr><th>Specimen</th><th>Collection Date</th></tr><tr><td>Whole blood specimen (specimen)</td><td><span class=\"nb\">27-Jul-2017</span></td></tr></table></div>"
        },
        "type": {
          "coding": [
            {
              "code": "258580003",
              "system": "http://snomed.info/sct",
              "display": "Whole blood specimen (specimen)"
            }
          ]
        }
      }
    },
    {
      "fullUrl": "urn:uuid:dea4bf4a-8c73-4f0b-85f0-d65893653f26",
      "resource": {
        "resourceType": "Specimen",
        "id": "dea4bf4a-8c73-4f0b-85f0-d65893653f26",
        "meta": {
          "profile": [
            "http://hl7.eu/fhir/laboratory/StructureDefinition/Specimen-eu-lab"
          ]
        },
        "collection": {
          "collectedDateTime": "2017-07-27"
        },
        "text": {
          "status": "generated",
          "div": "<div xmlns=\"http://www.w3.org/1999/xhtml\"><table class=\"hl7__eu__lab__report\"><tr><th>Specimen</th><th>Collection Date</th></tr><tr><td>Acellular blood (serum or plasma) specimen</td><td><span class=\"nb\">27-Jul-2017</span></td></tr></table></div>"
        },
        "type": {
          "coding": [
            {
              "code": "122592007",
              "system": "http://snomed.info/sct",
              "display": "Acellular blood (serum or plasma) specimen"
            }
          ]
        }
      }
    },
    {
      "fullUrl": "urn:uuid:4736ff0d-55bc-45d2-ab90-4f8f1400e6b5",
      "resource": {
        "resourceType": "Specimen",
        "id": "4736ff0d-55bc-45d2-ab90-4f8f1400e6b5",
        "meta": {
          "profile": [
            "http://hl7.eu/fhir/laboratory/StructureDefinition/Specimen-eu-lab"
          ]
        },
        "collection": {
          "collectedDateTime": "2017-07-27"
        },
        "text": {
          "status": "generated",
          "div": "<div xmlns=\"http://www.w3.org/1999/xhtml\"><table class=\"hl7__eu__lab__report\"><tr><th>Specimen</th><th>Collection Date</th></tr><tr><td>Serum specimen</td><td><span class=\"nb\">27-Jul-2017</span></td></tr></table></div>"
        },
        "type": {
          "coding": [
            {
              "code": "119364003",
              "system": "http://snomed.info/sct",
              "display": "Serum specimen"
            }
          ]
        }
      }
    },
    {
      "fullUrl": "urn:uuid:9cc53633-ba88-48a5-ba3c-16d022e1f49d",
      "resource": {
        "resourceType": "Specimen",
        "id": "9cc53633-ba88-48a5-ba3c-16d022e1f49d",
        "meta": {
          "profile": [
            "http://hl7.eu/fhir/laboratory/StructureDefinition/Specimen-eu-lab"
          ]
        },
        "collection": {
          "collectedDateTime": "2017-07-27"
        },
        "text": {
          "status": "generated",
          "div": "<div xmlns=\"http://www.w3.org/1999/xhtml\"><table class=\"hl7__eu__lab__report\"><tr><th>Specimen</th><th>Collection Date</th></tr><tr><td>Urine specimen</td><td><span class=\"nb\">27-Jul-2017</span></td></tr></table></div>"
        },
        "type": {
          "coding": [
            {
              "code": "122575003",
              "system": "http://snomed.info/sct",
              "display": "Urine specimen"
            }
          ]
        }
      }
    },
    {
      "fullUrl": "urn:uuid:f5bcd76b-d5e3-4062-b31c-299c9dfe200c",
      "resource": {
        "resourceType": "Observation",
        "id": "f5bcd76b-d5e3-4062-b31c-299c9dfe200c",
        "meta": {
          "profile": [
            "http://hl7.eu/fhir/laboratory/StructureDefinition/Observation-resultslab-eu-lab"
          ]
        },
        "performer": [
          {
            "display": "The Central European Lab"
          }
        ],
        "category": [
          {
            "coding": [
              {
                "system": "http://terminology.hl7.org/CodeSystem/observation-category",
                "code": "laboratory"
              }
            ]
          }
        ],
        "code": {
          "coding": [
            {
              "code": "2339-0",
              "system": "http://loinc.org",
              "display": "Glucose [Mass/volume] in Blood"
            }
          ],
          "text": "Glucose [Mass/volume] in Blood"
        },
        "valueQuantity": {
          "system": "http://unitsofmeasure.org",
          "value": 85.7,
          "unit": "mg/dL",
          "code": "mg/dL"
        },
        "referenceRange": [
          {
            "low": {
              "value": 70,
              "code": "mg/dL",
              "system": "http://unitsofmeasure.org"
            }
          },
          {
            "high": {
              "value": 140,
              "code": "mg/dL",
              "system": "http://unitsofmeasure.org"
            }
          }
        ],
        "text": {
          "status": "generated",
          "div": "<div xmlns=\"http://www.w3.org/1999/xhtml\"><table class=\"hl7__eu__lab__report\"><tr><th>Test</th><th>27-Jul-2017</th><th>Reference&#xA0;Range</th><th>Unit</th></tr><tr><td>Glucose [Mass/volume] in Blood</td><td>85.7</td><td>70 - 140</td><td></td><td>mg/dL</td></tr></table></div>"
        },
        "status": "final",
        "subject": {
          "reference": "urn:uuid:c64fde65-7c74-4cde-809a-f9c931c1c974",
          "display": "Maria Nohlmans"
        },
        "effectiveDateTime": "2017-07-27T21:37:39Z",
        "specimen": {
          "reference": "urn:uuid:d22effce-b2b8-4e20-9ce1-d5bb4391dced"
        }
      }
    },
    {
      "fullUrl": "urn:uuid:2824f4b1-de81-4627-ab88-32cf13d13446",
      "resource": {
        "resourceType": "Observation",
        "id": "2824f4b1-de81-4627-ab88-32cf13d13446",
        "meta": {
          "profile": [
            "http://hl7.eu/fhir/laboratory/StructureDefinition/Observation-resultslab-eu-lab"
          ]
        },
        "performer": [
          {
            "display": "The Central European Lab"
          }
        ],
        "category": [
          {
            "coding": [
              {
                "system": "http://terminology.hl7.org/CodeSystem/observation-category",
                "code": "laboratory"
              }
            ]
          }
        ],
        "code": {
          "coding": [
            {
              "code": "6299-2",
              "system": "http://loinc.org",
              "display": "Urea nitrogen [Mass/volume] in Blood"
            }
          ],
          "text": "Urea nitrogen [Mass/volume] in Blood"
        },
        "valueQuantity": {
          "system": "http://unitsofmeasure.org",
          "value": 7.8,
          "unit": "mg/dL",
          "code": "mg/dL"
        },
        "referenceRange": [
          {
            "low": {
              "value": 7,
              "code": "mg/dL",
              "system": "http://unitsofmeasure.org"
            }
          },
          {
            "high": {
              "value": 30,
              "code": "mg/dL",
              "system": "http://unitsofmeasure.org"
            }
          }
        ],
        "text": {
          "status": "generated",
          "div": "<div xmlns=\"http://www.w3.org/1999/xhtml\"><table class=\"hl7__eu__lab__report\"><tr><th>Test</th><th>27-Jul-2017</th><th>Reference&#xA0;Range</th><th>Unit</th></tr><tr><td>Urea nitrogen [Mass/volume] in Blood</td><td>7.8</td><td>7 - 30</td><td></td><td>mg/dL</td></tr></table></div>"
        },
        "status": "final",
        "subject": {
          "reference": "urn:uuid:c64fde65-7c74-4cde-809a-f9c931c1c974",
          "display": "Maria Nohlmans"
        },
        "effectiveDateTime": "2017-07-27T21:37:39Z",
        "specimen": {
          "reference": "urn:uuid:d22effce-b2b8-4e20-9ce1-d5bb4391dced"
        }
      }
    },
    {
      "fullUrl": "urn:uuid:c2c593a9-a52d-43eb-8ef4-3c10fb8e2026",
      "resource": {
        "resourceType": "Observation",
        "id": "c2c593a9-a52d-43eb-8ef4-3c10fb8e2026",
        "meta": {
          "profile": [
            "http://hl7.eu/fhir/laboratory/StructureDefinition/Observation-resultslab-eu-lab"
          ]
        },
        "performer": [
          {
            "display": "The Central European Lab"
          }
        ],
        "category": [
          {
            "coding": [
              {
                "system": "http://terminology.hl7.org/CodeSystem/observation-category",
                "code": "laboratory"
              }
            ]
          }
        ],
        "code": {
          "coding": [
            {
              "code": "38483-4",
              "system": "http://loinc.org",
              "display": "Creatinine [Mass/volume] in Blood"
            }
          ],
          "text": "Creatinine [Mass/volume] in Blood"
        },
        "valueQuantity": {
          "system": "http://unitsofmeasure.org",
          "value": 3.4,
          "unit": "mg/dL",
          "code": "mg/dL"
        },
        "referenceRange": [
          {
            "low": {
              "value": 0.5,
              "code": "mg/dL",
              "system": "http://unitsofmeasure.org"
            }
          },
          {
            "high": {
              "value": 1.3,
              "code": "mg/dL",
              "system": "http://unitsofmeasure.org"
            }
          }
        ],
        "interpretation": [
          {
            "coding": [
              {
                "code": "H",
                "system": "http://terminology.hl7.org/CodeSystem/v3-ObservationInterpretation",
                "display": "High"
              }
            ]
          }
        ],
        "text": {
          "status": "generated",
          "div": "<div xmlns=\"http://www.w3.org/1999/xhtml\"><table class=\"hl7__eu__lab__report\"><tr><th>Test</th><th>27-Jul-2017</th><th>Reference&#xA0;Range</th><th>Unit</th></tr><tr><td>Creatinine [Mass/volume] in Blood</td><td>3.4</td><td>0.5 - 1.3</td><td>H</td><td>mg/dL</td></tr></table></div>"
        },
        "status": "final",
        "subject": {
          "reference": "urn:uuid:c64fde65-7c74-4cde-809a-f9c931c1c974",
          "display": "Maria Nohlmans"
        },
        "effectiveDateTime": "2017-07-27T21:37:39Z",
        "specimen": {
          "reference": "urn:uuid:d22effce-b2b8-4e20-9ce1-d5bb4391dced"
        }
      }
    },
    {
      "fullUrl": "urn:uuid:a3e2e98e-6e05-464f-8e62-4a9fe57dda61",
      "resource": {
        "resourceType": "Observation",
        "id": "a3e2e98e-6e05-464f-8e62-4a9fe57dda61",
        "meta": {
          "profile": [
            "http://hl7.eu/fhir/laboratory/StructureDefinition/Observation-resultslab-eu-lab"
          ]
        },
        "performer": [
          {
            "display": "The Central European Lab"
          }
        ],
        "category": [
          {
            "coding": [
              {
                "system": "http://terminology.hl7.org/CodeSystem/observation-category",
                "code": "laboratory"
              }
            ]
          }
        ],
        "code": {
          "coding": [
            {
              "code": "49765-1",
              "system": "http://loinc.org",
              "display": "Calcium [Mass/volume] in Blood"
            }
          ],
          "text": "Calcium [Mass/volume] in Blood"
        },
        "valueQuantity": {
          "system": "http://unitsofmeasure.org",
          "value": 8.8,
          "unit": "mg/dL",
          "code": "mg/dL"
        },
        "referenceRange": [
          {
            "low": {
              "value": 8.6,
              "code": "mg/dL",
              "system": "http://unitsofmeasure.org"
            }
          },
          {
            "high": {
              "value": 10.2,
              "code": "mg/dL",
              "system": "http://unitsofmeasure.org"
            }
          }
        ],
        "text": {
          "status": "generated",
          "div": "<div xmlns=\"http://www.w3.org/1999/xhtml\"><table class=\"hl7__eu__lab__report\"><tr><th>Test</th><th>27-Jul-2017</th><th>Reference&#xA0;Range</th><th>Unit</th></tr><tr><td>Calcium [Mass/volume] in Blood</td><td>8.8</td><td>8.6 - 10.2</td><td></td><td>mg/dL</td></tr></table></div>"
        },
        "status": "final",
        "subject": {
          "reference": "urn:uuid:c64fde65-7c74-4cde-809a-f9c931c1c974",
          "display": "Maria Nohlmans"
        },
        "effectiveDateTime": "2017-07-27T21:37:39Z",
        "specimen": {
          "reference": "urn:uuid:d22effce-b2b8-4e20-9ce1-d5bb4391dced"
        }
      }
    },
    {
      "fullUrl": "urn:uuid:d09b35d7-fc75-431b-b51c-b715e0fd92a5",
      "resource": {
        "resourceType": "Observation",
        "id": "d09b35d7-fc75-431b-b51c-b715e0fd92a5",
        "meta": {
          "profile": [
            "http://hl7.eu/fhir/laboratory/StructureDefinition/Observation-resultslab-eu-lab"
          ]
        },
        "performer": [
          {
            "display": "The Central European Lab"
          }
        ],
        "category": [
          {
            "coding": [
              {
                "system": "http://terminology.hl7.org/CodeSystem/observation-category",
                "code": "laboratory"
              }
            ]
          }
        ],
        "code": {
          "coding": [
            {
              "code": "2947-0",
              "system": "http://loinc.org",
              "display": "Sodium [Moles/volume] in Blood"
            }
          ],
          "text": "Sodium [Moles/volume] in Blood"
        },
        "valueQuantity": {
          "system": "http://unitsofmeasure.org",
          "value": 140.9,
          "unit": "mmol/L",
          "code": "mmol/L"
        },
        "referenceRange": [
          {
            "low": {
              "value": 135,
              "code": "mmol/L",
              "system": "http://unitsofmeasure.org"
            }
          },
          {
            "high": {
              "value": 145,
              "code": "mmol/L",
              "system": "http://unitsofmeasure.org"
            }
          }
        ],
        "text": {
          "status": "generated",
          "div": "<div xmlns=\"http://www.w3.org/1999/xhtml\"><table class=\"hl7__eu__lab__report\"><tr><th>Test</th><th>27-Jul-2017</th><th>Reference&#xA0;Range</th><th>Unit</th></tr><tr><td>Sodium [Moles/volume] in Blood</td><td>140.9</td><td>135 - 145</td><td></td><td>mmol/L</td></tr></table></div>"
        },
        "status": "final",
        "subject": {
          "reference": "urn:uuid:c64fde65-7c74-4cde-809a-f9c931c1c974",
          "display": "Maria Nohlmans"
        },
        "effectiveDateTime": "2017-07-27T21:37:39Z",
        "specimen": {
          "reference": "urn:uuid:d22effce-b2b8-4e20-9ce1-d5bb4391dced"
        }
      }
    },
    {
      "fullUrl": "urn:uuid:b22644aa-9cc7-4e66-b83f-43294bed3be8",
      "resource": {
        "resourceType": "Observation",
        "id": "b22644aa-9cc7-4e66-b83f-43294bed3be8",
        "meta": {
          "profile": [
            "http://hl7.eu/fhir/laboratory/StructureDefinition/Observation-resultslab-eu-lab"
          ]
        },
        "performer": [
          {
            "display": "The Central European Lab"
          }
        ],
        "category": [
          {
            "coding": [
              {
                "system": "http://terminology.hl7.org/CodeSystem/observation-category",
                "code": "laboratory"
              }
            ]
          }
        ],
        "code": {
          "coding": [
            {
              "code": "6298-4",
              "system": "http://loinc.org",
              "display": "Potassium [Moles/volume] in Blood"
            }
          ],
          "text": "Potassium [Moles/volume] in Blood"
        },
        "valueQuantity": {
          "system": "http://unitsofmeasure.org",
          "value": 3.7,
          "unit": "mmol/L",
          "code": "mmol/L"
        },
        "referenceRange": [
          {
            "low": {
              "value": 3.5,
              "code": "mmol/L",
              "system": "http://unitsofmeasure.org"
            }
          },
          {
            "high": {
              "value": 5.1,
              "code": "mmol/L",
              "system": "http://unitsofmeasure.org"
            }
          }
        ],
        "text": {
          "status": "generated",
          "div": "<div xmlns=\"http://www.w3.org/1999/xhtml\"><table class=\"hl7__eu__lab__report\"><tr><th>Test</th><th>27-Jul-2017</th><th>Reference&#xA0;Range</th><th>Unit</th></tr><tr><td>Potassium [Moles/volume] in Blood</td><td>3.7</td><td>3.5 - 5.1</td><td></td><td>mmol/L</td></tr></table></div>"
        },
        "status": "final",
        "subject": {
          "reference": "urn:uuid:c64fde65-7c74-4cde-809a-f9c931c1c974",
          "display": "Maria Nohlmans"
        },
        "effectiveDateTime": "2017-07-27T21:37:39Z",
        "specimen": {
          "reference": "urn:uuid:d22effce-b2b8-4e20-9ce1-d5bb4391dced"
        }
      }
    },
    {
      "fullUrl": "urn:uuid:16194c97-6c66-46df-8b48-a88fe07d4818",
      "resource": {
        "resourceType": "Observation",
        "id": "16194c97-6c66-46df-8b48-a88fe07d4818",
        "meta": {
          "profile": [
            "http://hl7.eu/fhir/laboratory/StructureDefinition/Observation-resultslab-eu-lab"
          ]
        },
        "performer": [
          {
            "display": "The Central European Lab"
          }
        ],
        "category": [
          {
            "coding": [
              {
                "system": "http://terminology.hl7.org/CodeSystem/observation-category",
                "code": "laboratory"
              }
            ]
          }
        ],
        "code": {
          "coding": [
            {
              "code": "2069-3",
              "system": "http://loinc.org",
              "display": "Chloride [Moles/volume] in Blood"
            }
          ],
          "text": "Chloride [Moles/volume] in Blood"
        },
        "valueQuantity": {
          "system": "http://unitsofmeasure.org",
          "value": 102,
          "unit": "mmol/L",
          "code": "mmol/L"
        },
        "referenceRange": [
          {
            "low": {
              "value": 98,
              "code": "mmol/L",
              "system": "http://unitsofmeasure.org"
            }
          },
          {
            "high": {
              "value": 114,
              "code": "mmol/L",
              "system": "http://unitsofmeasure.org"
            }
          }
        ],
        "text": {
          "status": "generated",
          "div": "<div xmlns=\"http://www.w3.org/1999/xhtml\"><table class=\"hl7__eu__lab__report\"><tr><th>Test</th><th>27-Jul-2017</th><th>Reference&#xA0;Range</th><th>Unit</th></tr><tr><td>Chloride [Moles/volume] in Blood</td><td>102.0</td><td>98 - 114</td><td></td><td>mmol/L</td></tr></table></div>"
        },
        "status": "final",
        "subject": {
          "reference": "urn:uuid:c64fde65-7c74-4cde-809a-f9c931c1c974",
          "display": "Maria Nohlmans"
        },
        "effectiveDateTime": "2017-07-27T21:37:39Z",
        "specimen": {
          "reference": "urn:uuid:d22effce-b2b8-4e20-9ce1-d5bb4391dced"
        }
      }
    },
    {
      "fullUrl": "urn:uuid:2ed4fa28-a768-4707-a59e-4c26b7bccb4b",
      "resource": {
        "resourceType": "Observation",
        "id": "2ed4fa28-a768-4707-a59e-4c26b7bccb4b",
        "meta": {
          "profile": [
            "http://hl7.eu/fhir/laboratory/StructureDefinition/Observation-resultslab-eu-lab"
          ]
        },
        "performer": [
          {
            "display": "The Central European Lab"
          }
        ],
        "category": [
          {
            "coding": [
              {
                "system": "http://terminology.hl7.org/CodeSystem/observation-category",
                "code": "laboratory"
              }
            ]
          }
        ],
        "code": {
          "coding": [
            {
              "code": "20565-8",
              "system": "http://loinc.org",
              "display": "Carbon dioxide, total [Moles/volume] in Blood"
            }
          ],
          "text": "Carbon dioxide, total [Moles/volume] in Blood"
        },
        "valueQuantity": {
          "system": "http://unitsofmeasure.org",
          "value": 28.3,
          "unit": "mmol/L",
          "code": "mmol/L"
        },
        "referenceRange": [
          {
            "low": {
              "value": 22,
              "code": "mmol/L",
              "system": "http://unitsofmeasure.org"
            }
          },
          {
            "high": {
              "value": 32,
              "code": "mmol/L",
              "system": "http://unitsofmeasure.org"
            }
          }
        ],
        "text": {
          "status": "generated",
          "div": "<div xmlns=\"http://www.w3.org/1999/xhtml\"><table class=\"hl7__eu__lab__report\"><tr><th>Test</th><th>27-Jul-2017</th><th>Reference&#xA0;Range</th><th>Unit</th></tr><tr><td>Carbon dioxide, total [Moles/volume] in Blood</td><td>28.3</td><td>22 - 32</td><td></td><td>mmol/L</td></tr></table></div>"
        },
        "status": "final",
        "subject": {
          "reference": "urn:uuid:c64fde65-7c74-4cde-809a-f9c931c1c974",
          "display": "Maria Nohlmans"
        },
        "effectiveDateTime": "2017-07-27T21:37:39Z",
        "specimen": {
          "reference": "urn:uuid:d22effce-b2b8-4e20-9ce1-d5bb4391dced"
        }
      }
    },
    {
      "fullUrl": "urn:uuid:dee9b951-b560-4c27-ae62-c22cdcd00665",
      "resource": {
        "resourceType": "Observation",
        "id": "dee9b951-b560-4c27-ae62-c22cdcd00665",
        "meta": {
          "profile": [
            "http://hl7.eu/fhir/laboratory/StructureDefinition/Observation-resultslab-eu-lab"
          ]
        },
        "performer": [
          {
            "display": "The Central European Lab"
          }
        ],
        "category": [
          {
            "coding": [
              {
                "system": "http://terminology.hl7.org/CodeSystem/observation-category",
                "code": "laboratory"
              }
            ]
          }
        ],
        "code": {
          "coding": [
            {
              "code": "2885-2",
              "system": "http://loinc.org",
              "display": "Protein [Mass/volume] in Serum or Plasma"
            }
          ],
          "text": "Protein [Mass/volume] in Serum or Plasma"
        },
        "valueQuantity": {
          "system": "http://unitsofmeasure.org",
          "value": 8,
          "unit": "g/dL",
          "code": "g/dL"
        },
        "referenceRange": [
          {
            "low": {
              "value": 6,
              "code": "g/dL",
              "system": "http://unitsofmeasure.org"
            }
          },
          {
            "high": {
              "value": 8.3,
              "code": "g/dL",
              "system": "http://unitsofmeasure.org"
            }
          }
        ],
        "text": {
          "status": "generated",
          "div": "<div xmlns=\"http://www.w3.org/1999/xhtml\"><table class=\"hl7__eu__lab__report\"><tr><th>Test</th><th>27-Jul-2017</th><th>Reference&#xA0;Range</th><th>Unit</th></tr><tr><td>Protein [Mass/volume] in Serum or Plasma</td><td>8.0</td><td>6 - 8.3</td><td></td><td>g/dL</td></tr></table></div>"
        },
        "status": "final",
        "subject": {
          "reference": "urn:uuid:c64fde65-7c74-4cde-809a-f9c931c1c974",
          "display": "Maria Nohlmans"
        },
        "effectiveDateTime": "2017-07-27T21:37:39Z",
        "specimen": {
          "reference": "urn:uuid:dea4bf4a-8c73-4f0b-85f0-d65893653f26"
        }
      }
    },
    {
      "fullUrl": "urn:uuid:a8d0671b-2617-499d-8a99-d78d0885b591",
      "resource": {
        "resourceType": "Observation",
        "id": "a8d0671b-2617-499d-8a99-d78d0885b591",
        "meta": {
          "profile": [
            "http://hl7.eu/fhir/laboratory/StructureDefinition/Observation-resultslab-eu-lab"
          ]
        },
        "performer": [
          {
            "display": "The Central European Lab"
          }
        ],
        "category": [
          {
            "coding": [
              {
                "system": "http://terminology.hl7.org/CodeSystem/observation-category",
                "code": "laboratory"
              }
            ]
          }
        ],
        "code": {
          "coding": [
            {
              "code": "1751-7",
              "system": "http://loinc.org",
              "display": "Albumin [Mass/volume] in Serum or Plasma"
            }
          ],
          "text": "Albumin [Mass/volume] in Serum or Plasma"
        },
        "valueQuantity": {
          "system": "http://unitsofmeasure.org",
          "value": 3.7,
          "unit": "g/dL",
          "code": "g/dL"
        },
        "referenceRange": [
          {
            "low": {
              "value": 3.5,
              "code": "g/dL",
              "system": "http://unitsofmeasure.org"
            }
          },
          {
            "high": {
              "value": 5.5,
              "code": "g/dL",
              "system": "http://unitsofmeasure.org"
            }
          }
        ],
        "text": {
          "status": "generated",
          "div": "<div xmlns=\"http://www.w3.org/1999/xhtml\"><table class=\"hl7__eu__lab__report\"><tr><th>Test</th><th>27-Jul-2017</th><th>Reference&#xA0;Range</th><th>Unit</th></tr><tr><td>Albumin [Mass/volume] in Serum or Plasma</td><td>3.7</td><td>3.5 - 5.5</td><td></td><td>g/dL</td></tr></table></div>"
        },
        "status": "final",
        "subject": {
          "reference": "urn:uuid:c64fde65-7c74-4cde-809a-f9c931c1c974",
          "display": "Maria Nohlmans"
        },
        "effectiveDateTime": "2017-07-27T21:37:39Z",
        "specimen": {
          "reference": "urn:uuid:dea4bf4a-8c73-4f0b-85f0-d65893653f26"
        }
      }
    },
    {
      "fullUrl": "urn:uuid:ba50f068-c66f-431c-b596-4822169de66f",
      "resource": {
        "resourceType": "Observation",
        "id": "ba50f068-c66f-431c-b596-4822169de66f",
        "meta": {
          "profile": [
            "http://hl7.eu/fhir/laboratory/StructureDefinition/Observation-resultslab-eu-lab"
          ]
        },
        "performer": [
          {
            "display": "The Central European Lab"
          }
        ],
        "category": [
          {
            "coding": [
              {
                "system": "http://terminology.hl7.org/CodeSystem/observation-category",
                "code": "laboratory"
              }
            ]
          }
        ],
        "code": {
          "coding": [
            {
              "code": "10834-0",
              "system": "http://loinc.org",
              "display": "Globulin [Mass/volume] in Serum by calculation"
            }
          ],
          "text": "Globulin [Mass/volume] in Serum by calculation"
        },
        "valueQuantity": {
          "system": "http://unitsofmeasure.org",
          "value": 2.3,
          "unit": "g/L",
          "code": "g/L"
        },
        "referenceRange": [
          {
            "low": {
              "value": 2,
              "code": "g/L",
              "system": "http://unitsofmeasure.org"
            }
          },
          {
            "high": {
              "value": 3.5,
              "code": "g/L",
              "system": "http://unitsofmeasure.org"
            }
          }
        ],
        "text": {
          "status": "generated",
          "div": "<div xmlns=\"http://www.w3.org/1999/xhtml\"><table class=\"hl7__eu__lab__report\"><tr><th>Test</th><th>27-Jul-2017</th><th>Reference&#xA0;Range</th><th>Unit</th></tr><tr><td>Globulin [Mass/volume] in Serum by calculation</td><td>2.3</td><td>2 - 3.5</td><td></td><td>g/L</td></tr></table></div>"
        },
        "status": "final",
        "subject": {
          "reference": "urn:uuid:c64fde65-7c74-4cde-809a-f9c931c1c974",
          "display": "Maria Nohlmans"
        },
        "effectiveDateTime": "2017-07-27T21:37:39Z",
        "specimen": {
          "reference": "urn:uuid:4736ff0d-55bc-45d2-ab90-4f8f1400e6b5"
        }
      }
    },
    {
      "fullUrl": "urn:uuid:aa08252e-2a84-4ad3-bdbc-8d487737083f",
      "resource": {
        "resourceType": "Observation",
        "id": "aa08252e-2a84-4ad3-bdbc-8d487737083f",
        "meta": {
          "profile": [
            "http://hl7.eu/fhir/laboratory/StructureDefinition/Observation-resultslab-eu-lab"
          ]
        },
        "performer": [
          {
            "display": "The Central European Lab"
          }
        ],
        "category": [
          {
            "coding": [
              {
                "system": "http://terminology.hl7.org/CodeSystem/observation-category",
                "code": "laboratory"
              }
            ]
          }
        ],
        "code": {
          "coding": [
            {
              "code": "1975-2",
              "system": "http://loinc.org",
              "display": "Bilirubin.total [Mass/volume] in Serum or Plasma"
            }
          ],
          "text": "Bilirubin.total [Mass/volume] in Serum or Plasma"
        },
        "valueQuantity": {
          "system": "http://unitsofmeasure.org",
          "value": 0.3,
          "unit": "mg/dL",
          "code": "mg/dL"
        },
        "referenceRange": [
          {
            "low": {
              "value": 0.3,
              "code": "mg/dL",
              "system": "http://unitsofmeasure.org"
            }
          },
          {
            "high": {
              "value": 1.2,
              "code": "mg/dL",
              "system": "http://unitsofmeasure.org"
            }
          }
        ],
        "text": {
          "status": "generated",
          "div": "<div xmlns=\"http://www.w3.org/1999/xhtml\"><table class=\"hl7__eu__lab__report\"><tr><th>Test</th><th>27-Jul-2017</th><th>Reference&#xA0;Range</th><th>Unit</th></tr><tr><td>Bilirubin.total [Mass/volume] in Serum or Plasma</td><td>0.3</td><td>0.3 - 1.2</td><td></td><td>mg/dL</td></tr></table></div>"
        },
        "status": "final",
        "subject": {
          "reference": "urn:uuid:c64fde65-7c74-4cde-809a-f9c931c1c974",
          "display": "Maria Nohlmans"
        },
        "effectiveDateTime": "2017-07-27T21:37:39Z",
        "specimen": {
          "reference": "urn:uuid:dea4bf4a-8c73-4f0b-85f0-d65893653f26"
        }
      }
    },
    {
      "fullUrl": "urn:uuid:414e3f3d-dfda-4c4b-b46a-e33350078bd8",
      "resource": {
        "resourceType": "Observation",
        "id": "414e3f3d-dfda-4c4b-b46a-e33350078bd8",
        "meta": {
          "profile": [
            "http://hl7.eu/fhir/laboratory/StructureDefinition/Observation-resultslab-eu-lab"
          ]
        },
        "performer": [
          {
            "display": "The Central European Lab"
          }
        ],
        "category": [
          {
            "coding": [
              {
                "system": "http://terminology.hl7.org/CodeSystem/observation-category",
                "code": "laboratory"
              }
            ]
          }
        ],
        "code": {
          "coding": [
            {
              "code": "6768-6",
              "system": "http://loinc.org",
              "display": "Alkaline phosphatase [Enzymatic activity/volume] in Serum or Plasma"
            }
          ],
          "text": "Alkaline phosphatase [Enzymatic activity/volume] in Serum or Plasma"
        },
        "valueQuantity": {
          "system": "http://unitsofmeasure.org",
          "value": 48.9,
          "unit": "U/L",
          "code": "U/L"
        },
        "referenceRange": [
          {
            "low": {
              "value": 44,
              "code": "U/L",
              "system": "http://unitsofmeasure.org"
            }
          },
          {
            "high": {
              "value": 142,
              "code": "U/L",
              "system": "http://unitsofmeasure.org"
            }
          }
        ],
        "text": {
          "status": "generated",
          "div": "<div xmlns=\"http://www.w3.org/1999/xhtml\"><table class=\"hl7__eu__lab__report\"><tr><th>Test</th><th>27-Jul-2017</th><th>Reference&#xA0;Range</th><th>Unit</th></tr><tr><td>Alkaline phosphatase [Enzymatic activity/volume] in Serum or Plasma</td><td>48.9</td><td>44 - 142</td><td></td><td>U/L</td></tr></table></div>"
        },
        "status": "final",
        "subject": {
          "reference": "urn:uuid:c64fde65-7c74-4cde-809a-f9c931c1c974",
          "display": "Maria Nohlmans"
        },
        "effectiveDateTime": "2017-07-27T21:37:39Z",
        "specimen": {
          "reference": "urn:uuid:dea4bf4a-8c73-4f0b-85f0-d65893653f26"
        }
      }
    },
    {
      "fullUrl": "urn:uuid:bca0fda3-4504-4a41-a50b-e0ac6e6ed793",
      "resource": {
        "resourceType": "Observation",
        "id": "bca0fda3-4504-4a41-a50b-e0ac6e6ed793",
        "meta": {
          "profile": [
            "http://hl7.eu/fhir/laboratory/StructureDefinition/Observation-resultslab-eu-lab"
          ]
        },
        "performer": [
          {
            "display": "The Central European Lab"
          }
        ],
        "category": [
          {
            "coding": [
              {
                "system": "http://terminology.hl7.org/CodeSystem/observation-category",
                "code": "laboratory"
              }
            ]
          }
        ],
        "code": {
          "coding": [
            {
              "code": "1742-6",
              "system": "http://loinc.org",
              "display": "Alanine aminotransferase [Enzymatic activity/volume] in Serum or Plasma"
            }
          ],
          "text": "Alanine aminotransferase [Enzymatic activity/volume] in Serum or Plasma"
        },
        "valueQuantity": {
          "system": "http://unitsofmeasure.org",
          "value": 57.5,
          "unit": "U/L",
          "code": "U/L"
        },
        "referenceRange": [
          {
            "low": {
              "value": 7,
              "code": "U/L",
              "system": "http://unitsofmeasure.org"
            }
          },
          {
            "high": {
              "value": 40,
              "code": "U/L",
              "system": "http://unitsofmeasure.org"
            }
          }
        ],
        "interpretation": [
          {
            "coding": [
              {
                "code": "H",
                "system": "http://terminology.hl7.org/CodeSystem/v3-ObservationInterpretation",
                "display": "High"
              }
            ]
          }
        ],
        "text": {
          "status": "generated",
          "div": "<div xmlns=\"http://www.w3.org/1999/xhtml\"><table class=\"hl7__eu__lab__report\"><tr><th>Test</th><th>27-Jul-2017</th><th>Reference&#xA0;Range</th><th>Unit</th></tr><tr><td>Alanine aminotransferase [Enzymatic activity/volume] in Serum or Plasma</td><td>57.5</td><td>7 - 40</td><td>H</td><td>U/L</td></tr></table></div>"
        },
        "status": "final",
        "subject": {
          "reference": "urn:uuid:c64fde65-7c74-4cde-809a-f9c931c1c974",
          "display": "Maria Nohlmans"
        },
        "effectiveDateTime": "2017-07-27T21:37:39Z",
        "specimen": {
          "reference": "urn:uuid:dea4bf4a-8c73-4f0b-85f0-d65893653f26"
        }
      }
    },
    {
      "fullUrl": "urn:uuid:4055a662-335c-490a-a918-1c8be685ecbf",
      "resource": {
        "resourceType": "Observation",
        "id": "4055a662-335c-490a-a918-1c8be685ecbf",
        "meta": {
          "profile": [
            "http://hl7.eu/fhir/laboratory/StructureDefinition/Observation-resultslab-eu-lab"
          ]
        },
        "performer": [
          {
            "display": "The Central European Lab"
          }
        ],
        "category": [
          {
            "coding": [
              {
                "system": "http://terminology.hl7.org/CodeSystem/observation-category",
                "code": "laboratory"
              }
            ]
          }
        ],
        "code": {
          "coding": [
            {
              "code": "1920-8",
              "system": "http://loinc.org",
              "display": "Aspartate aminotransferase [Enzymatic activity/volume] in Serum or Plasma"
            }
          ],
          "text": "Aspartate aminotransferase [Enzymatic activity/volume] in Serum or Plasma"
        },
        "valueQuantity": {
          "system": "http://unitsofmeasure.org",
          "value": 28.4,
          "unit": "U/L",
          "code": "U/L"
        },
        "referenceRange": [
          {
            "low": {
              "value": 10,
              "code": "U/L",
              "system": "http://unitsofmeasure.org"
            }
          },
          {
            "high": {
              "value": 40,
              "code": "U/L",
              "system": "http://unitsofmeasure.org"
            }
          }
        ],
        "text": {
          "status": "generated",
          "div": "<div xmlns=\"http://www.w3.org/1999/xhtml\"><table class=\"hl7__eu__lab__report\"><tr><th>Test</th><th>27-Jul-2017</th><th>Reference&#xA0;Range</th><th>Unit</th></tr><tr><td>Aspartate aminotransferase [Enzymatic activity/volume] in Serum or Plasma</td><td>28.4</td><td>10 - 40</td><td></td><td>U/L</td></tr></table></div>"
        },
        "status": "final",
        "subject": {
          "reference": "urn:uuid:c64fde65-7c74-4cde-809a-f9c931c1c974",
          "display": "Maria Nohlmans"
        },
        "effectiveDateTime": "2017-07-27T21:37:39Z",
        "specimen": {
          "reference": "urn:uuid:dea4bf4a-8c73-4f0b-85f0-d65893653f26"
        }
      }
    },
    {
      "fullUrl": "urn:uuid:418f05a6-101d-48f5-a701-3876d14976cb",
      "resource": {
        "resourceType": "Observation",
        "id": "418f05a6-101d-48f5-a701-3876d14976cb",
        "meta": {
          "profile": [
            "http://hl7.eu/fhir/laboratory/StructureDefinition/Observation-resultslab-eu-lab"
          ]
        },
        "performer": [
          {
            "display": "The Central European Lab"
          }
        ],
        "category": [
          {
            "coding": [
              {
                "system": "http://terminology.hl7.org/CodeSystem/observation-category",
                "code": "laboratory"
              }
            ]
          }
        ],
        "code": {
          "coding": [
            {
              "code": "5767-9",
              "system": "http://loinc.org",
              "display": "Appearance of Urine"
            }
          ],
          "text": "Appearance of Urine"
        },
        "text": {
          "status": "generated",
          "div": "<div xmlns=\"http://www.w3.org/1999/xhtml\"><table class=\"hl7__eu__lab__report\"><tr><th>Test</th><th>27-Jul-2017</th><th>Reference&#xA0;Range</th><th>Unit</th></tr><tr><td>Appearance of Urine</td></tr></table></div>"
        },
        "status": "final",
        "subject": {
          "reference": "urn:uuid:c64fde65-7c74-4cde-809a-f9c931c1c974",
          "display": "Maria Nohlmans"
        },
        "effectiveDateTime": "2017-07-27T21:37:39Z",
        "specimen": {
          "reference": "urn:uuid:9cc53633-ba88-48a5-ba3c-16d022e1f49d"
        }
      }
    },
    {
      "fullUrl": "urn:uuid:01c8eced-cba8-4ed7-a8e6-98e24a0ae210",
      "resource": {
        "resourceType": "Observation",
        "id": "01c8eced-cba8-4ed7-a8e6-98e24a0ae210",
        "meta": {
          "profile": [
            "http://hl7.eu/fhir/laboratory/StructureDefinition/Observation-resultslab-eu-lab"
          ]
        },
        "performer": [
          {
            "display": "The Central European Lab"
          }
        ],
        "category": [
          {
            "coding": [
              {
                "system": "http://terminology.hl7.org/CodeSystem/observation-category",
                "code": "laboratory"
              }
            ]
          }
        ],
        "code": {
          "coding": [
            {
              "code": "34533-0",
              "system": "http://loinc.org",
              "display": "Odor of Urine"
            }
          ],
          "text": "Odor of Urine"
        },
        "text": {
          "status": "generated",
          "div": "<div xmlns=\"http://www.w3.org/1999/xhtml\"><table class=\"hl7__eu__lab__report\"><tr><th>Test</th><th>27-Jul-2017</th><th>Reference&#xA0;Range</th><th>Unit</th></tr><tr><td>Odor of Urine</td></tr></table></div>"
        },
        "status": "final",
        "subject": {
          "reference": "urn:uuid:c64fde65-7c74-4cde-809a-f9c931c1c974",
          "display": "Maria Nohlmans"
        },
        "effectiveDateTime": "2017-07-27T21:37:39Z",
        "specimen": {
          "reference": "urn:uuid:9cc53633-ba88-48a5-ba3c-16d022e1f49d"
        }
      }
    },
    {
      "fullUrl": "urn:uuid:16e223c1-edef-4ad4-91bd-dd1491c355c7",
      "resource": {
        "resourceType": "Observation",
        "id": "16e223c1-edef-4ad4-91bd-dd1491c355c7",
        "meta": {
          "profile": [
            "http://hl7.eu/fhir/laboratory/StructureDefinition/Observation-resultslab-eu-lab"
          ]
        },
        "performer": [
          {
            "display": "The Central European Lab"
          }
        ],
        "category": [
          {
            "coding": [
              {
                "system": "http://terminology.hl7.org/CodeSystem/observation-category",
                "code": "laboratory"
              }
            ]
          }
        ],
        "code": {
          "coding": [
            {
              "code": "32167-9",
              "system": "http://loinc.org",
              "display": "Clarity of Urine"
            }
          ],
          "text": "Clarity of Urine"
        },
        "text": {
          "status": "generated",
          "div": "<div xmlns=\"http://www.w3.org/1999/xhtml\"><table class=\"hl7__eu__lab__report\"><tr><th>Test</th><th>27-Jul-2017</th><th>Reference&#xA0;Range</th><th>Unit</th></tr><tr><td>Clarity of Urine</td></tr></table></div>"
        },
        "status": "final",
        "subject": {
          "reference": "urn:uuid:c64fde65-7c74-4cde-809a-f9c931c1c974",
          "display": "Maria Nohlmans"
        },
        "effectiveDateTime": "2017-07-27T21:37:39Z",
        "specimen": {
          "reference": "urn:uuid:9cc53633-ba88-48a5-ba3c-16d022e1f49d"
        }
      }
    },
    {
      "fullUrl": "urn:uuid:cbd156f0-bee9-4470-8f96-2bab1066bfd7",
      "resource": {
        "resourceType": "Observation",
        "id": "cbd156f0-bee9-4470-8f96-2bab1066bfd7",
        "meta": {
          "profile": [
            "http://hl7.eu/fhir/laboratory/StructureDefinition/Observation-resultslab-eu-lab"
          ]
        },
        "performer": [
          {
            "display": "The Central European Lab"
          }
        ],
        "category": [
          {
            "coding": [
              {
                "system": "http://terminology.hl7.org/CodeSystem/observation-category",
                "code": "laboratory"
              }
            ]
          }
        ],
        "code": {
          "coding": [
            {
              "code": "5778-6",
              "system": "http://loinc.org",
              "display": "Color of Urine"
            }
          ],
          "text": "Color of Urine"
        },
        "text": {
          "status": "generated",
          "div": "<div xmlns=\"http://www.w3.org/1999/xhtml\"><table class=\"hl7__eu__lab__report\"><tr><th>Test</th><th>27-Jul-2017</th><th>Reference&#xA0;Range</th><th>Unit</th></tr><tr><td>Color of Urine</td></tr></table></div>"
        },
        "status": "final",
        "subject": {
          "reference": "urn:uuid:c64fde65-7c74-4cde-809a-f9c931c1c974",
          "display": "Maria Nohlmans"
        },
        "effectiveDateTime": "2017-07-27T21:37:39Z",
        "specimen": {
          "reference": "urn:uuid:9cc53633-ba88-48a5-ba3c-16d022e1f49d"
        }
      }
    },
    {
      "fullUrl": "urn:uuid:79067a05-574f-4761-a378-4e9183c60c1c",
      "resource": {
        "resourceType": "Observation",
        "id": "79067a05-574f-4761-a378-4e9183c60c1c",
        "meta": {
          "profile": [
            "http://hl7.eu/fhir/laboratory/StructureDefinition/Observation-resultslab-eu-lab"
          ]
        },
        "performer": [
          {
            "display": "The Central European Lab"
          }
        ],
        "category": [
          {
            "coding": [
              {
                "system": "http://terminology.hl7.org/CodeSystem/observation-category",
                "code": "laboratory"
              }
            ]
          }
        ],
        "code": {
          "coding": [
            {
              "code": "5792-7",
              "system": "http://loinc.org",
              "display": "Glucose [Mass/volume] in Urine by Test strip"
            }
          ],
          "text": "Glucose [Mass/volume] in Urine by Test strip"
        },
        "valueQuantity": {
          "system": "http://unitsofmeasure.org",
          "value": 0.7,
          "unit": "mg/dL",
          "code": "mg/dL"
        },
        "referenceRange": [
          {
            "low": {
              "value": 0.8,
              "code": "mg/dL",
              "system": "http://unitsofmeasure.org"
            }
          },
          {
            "high": {
              "value": 0,
              "code": "mg/dL",
              "system": "http://unitsofmeasure.org"
            }
          }
        ],
        "interpretation": [
          {
            "coding": [
              {
                "code": "L",
                "system": "http://terminology.hl7.org/CodeSystem/v3-ObservationInterpretation",
                "display": "Low"
              }
            ]
          }
        ],
        "text": {
          "status": "generated",
          "div": "<div xmlns=\"http://www.w3.org/1999/xhtml\"><table class=\"hl7__eu__lab__report\"><tr><th>Test</th><th>27-Jul-2017</th><th>Reference&#xA0;Range</th><th>Unit</th></tr><tr><td>Glucose [Mass/volume] in Urine by Test strip</td><td>0.7</td><td>0.8 - 0</td><td>L</td><td>mg/dL</td></tr></table></div>"
        },
        "status": "final",
        "subject": {
          "reference": "urn:uuid:c64fde65-7c74-4cde-809a-f9c931c1c974",
          "display": "Maria Nohlmans"
        },
        "effectiveDateTime": "2017-07-27T21:37:39Z",
        "specimen": {
          "reference": "urn:uuid:9cc53633-ba88-48a5-ba3c-16d022e1f49d"
        }
      }
    },
    {
      "fullUrl": "urn:uuid:7b7c443b-dbab-4f2a-a010-c54878a8127c",
      "resource": {
        "resourceType": "Observation",
        "id": "7b7c443b-dbab-4f2a-a010-c54878a8127c",
        "meta": {
          "profile": [
            "http://hl7.eu/fhir/laboratory/StructureDefinition/Observation-resultslab-eu-lab"
          ]
        },
        "performer": [
          {
            "display": "The Central European Lab"
          }
        ],
        "category": [
          {
            "coding": [
              {
                "system": "http://terminology.hl7.org/CodeSystem/observation-category",
                "code": "laboratory"
              }
            ]
          }
        ],
        "code": {
          "coding": [
            {
              "code": "25428-4",
              "system": "http://loinc.org",
              "display": "Glucose [Presence] in Urine by Test strip"
            }
          ],
          "text": "Glucose [Presence] in Urine by Test strip"
        },
        "text": {
          "status": "generated",
          "div": "<div xmlns=\"http://www.w3.org/1999/xhtml\"><table class=\"hl7__eu__lab__report\"><tr><th>Test</th><th>27-Jul-2017</th><th>Reference&#xA0;Range</th><th>Unit</th></tr><tr><td>Glucose [Presence] in Urine by Test strip</td></tr></table></div>"
        },
        "status": "final",
        "subject": {
          "reference": "urn:uuid:c64fde65-7c74-4cde-809a-f9c931c1c974",
          "display": "Maria Nohlmans"
        },
        "effectiveDateTime": "2017-07-27T21:37:39Z",
        "specimen": {
          "reference": "urn:uuid:9cc53633-ba88-48a5-ba3c-16d022e1f49d"
        }
      }
    },
    {
      "fullUrl": "urn:uuid:0a2f1251-d12b-4e0d-a382-5de6da3a18b0",
      "resource": {
        "resourceType": "Observation",
        "id": "0a2f1251-d12b-4e0d-a382-5de6da3a18b0",
        "meta": {
          "profile": [
            "http://hl7.eu/fhir/laboratory/StructureDefinition/Observation-resultslab-eu-lab"
          ]
        },
        "performer": [
          {
            "display": "The Central European Lab"
          }
        ],
        "category": [
          {
            "coding": [
              {
                "system": "http://terminology.hl7.org/CodeSystem/observation-category",
                "code": "laboratory"
              }
            ]
          }
        ],
        "code": {
          "coding": [
            {
              "code": "20505-4",
              "system": "http://loinc.org",
              "display": "Bilirubin.total [Mass/volume] in Urine by Test strip"
            }
          ],
          "text": "Bilirubin.total [Mass/volume] in Urine by Test strip"
        },
        "valueQuantity": {
          "system": "http://unitsofmeasure.org",
          "value": 1,
          "unit": "mg/dL",
          "code": "mg/dL"
        },
        "referenceRange": [
          {
            "low": {
              "value": 0,
              "code": "mg/dL",
              "system": "http://unitsofmeasure.org"
            }
          },
          {
            "high": {
              "value": 1.5,
              "code": "mg/dL",
              "system": "http://unitsofmeasure.org"
            }
          }
        ],
        "text": {
          "status": "generated",
          "div": "<div xmlns=\"http://www.w3.org/1999/xhtml\"><table class=\"hl7__eu__lab__report\"><tr><th>Test</th><th>27-Jul-2017</th><th>Reference&#xA0;Range</th><th>Unit</th></tr><tr><td>Bilirubin.total [Mass/volume] in Urine by Test strip</td><td>1.0</td><td>0 - 1.5</td><td></td><td>mg/dL</td></tr></table></div>"
        },
        "status": "final",
        "subject": {
          "reference": "urn:uuid:c64fde65-7c74-4cde-809a-f9c931c1c974",
          "display": "Maria Nohlmans"
        },
        "effectiveDateTime": "2017-07-27T21:37:39Z",
        "specimen": {
          "reference": "urn:uuid:9cc53633-ba88-48a5-ba3c-16d022e1f49d"
        }
      }
    },
    {
      "fullUrl": "urn:uuid:4ea7351b-aaf0-4137-8a31-480842ada28e",
      "resource": {
        "resourceType": "Observation",
        "id": "4ea7351b-aaf0-4137-8a31-480842ada28e",
        "meta": {
          "profile": [
            "http://hl7.eu/fhir/laboratory/StructureDefinition/Observation-resultslab-eu-lab"
          ]
        },
        "performer": [
          {
            "display": "The Central European Lab"
          }
        ],
        "category": [
          {
            "coding": [
              {
                "system": "http://terminology.hl7.org/CodeSystem/observation-category",
                "code": "laboratory"
              }
            ]
          }
        ],
        "code": {
          "coding": [
            {
              "code": "5770-3",
              "system": "http://loinc.org",
              "display": "Bilirubin.total [Presence] in Urine by Test strip"
            }
          ],
          "text": "Bilirubin.total [Presence] in Urine by Test strip"
        },
        "text": {
          "status": "generated",
          "div": "<div xmlns=\"http://www.w3.org/1999/xhtml\"><table class=\"hl7__eu__lab__report\"><tr><th>Test</th><th>27-Jul-2017</th><th>Reference&#xA0;Range</th><th>Unit</th></tr><tr><td>Bilirubin.total [Presence] in Urine by Test strip</td></tr></table></div>"
        },
        "status": "final",
        "subject": {
          "reference": "urn:uuid:c64fde65-7c74-4cde-809a-f9c931c1c974",
          "display": "Maria Nohlmans"
        },
        "effectiveDateTime": "2017-07-27T21:37:39Z",
        "specimen": {
          "reference": "urn:uuid:9cc53633-ba88-48a5-ba3c-16d022e1f49d"
        }
      }
    },
    {
      "fullUrl": "urn:uuid:9c44faea-5828-43d4-ad65-2c702428b2b1",
      "resource": {
        "resourceType": "Observation",
        "id": "9c44faea-5828-43d4-ad65-2c702428b2b1",
        "meta": {
          "profile": [
            "http://hl7.eu/fhir/laboratory/StructureDefinition/Observation-resultslab-eu-lab"
          ]
        },
        "performer": [
          {
            "display": "The Central European Lab"
          }
        ],
        "category": [
          {
            "coding": [
              {
                "system": "http://terminology.hl7.org/CodeSystem/observation-category",
                "code": "laboratory"
              }
            ]
          }
        ],
        "code": {
          "coding": [
            {
              "code": "5797-6",
              "system": "http://loinc.org",
              "display": "Ketones [Mass/volume] in Urine by Test strip"
            }
          ],
          "text": "Ketones [Mass/volume] in Urine by Test strip"
        },
        "valueQuantity": {
          "system": "http://unitsofmeasure.org",
          "value": 18.3,
          "unit": "mg/dL",
          "code": "mg/dL"
        },
        "referenceRange": [
          {
            "low": {
              "value": 0,
              "code": "mg/dL",
              "system": "http://unitsofmeasure.org"
            }
          },
          {
            "high": {
              "value": 8,
              "code": "mg/dL",
              "system": "http://unitsofmeasure.org"
            }
          }
        ],
        "interpretation": [
          {
            "coding": [
              {
                "code": "H",
                "system": "http://terminology.hl7.org/CodeSystem/v3-ObservationInterpretation",
                "display": "High"
              }
            ]
          }
        ],
        "text": {
          "status": "generated",
          "div": "<div xmlns=\"http://www.w3.org/1999/xhtml\"><table class=\"hl7__eu__lab__report\"><tr><th>Test</th><th>27-Jul-2017</th><th>Reference&#xA0;Range</th><th>Unit</th></tr><tr><td>Ketones [Mass/volume] in Urine by Test strip</td><td>18.3</td><td>0 - 8</td><td>H</td><td>mg/dL</td></tr></table></div>"
        },
        "status": "final",
        "subject": {
          "reference": "urn:uuid:c64fde65-7c74-4cde-809a-f9c931c1c974",
          "display": "Maria Nohlmans"
        },
        "effectiveDateTime": "2017-07-27T21:37:39Z",
        "specimen": {
          "reference": "urn:uuid:9cc53633-ba88-48a5-ba3c-16d022e1f49d"
        }
      }
    },
    {
      "fullUrl": "urn:uuid:eca2e1f6-526f-4baf-9df4-38db2c2db755",
      "resource": {
        "resourceType": "Observation",
        "id": "eca2e1f6-526f-4baf-9df4-38db2c2db755",
        "meta": {
          "profile": [
            "http://hl7.eu/fhir/laboratory/StructureDefinition/Observation-resultslab-eu-lab"
          ]
        },
        "performer": [
          {
            "display": "The Central European Lab"
          }
        ],
        "category": [
          {
            "coding": [
              {
                "system": "http://terminology.hl7.org/CodeSystem/observation-category",
                "code": "laboratory"
              }
            ]
          }
        ],
        "code": {
          "coding": [
            {
              "code": "2514-8",
              "system": "http://loinc.org",
              "display": "Ketones [Presence] in Urine by Test strip"
            }
          ],
          "text": "Ketones [Presence] in Urine by Test strip"
        },
        "text": {
          "status": "generated",
          "div": "<div xmlns=\"http://www.w3.org/1999/xhtml\"><table class=\"hl7__eu__lab__report\"><tr><th>Test</th><th>27-Jul-2017</th><th>Reference&#xA0;Range</th><th>Unit</th></tr><tr><td>Ketones [Presence] in Urine by Test strip</td></tr></table></div>"
        },
        "status": "final",
        "subject": {
          "reference": "urn:uuid:c64fde65-7c74-4cde-809a-f9c931c1c974",
          "display": "Maria Nohlmans"
        },
        "effectiveDateTime": "2017-07-27T21:37:39Z",
        "specimen": {
          "reference": "urn:uuid:9cc53633-ba88-48a5-ba3c-16d022e1f49d"
        }
      }
    },
    {
      "fullUrl": "urn:uuid:3c445863-1a67-46c6-88d1-39cb53910efe",
      "resource": {
        "resourceType": "Observation",
        "id": "3c445863-1a67-46c6-88d1-39cb53910efe",
        "meta": {
          "profile": [
            "http://hl7.eu/fhir/laboratory/StructureDefinition/Observation-resultslab-eu-lab"
          ]
        },
        "performer": [
          {
            "display": "The Central European Lab"
          }
        ],
        "category": [
          {
            "coding": [
              {
                "system": "http://terminology.hl7.org/CodeSystem/observation-category",
                "code": "laboratory"
              }
            ]
          }
        ],
        "code": {
          "coding": [
            {
              "code": "5811-5",
              "system": "http://loinc.org",
              "display": "Specific gravity of Urine by Test strip"
            }
          ],
          "text": "Specific gravity of Urine by Test strip"
        },
        "valueQuantity": {
          "system": "http://unitsofmeasure.org",
          "value": 1,
          "unit": "{nominal}",
          "code": "{nominal}"
        },
        "referenceRange": [
          {
            "low": {
              "value": 1.01,
              "code": "g/mL",
              "system": "http://unitsofmeasure.org"
            }
          },
          {
            "high": {
              "value": 1.03,
              "code": "g/mL",
              "system": "http://unitsofmeasure.org"
            }
          }
        ],
        "interpretation": [
          {
            "coding": [
              {
                "code": "L",
                "system": "http://terminology.hl7.org/CodeSystem/v3-ObservationInterpretation",
                "display": "Low"
              }
            ]
          }
        ],
        "text": {
          "status": "generated",
          "div": "<div xmlns=\"http://www.w3.org/1999/xhtml\"><table class=\"hl7__eu__lab__report\"><tr><th>Test</th><th>27-Jul-2017</th><th>Reference&#xA0;Range</th><th>Unit</th></tr><tr><td>Specific gravity of Urine by Test strip</td><td>1.0</td><td>1.01 - 1.03</td><td>L</td><td>{nominal}</td></tr></table></div>"
        },
        "status": "final",
        "subject": {
          "reference": "urn:uuid:c64fde65-7c74-4cde-809a-f9c931c1c974",
          "display": "Maria Nohlmans"
        },
        "effectiveDateTime": "2017-07-27T21:37:39Z",
        "specimen": {
          "reference": "urn:uuid:9cc53633-ba88-48a5-ba3c-16d022e1f49d"
        }
      }
    },
    {
      "fullUrl": "urn:uuid:f657a280-47ad-4a9f-9020-f97f7e08b9e6",
      "resource": {
        "resourceType": "Observation",
        "id": "f657a280-47ad-4a9f-9020-f97f7e08b9e6",
        "meta": {
          "profile": [
            "http://hl7.eu/fhir/laboratory/StructureDefinition/Observation-resultslab-eu-lab"
          ]
        },
        "performer": [
          {
            "display": "The Central European Lab"
          }
        ],
        "category": [
          {
            "coding": [
              {
                "system": "http://terminology.hl7.org/CodeSystem/observation-category",
                "code": "laboratory"
              }
            ]
          }
        ],
        "code": {
          "coding": [
            {
              "code": "5803-2",
              "system": "http://loinc.org",
              "display": "pH of Urine by Test strip"
            }
          ],
          "text": "pH of Urine by Test strip"
        },
        "valueQuantity": {
          "system": "http://unitsofmeasure.org",
          "value": 5.9,
          "unit": "pH",
          "code": "pH"
        },
        "referenceRange": [
          {
            "low": {
              "value": 4.6,
              "code": "pH",
              "system": "http://unitsofmeasure.org"
            }
          },
          {
            "high": {
              "value": 7.5,
              "code": "pH",
              "system": "http://unitsofmeasure.org"
            }
          }
        ],
        "text": {
          "status": "generated",
          "div": "<div xmlns=\"http://www.w3.org/1999/xhtml\"><table class=\"hl7__eu__lab__report\"><tr><th>Test</th><th>27-Jul-2017</th><th>Reference&#xA0;Range</th><th>Unit</th></tr><tr><td>pH of Urine by Test strip</td><td>5.9</td><td>4.6 - 7.5</td><td></td><td>pH</td></tr></table></div>"
        },
        "status": "final",
        "subject": {
          "reference": "urn:uuid:c64fde65-7c74-4cde-809a-f9c931c1c974",
          "display": "Maria Nohlmans"
        },
        "effectiveDateTime": "2017-07-27T21:37:39Z",
        "specimen": {
          "reference": "urn:uuid:9cc53633-ba88-48a5-ba3c-16d022e1f49d"
        }
      }
    },
    {
      "fullUrl": "urn:uuid:688f9054-a9e9-4c67-a89f-a255c0675876",
      "resource": {
        "resourceType": "Observation",
        "id": "688f9054-a9e9-4c67-a89f-a255c0675876",
        "meta": {
          "profile": [
            "http://hl7.eu/fhir/laboratory/StructureDefinition/Observation-resultslab-eu-lab"
          ]
        },
        "performer": [
          {
            "display": "The Central European Lab"
          }
        ],
        "category": [
          {
            "coding": [
              {
                "system": "http://terminology.hl7.org/CodeSystem/observation-category",
                "code": "laboratory"
              }
            ]
          }
        ],
        "code": {
          "coding": [
            {
              "code": "5804-0",
              "system": "http://loinc.org",
              "display": "Protein [Mass/volume] in Urine by Test strip"
            }
          ],
          "text": "Protein [Mass/volume] in Urine by Test strip"
        },
        "valueQuantity": {
          "system": "http://unitsofmeasure.org",
          "value": 255.4,
          "unit": "mg/dL",
          "code": "mg/dL"
        },
        "referenceRange": [
          {
            "low": {
              "value": 0,
              "code": "mg/dL",
              "system": "http://unitsofmeasure.org"
            }
          },
          {
            "high": {
              "value": 14,
              "code": "mg/dL",
              "system": "http://unitsofmeasure.org"
            }
          }
        ],
        "interpretation": [
          {
            "coding": [
              {
                "code": "H",
                "system": "http://terminology.hl7.org/CodeSystem/v3-ObservationInterpretation",
                "display": "High"
              }
            ]
          }
        ],
        "text": {
          "status": "generated",
          "div": "<div xmlns=\"http://www.w3.org/1999/xhtml\"><table class=\"hl7__eu__lab__report\"><tr><th>Test</th><th>27-Jul-2017</th><th>Reference&#xA0;Range</th><th>Unit</th></tr><tr><td>Protein [Mass/volume] in Urine by Test strip</td><td>255.4</td><td>0 - 14</td><td>H</td><td>mg/dL</td></tr></table></div>"
        },
        "status": "final",
        "subject": {
          "reference": "urn:uuid:c64fde65-7c74-4cde-809a-f9c931c1c974",
          "display": "Maria Nohlmans"
        },
        "effectiveDateTime": "2017-07-27T21:37:39Z",
        "specimen": {
          "reference": "urn:uuid:9cc53633-ba88-48a5-ba3c-16d022e1f49d"
        }
      }
    },
    {
      "fullUrl": "urn:uuid:0058cdb9-d0d7-4dc2-b004-e0463afd5365",
      "resource": {
        "resourceType": "Observation",
        "id": "0058cdb9-d0d7-4dc2-b004-e0463afd5365",
        "meta": {
          "profile": [
            "http://hl7.eu/fhir/laboratory/StructureDefinition/Observation-resultslab-eu-lab"
          ]
        },
        "performer": [
          {
            "display": "The Central European Lab"
          }
        ],
        "category": [
          {
            "coding": [
              {
                "system": "http://terminology.hl7.org/CodeSystem/observation-category",
                "code": "laboratory"
              }
            ]
          }
        ],
        "code": {
          "coding": [
            {
              "code": "20454-5",
              "system": "http://loinc.org",
              "display": "Protein [Presence] in Urine by Test strip"
            }
          ],
          "text": "Protein [Presence] in Urine by Test strip"
        },
        "text": {
          "status": "generated",
          "div": "<div xmlns=\"http://www.w3.org/1999/xhtml\"><table class=\"hl7__eu__lab__report\"><tr><th>Test</th><th>27-Jul-2017</th><th>Reference&#xA0;Range</th><th>Unit</th></tr><tr><td>Protein [Presence] in Urine by Test strip</td></tr></table></div>"
        },
        "status": "final",
        "subject": {
          "reference": "urn:uuid:c64fde65-7c74-4cde-809a-f9c931c1c974",
          "display": "Maria Nohlmans"
        },
        "effectiveDateTime": "2017-07-27T21:37:39Z",
        "specimen": {
          "reference": "urn:uuid:9cc53633-ba88-48a5-ba3c-16d022e1f49d"
        }
      }
    },
    {
      "fullUrl": "urn:uuid:10739b5b-2ded-467f-8804-b4af025be637",
      "resource": {
        "resourceType": "Observation",
        "id": "10739b5b-2ded-467f-8804-b4af025be637",
        "meta": {
          "profile": [
            "http://hl7.eu/fhir/laboratory/StructureDefinition/Observation-resultslab-eu-lab"
          ]
        },
        "performer": [
          {
            "display": "The Central European Lab"
          }
        ],
        "category": [
          {
            "coding": [
              {
                "system": "http://terminology.hl7.org/CodeSystem/observation-category",
                "code": "laboratory"
              }
            ]
          }
        ],
        "code": {
          "coding": [
            {
              "code": "5802-4",
              "system": "http://loinc.org",
              "display": "Nitrite [Presence] in Urine by Test strip"
            }
          ],
          "text": "Nitrite [Presence] in Urine by Test strip"
        },
        "text": {
          "status": "generated",
          "div": "<div xmlns=\"http://www.w3.org/1999/xhtml\"><table class=\"hl7__eu__lab__report\"><tr><th>Test</th><th>27-Jul-2017</th><th>Reference&#xA0;Range</th><th>Unit</th></tr><tr><td>Nitrite [Presence] in Urine by Test strip</td></tr></table></div>"
        },
        "status": "final",
        "subject": {
          "reference": "urn:uuid:c64fde65-7c74-4cde-809a-f9c931c1c974",
          "display": "Maria Nohlmans"
        },
        "effectiveDateTime": "2017-07-27T21:37:39Z",
        "specimen": {
          "reference": "urn:uuid:9cc53633-ba88-48a5-ba3c-16d022e1f49d"
        }
      }
    },
    {
      "fullUrl": "urn:uuid:085e92df-ca66-4499-aecf-d42dc0b5366c",
      "resource": {
        "resourceType": "Observation",
        "id": "085e92df-ca66-4499-aecf-d42dc0b5366c",
        "meta": {
          "profile": [
            "http://hl7.eu/fhir/laboratory/StructureDefinition/Observation-resultslab-eu-lab"
          ]
        },
        "performer": [
          {
            "display": "The Central European Lab"
          }
        ],
        "category": [
          {
            "coding": [
              {
                "system": "http://terminology.hl7.org/CodeSystem/observation-category",
                "code": "laboratory"
              }
            ]
          }
        ],
        "code": {
          "coding": [
            {
              "code": "5794-3",
              "system": "http://loinc.org",
              "display": "Hemoglobin [Presence] in Urine by Test strip"
            }
          ],
          "text": "Hemoglobin [Presence] in Urine by Test strip"
        },
        "text": {
          "status": "generated",
          "div": "<div xmlns=\"http://www.w3.org/1999/xhtml\"><table class=\"hl7__eu__lab__report\"><tr><th>Test</th><th>27-Jul-2017</th><th>Reference&#xA0;Range</th><th>Unit</th></tr><tr><td>Hemoglobin [Presence] in Urine by Test strip</td></tr></table></div>"
        },
        "status": "final",
        "subject": {
          "reference": "urn:uuid:c64fde65-7c74-4cde-809a-f9c931c1c974",
          "display": "Maria Nohlmans"
        },
        "effectiveDateTime": "2017-07-27T21:37:39Z",
        "specimen": {
          "reference": "urn:uuid:9cc53633-ba88-48a5-ba3c-16d022e1f49d"
        }
      }
    },
    {
      "fullUrl": "urn:uuid:837b9317-58a9-4bec-bb35-111b997e0404",
      "resource": {
        "resourceType": "Observation",
        "id": "837b9317-58a9-4bec-bb35-111b997e0404",
        "meta": {
          "profile": [
            "http://hl7.eu/fhir/laboratory/StructureDefinition/Observation-resultslab-eu-lab"
          ]
        },
        "performer": [
          {
            "display": "The Central European Lab"
          }
        ],
        "category": [
          {
            "coding": [
              {
                "system": "http://terminology.hl7.org/CodeSystem/observation-category",
                "code": "laboratory"
              }
            ]
          }
        ],
        "code": {
          "coding": [
            {
              "code": "5799-2",
              "system": "http://loinc.org",
              "display": "Leukocyte esterase [Presence] in Urine by Test strip"
            }
          ],
          "text": "Leukocyte esterase [Presence] in Urine by Test strip"
        },
        "text": {
          "status": "generated",
          "div": "<div xmlns=\"http://www.w3.org/1999/xhtml\"><table class=\"hl7__eu__lab__report\"><tr><th>Test</th><th>27-Jul-2017</th><th>Reference&#xA0;Range</th><th>Unit</th></tr><tr><td>Leukocyte esterase [Presence] in Urine by Test strip</td></tr></table></div>"
        },
        "status": "final",
        "subject": {
          "reference": "urn:uuid:c64fde65-7c74-4cde-809a-f9c931c1c974",
          "display": "Maria Nohlmans"
        },
        "effectiveDateTime": "2017-07-27T21:37:39Z",
        "specimen": {
          "reference": "urn:uuid:9cc53633-ba88-48a5-ba3c-16d022e1f49d"
        }
      }
    },
    {
      "fullUrl": "urn:uuid:cf3171d5-0536-4a11-86ef-9ca11c12bb1b",
      "resource": {
        "resourceType": "Device",
        "id": "cf3171d5-0536-4a11-86ef-9ca11c12bb1b",
        "deviceName": [
          {
            "name": "SYNDERAI Synthetic Generator",
            "type": "manufacturer-name"
          }
        ],
        "version": [
          {
            "value": "5.0"
          }
        ],
        "text": {
          "status": "generated",
          "div": "<div xmlns=\"http://www.w3.org/1999/xhtml\">SYNDERAI Synthetic Generator v5.0</div>"
        },
        "status": "active\"",
        "distinctIdentifier": "synderai-generator-50",
        "manufacturer": "SYNDERAI Project"
      }
    },
    {
      "fullUrl": "urn:uuid:afa2e136-5c4f-4286-b4f2-b920682437b3",
      "resource": {
        "resourceType": "Provenance",
        "id": "afa2e136-5c4f-4286-b4f2-b920682437b3",
        "target": [
          {
            "reference": "Patient/c64fde65-7c74-4cde-809a-f9c931c1c974"
          },
          {
            "reference": "Bundle/edf49b2a-4fbb-4791-8e2f-1a90341f88d9"
          },
          {
            "reference": "Composition/59688dae-bf3d-47ac-b43c-60e80e2b1c76"
          },
          {
            "reference": "PractitionerRole/291d30e8-4f5f-402d-abb5-cdbd44a0c427"
          },
          {
            "reference": "Practitioner/42971373-38e6-413a-8775-fec30ee3c1fe"
          },
          {
            "reference": "PractitionerRole/3b888d4e-ca2e-422c-9a77-5edbb8eb95ff"
          },
          {
            "reference": "Organization/fffac135-04f6-4a1a-8f2b-93603879b87a"
          }
        ],
        "activity": {
          "text": "Synthetic Example Data Generation"
        },
        "policy": [
          "https://synderai.net/synderai-synthetic-data-policy"
        ],
        "agent": [
          {
            "type": {
              "text": "author"
            },
            "who": {
              "reference": "Device/cf3171d5-0536-4a11-86ef-9ca11c12bb1b"
            }
          }
        ],
        "reason": [
          {
            "text": "Interoperability Testing and Training (non-clinical use)"
          }
        ],
        "text": {
          "status": "generated",
          "div": "<div xmlns=\"http://www.w3.org/1999/xhtml\">Provenance for SYNDERAI Synthetic Example Data Resource</div>"
        },
        "recorded": "2017-07-27T23:37:39Z"
      }
    },
    {
      "fullUrl": "urn:uuid:291d30e8-4f5f-402d-abb5-cdbd44a0c427",
      "resource": {
        "resourceType": "PractitionerRole",
        "id": "291d30e8-4f5f-402d-abb5-cdbd44a0c427",
        "meta": {
          "profile": [
            "http://hl7.eu/fhir/base/StructureDefinition/practitionerRole-eu"
          ]
        },
        "text": {
          "status": "generated",
          "div": "<div xmlns=\"http://www.w3.org/1999/xhtml\">Laboratory Role Id: 291d30e8-4f5f-402d-abb5-cdbd44a0c427</div>"
        },
        "practitioner": {
          "reference": "urn:uuid:42971373-38e6-413a-8775-fec30ee3c1fe"
        }
      }
    },
    {
      "fullUrl": "urn:uuid:42971373-38e6-413a-8775-fec30ee3c1fe",
      "resource": {
        "resourceType": "Practitioner",
        "id": "42971373-38e6-413a-8775-fec30ee3c1fe",
        "meta": {
          "profile": [
            "http://hl7.eu/fhir/base/StructureDefinition/practitioner-eu"
          ]
        },
        "identifier": [
          {
            "assigner": {
              "display": "HL7 Europe"
            },
            "system": "urn:oid:2.16.840.1.113883.2.51.999",
            "value": "3afd7080-f9c9-4250-b23c-b98fc3e1129b"
          }
        ],
        "name": [
          {
            "prefix": [
              "dr"
            ],
            "given": [
              "Ex"
            ],
            "family": "Ample"
          }
        ],
        "address": [
          {
            "line": [
              "Laboratoire Central Européenne",
              "Boulevard du Jardin Botanique 32"
            ],
            "postalCode": "1000",
            "city": "Brussels",
            "country": "Belgium"
          }
        ],
        "text": {
          "status": "generated",
          "div": "<div xmlns=\"http://www.w3.org/1999/xhtml\">Laboratory: Laboratoire Central Européenne, 1000 Brussels, Belgium</div>"
        }
      }
    }
  ],
  "type": "document",
  "timestamp": "2017-07-27T23:37:39Z"
}
