{
  "resourceType": "Bundle",
  "id": "ee79e63a-1c85-451d-ac4f-3b0eca3684ed",
  "meta": {
    "profile": [
      "http://hl7.eu/fhir/laboratory/StructureDefinition/Bundle-eu-lab"
    ]
  },
  "identifier": {
    "assigner": {
      "display": "HL7 Europe"
    },
    "system": "urn:oid:2.16.840.1.113883.2.51.999",
    "value": "14efba0e-dcd2-4ff3-bd0e-39ea90d6d086"
  },
  "entry": [
    {
      "fullUrl": "urn:uuid:1d774a9a-d6e7-40c9-a66d-083d244e0b63",
      "resource": {
        "resourceType": "Composition",
        "id": "1d774a9a-d6e7-40c9-a66d-083d244e0b63",
        "meta": {
          "profile": [
            "http://hl7.eu/fhir/laboratory/StructureDefinition/Composition-eu-lab"
          ]
        },
        "identifier": {
          "assigner": {
            "display": "HL7 Europe"
          },
          "system": "urn:oid:2.16.840.1.113883.2.51.999",
          "value": "739e5f77-0558-4493-876f-1f66362fde6e"
        },
        "author": [
          {
            "reference": "urn:uuid:f48d9e18-b0fb-4970-8612-0d99f3577695"
          }
        ],
        "category": [
          {
            "coding": [
              {
                "code": "26436-6",
                "system": "http://loinc.org",
                "display": "Laboratory studies (set)"
              }
            ]
          }
        ],
        "type": {
          "coding": [
            {
              "code": "11502-2",
              "system": "http://loinc.org",
              "display": "Laboratory report"
            }
          ],
          "text": "Laboratory Report"
        },
        "section": [
          {
            "code": {
              "coding": [
                {
                  "code": "26436-6",
                  "system": "http://loinc.org",
                  "display": "Laboratory studies (set)"
                }
              ],
              "text": "Laboratory studies"
            },
            "section": [
              {
                "code": {
                  "coding": [
                    {
                      "code": "$18723-7",
                      "system": "http://loinc.org",
                      "display": "Hematology studies (set)"
                    }
                  ],
                  "text": "Hematology"
                },
                "entry": [
                  {
                    "reference": "urn:uuid:898a5d6c-2e09-4aa5-a77c-1957bab2fe81"
                  },
                  {
                    "reference": "urn:uuid:065d28ee-d54d-4e07-a2e3-4c1dff2a2cf1"
                  },
                  {
                    "reference": "urn:uuid:a5fbcb97-3313-4036-aebc-1f67de92ae0e"
                  },
                  {
                    "reference": "urn:uuid:235f5f68-a317-43da-b0fa-5660ae9fb85f"
                  },
                  {
                    "reference": "urn:uuid:340d4d2b-4c91-404e-b938-aade86e5d8a9"
                  },
                  {
                    "reference": "urn:uuid:f5559ead-f5a9-4624-8592-c73c7ba59ffe"
                  },
                  {
                    "reference": "urn:uuid:f9e3b311-3544-4eb6-b178-b526d776e1ef"
                  },
                  {
                    "reference": "urn:uuid:5c8ae77b-3abc-46ec-b12c-12b07f1e8b95"
                  },
                  {
                    "reference": "urn:uuid:6644c3ee-b741-4f9a-93b1-deebc2fe8272"
                  },
                  {
                    "reference": "urn:uuid:3d6363b1-fe90-49b5-9e94-f6284d1fe875"
                  },
                  {
                    "reference": "urn:uuid:2b6f525d-2bdf-4cda-941c-6d59e0f8a167"
                  }
                ],
                "text": {
                  "status": "generated",
                  "div": "<div xmlns=\"http://www.w3.org/1999/xhtml\"><h3>Hematology</h3><table class=\"hl7__eu__lab__report\"><thead><tr><th>Test</th><th>21-JAN-2016</th><th>Reference&#xA0;Range</th><th>Unit</th></tr></thead><tbody><tr><td>Leukocytes [#/volume] in Blood by Automated count</td><td>5.6</td><td>4 - 11</td><td>10*3/uL</td></tr><tr><td>Erythrocytes [#/volume] in Blood by Automated count</td><td><strong>5.4 H</strong></td><td>4 - 5.2</td><td>10*6/uL</td></tr><tr><td>Hemoglobin [Mass/volume] in Blood</td><td>14.3</td><td>12 - 16</td><td>g/dL</td></tr><tr><td>Hematocrit [Volume Fraction] of Blood by Automated count</td><td>44.0</td><td>36 - 52</td><td>%</td></tr><tr><td>MCV [Entitic volume] by Automated count</td><td><strong>81.8 L</strong></td><td>82 - 98</td><td>fL</td></tr><tr><td>MCH [Entitic mass] by Automated count</td><td>28.7</td><td>27 - 33</td><td>pg</td></tr><tr><td>MCHC [Mass/volume] by Automated count</td><td>33.8</td><td>31 - 35</td><td>g/dL</td></tr><tr><td>Erythrocyte distribution width [Entitic volume] by Automated count</td><td>40.2</td><td>36 - 55</td><td>fL</td></tr><tr><td>Platelets [#/volume] in Blood by Automated count</td><td>235.9</td><td>150 - 450</td><td>10*3/uL</td></tr><tr><td>Platelet distribution width [Entitic volume] in Blood by Automated count</td><td><strong>216.9 H</strong></td><td>11.6 - 17.4</td><td>fL</td></tr><tr><td>Platelet mean volume [Entitic volume] in Blood by Automated count</td><td>11.5</td><td>7.2 - 13.5</td><td>fL</td></tr></tbody></table></div>"
                },
                "title": "Hematology"
              }
            ],
            "title": "Laboratory Report"
          },
          {
            "text": {
              "status": "generated",
              "div": "<div xmlns=\"http://www.w3.org/1999/xhtml\"><h3>Annotation</h3><table class=\"hl7__eu__lab__report\"><tr><th>Conclusion and Recommendations based on this report and previous findings known to us</th></tr><tr><td>The results show a mildly elevated erythrocyte count and a slightly decreased MCV, suggesting possible early or mild microcytosis (e.g., early iron deficiency or thalassemia trait). Platelet count is normal, but platelet distribution width is markedly elevated, which may indicate increased platelet size variability, possibly due to reactive or regenerative processes. Other parameters are within normal limits. Correlation with clinical context and further evaluation may be considered.</td></tr></table></div>"
            },
            "code": {
              "coding": [
                {
                  "system": "http://loinc.org",
                  "code": "48767-8",
                  "display": "Annotation comment"
                }
              ]
            },
            "title": "Annotation comment"
          }
        ],
        "status": "final",
        "subject": {
          "reference": "urn:uuid:30c25188-4964-4d55-822f-dfc1df536439",
          "display": "Vincenza Porzio"
        },
        "date": "2016-01-21T19:51:27Z",
        "title": "Laboratory Report",
        "confidentiality": "N"
      }
    },
    {
      "fullUrl": "urn:uuid:6be57cdb-bd04-45ca-b774-e6d873f0e3fb",
      "resource": {
        "resourceType": "DiagnosticReport",
        "id": "6be57cdb-bd04-45ca-b774-e6d873f0e3fb",
        "meta": {
          "profile": [
            "http://hl7.eu/fhir/laboratory/StructureDefinition/DiagnosticReport-eu-lab"
          ]
        },
        "identifier": [
          {
            "assigner": {
              "display": "HL7 Europe"
            },
            "system": "urn:oid:2.16.840.1.113883.2.51.999",
            "value": "c50a8b81-f2d4-4c94-b306-1c15dbb68ffe"
          }
        ],
        "extension": [
          {
            "url": "http://hl7.org/fhir/5.0/StructureDefinition/extension-DiagnosticReport.composition",
            "valueReference": {
              "reference": "urn:uuid:739e5f77-0558-4493-876f-1f66362fde6e"
            }
          }
        ],
        "category": [
          {
            "coding": [
              {
                "code": "26436-6",
                "system": "http://loinc.org",
                "display": "Laboratory studies (set)"
              }
            ]
          }
        ],
        "specimen": [
          {
            "reference": "urn:uuid:55b42c73-6408-4ec9-980f-9095712126f3"
          },
          {
            "reference": "urn:uuid:55b42c73-6408-4ec9-980f-9095712126f3"
          }
        ],
        "result": [
          {
            "reference": "urn:uuid:898a5d6c-2e09-4aa5-a77c-1957bab2fe81"
          },
          {
            "reference": "urn:uuid:065d28ee-d54d-4e07-a2e3-4c1dff2a2cf1"
          },
          {
            "reference": "urn:uuid:a5fbcb97-3313-4036-aebc-1f67de92ae0e"
          },
          {
            "reference": "urn:uuid:235f5f68-a317-43da-b0fa-5660ae9fb85f"
          },
          {
            "reference": "urn:uuid:340d4d2b-4c91-404e-b938-aade86e5d8a9"
          },
          {
            "reference": "urn:uuid:f5559ead-f5a9-4624-8592-c73c7ba59ffe"
          },
          {
            "reference": "urn:uuid:f9e3b311-3544-4eb6-b178-b526d776e1ef"
          },
          {
            "reference": "urn:uuid:5c8ae77b-3abc-46ec-b12c-12b07f1e8b95"
          },
          {
            "reference": "urn:uuid:6644c3ee-b741-4f9a-93b1-deebc2fe8272"
          },
          {
            "reference": "urn:uuid:3d6363b1-fe90-49b5-9e94-f6284d1fe875"
          },
          {
            "reference": "urn:uuid:2b6f525d-2bdf-4cda-941c-6d59e0f8a167"
          }
        ],
        "status": "registered",
        "code": {
          "coding": [
            {
              "code": "11502-2",
              "system": "http://loinc.org",
              "display": "Laboratory report"
            }
          ]
        },
        "subject": {
          "reference": "urn:uuid:30c25188-4964-4d55-822f-dfc1df536439",
          "display": "Vincenza Porzio"
        }
      }
    },
    {
      "fullUrl": "urn:uuid:30c25188-4964-4d55-822f-dfc1df536439",
      "resource": {
        "resourceType": "Patient",
        "id": "30c25188-4964-4d55-822f-dfc1df536439",
        "meta": {
          "security": [
            {
              "system": "http://terminology.hl7.org/CodeSystem/v3-ActReason",
              "code": "HTEST"
            },
            {
              "system": "http://terminology.hl7.org/CodeSystem/v3-ActReason",
              "code": "TRAIN"
            }
          ],
          "tag": [
            {
              "system": "https://synderai.net/fhir/CodeSystem/tags",
              "code": "synthetic",
              "display": "SYNDERAI Synthetic data"
            }
          ],
          "profile": [
            "http://hl7.eu/fhir/base/StructureDefinition/patient-eu-core"
          ]
        },
        "identifier": [
          {
            "type": {
              "coding": [
                {
                  "code": "PT",
                  "system": "http://terminology.hl7.org/CodeSystem/v2-0203"
                }
              ]
            },
            "system": "http://ec.europa.eu/identifier/eci",
            "value": "9988-341158-1"
          },
          {
            "type": {
              "coding": [
                {
                  "code": "MR",
                  "system": "http://terminology.hl7.org/CodeSystem/v2-0203"
                }
              ]
            },
            "system": "http://local.setting.eu/identifier",
            "value": "559a1acd-87c3-5b56-0345-4eaff6c5aa0a"
          }
        ],
        "name": [
          {
            "family": "Porzio"
          },
          {
            "given": [
              "Vincenza"
            ]
          },
          {
            "text": "Vincenza Porzio"
          }
        ],
        "address": [
          {
            "line": [
              "Piazza Allegra, 720"
            ],
            "use": "home",
            "type": "physical",
            "postalCode": "36040",
            "city": "Grumolo Pedemonte",
            "country": "Italy"
          }
        ],
        "telecom": [
          {
            "system": "phone",
            "value": "041007473"
          }
        ],
        "extension": [
          {
            "url": "http://hl7.org/fhir/StructureDefinition/patient-nationality",
            "valueCodeableConcept": {
              "coding": [
                {
                  "code": "IT",
                  "system": "http://hl7.org/fhir/ValueSet/country"
                }
              ]
            }
          }
        ],
        "text": {
          "status": "generated",
          "div": "<div xmlns=\"http://www.w3.org/1999/xhtml\"><table class=\"hl7__ips\"><tr><td>Vincenza Porzio</td><td>female</td><td>13-Sep-1965</td></tr></table></div>"
        },
        "gender": "female",
        "birthDate": "1965-09-13"
      }
    },
    {
      "fullUrl": "urn:uuid:101276a4-e4cf-4703-a0e8-ad8f7af9ae0e",
      "resource": {
        "resourceType": "ServiceRequest",
        "id": "101276a4-e4cf-4703-a0e8-ad8f7af9ae0e",
        "meta": {
          "profile": [
            "http://hl7.eu/fhir/laboratory/StructureDefinition/ServiceRequest-eu-lab"
          ]
        },
        "identifier": [
          {
            "system": "http://example.org",
            "value": "31aef248-6721-445c-99c9-5c22f3778860"
          }
        ],
        "specimen": [
          {
            "reference": "urn:uuid:55b42c73-6408-4ec9-980f-9095712126f3"
          }
        ],
        "reasonCode": [
          {
            "coding": [
              {
                "code": "40055000",
                "system": "http://snomed.info/sct",
                "display": "Chronic sinusitis"
              }
            ]
          },
          {
            "coding": [
              {
                "code": "15777000",
                "system": "http://snomed.info/sct",
                "display": "Prediabetes"
              }
            ]
          },
          {
            "coding": [
              {
                "code": "239873007",
                "system": "http://snomed.info/sct",
                "display": "Osteoarthritis of knee"
              }
            ]
          },
          {
            "coding": [
              {
                "code": "6525002",
                "system": "http://snomed.info/sct",
                "display": "Dependent drug abuse"
              }
            ]
          },
          {
            "coding": [
              {
                "code": "196416002",
                "system": "http://snomed.info/sct",
                "display": "Impacted molars"
              }
            ]
          },
          {
            "coding": [
              {
                "code": "124171000119105",
                "system": "http://snomed.info/sct",
                "display": "Chronic intractable migraine without aura"
              }
            ]
          }
        ],
        "status": "active",
        "intent": "order",
        "code": {
          "coding": [
            {
              "code": "108252007",
              "system": "http://snomed.info/sct",
              "display": "Laboratory procedure"
            }
          ]
        },
        "subject": {
          "reference": "urn:uuid:30c25188-4964-4d55-822f-dfc1df536439",
          "display": "Vincenza Porzio"
        },
        "requester": {
          "reference": "urn:uuid:3f6f0bd6-97ac-42dd-8ae5-f83c776c3b36"
        }
      }
    },
    {
      "fullUrl": "urn:uuid:3f6f0bd6-97ac-42dd-8ae5-f83c776c3b36",
      "resource": {
        "resourceType": "PractitionerRole",
        "id": "3f6f0bd6-97ac-42dd-8ae5-f83c776c3b36",
        "meta": {
          "profile": [
            "http://hl7.eu/fhir/base/StructureDefinition/practitionerRole-eu"
          ]
        },
        "text": {
          "status": "generated",
          "div": "<div xmlns=\"http://www.w3.org/1999/xhtml\">Provider Role Id: 3f6f0bd6-97ac-42dd-8ae5-f83c776c3b36</div>"
        },
        "organization": {
          "reference": "urn:uuid:71349229-e054-4a1e-9447-440c764f28d0"
        }
      }
    },
    {
      "fullUrl": "urn:uuid:71349229-e054-4a1e-9447-440c764f28d0",
      "resource": {
        "resourceType": "Organization",
        "id": "71349229-e054-4a1e-9447-440c764f28d0",
        "meta": {
          "profile": [
            "http://hl7.eu/fhir/base/StructureDefinition/organization-eu"
          ]
        },
        "identifier": [
          {
            "assigner": {
              "display": "HL7 Europe"
            },
            "system": "urn:oid:2.16.840.1.113883.2.51.999",
            "value": "c5ed202f-03ef-43ee-9609-e322a4e0d48c"
          }
        ],
        "address": [
          {
            "country": "Italy"
          }
        ],
        "text": {
          "status": "generated",
          "div": "<div xmlns=\"http://www.w3.org/1999/xhtml\">Provider Organization: Villa Margherita</div>"
        },
        "name": "Villa Margherita"
      }
    },
    {
      "fullUrl": "urn:uuid:55b42c73-6408-4ec9-980f-9095712126f3",
      "resource": {
        "resourceType": "Specimen",
        "id": "55b42c73-6408-4ec9-980f-9095712126f3",
        "meta": {
          "profile": [
            "http://hl7.eu/fhir/laboratory/StructureDefinition/Specimen-eu-lab"
          ]
        },
        "collection": {
          "collectedDateTime": "2016-01-21"
        },
        "text": {
          "status": "generated",
          "div": "<div xmlns=\"http://www.w3.org/1999/xhtml\"><table class=\"hl7__eu__lab__report\"><tr><th>Specimen</th><th>Collection Date</th></tr><tr><td>Whole blood specimen (specimen)</td><td><span class=\"nb\">21-Jan-2016</span></td></tr></table></div>"
        },
        "type": {
          "coding": [
            {
              "code": "258580003",
              "system": "http://snomed.info/sct",
              "display": "Whole blood specimen (specimen)"
            }
          ]
        }
      }
    },
    {
      "fullUrl": "urn:uuid:55b42c73-6408-4ec9-980f-9095712126f3",
      "resource": {
        "resourceType": "Specimen",
        "id": "55b42c73-6408-4ec9-980f-9095712126f3",
        "meta": {
          "profile": [
            "http://hl7.eu/fhir/laboratory/StructureDefinition/Specimen-eu-lab"
          ]
        },
        "collection": {
          "collectedDateTime": "2016-01-21"
        },
        "text": {
          "status": "generated",
          "div": "<div xmlns=\"http://www.w3.org/1999/xhtml\"><table class=\"hl7__eu__lab__report\"><tr><th>Specimen</th><th>Collection Date</th></tr><tr><td>Whole blood specimen (specimen)</td><td><span class=\"nb\">21-Jan-2016</span></td></tr></table></div>"
        },
        "type": {
          "coding": [
            {
              "code": "258580003",
              "system": "http://snomed.info/sct",
              "display": "Whole blood specimen (specimen)"
            }
          ]
        }
      }
    },
    {
      "fullUrl": "urn:uuid:898a5d6c-2e09-4aa5-a77c-1957bab2fe81",
      "resource": {
        "resourceType": "Observation",
        "id": "898a5d6c-2e09-4aa5-a77c-1957bab2fe81",
        "meta": {
          "profile": [
            "http://hl7.eu/fhir/laboratory/StructureDefinition/Observation-resultslab-eu-lab"
          ]
        },
        "performer": [
          {
            "display": "The Central European Lab"
          }
        ],
        "category": [
          {
            "coding": [
              {
                "system": "http://terminology.hl7.org/CodeSystem/observation-category",
                "code": "laboratory"
              }
            ]
          }
        ],
        "code": {
          "coding": [
            {
              "code": "6690-2",
              "system": "http://loinc.org",
              "display": "Leukocytes [#/volume] in Blood by Automated count"
            }
          ],
          "text": "Leukocytes [#/volume] in Blood by Automated count"
        },
        "valueQuantity": {
          "system": "http://unitsofmeasure.org",
          "value": 5.6,
          "unit": "10*3/uL",
          "code": "10*3/uL"
        },
        "referenceRange": [
          {
            "low": {
              "value": 4,
              "code": "10*3/uL",
              "system": "http://unitsofmeasure.org"
            }
          },
          {
            "high": {
              "value": 11,
              "code": "10*3/uL",
              "system": "http://unitsofmeasure.org"
            }
          }
        ],
        "text": {
          "status": "generated",
          "div": "<div xmlns=\"http://www.w3.org/1999/xhtml\"><table class=\"hl7__eu__lab__report\"><tr><th>Test</th><th>21-Jan-2016</th><th>Reference&#xA0;Range</th><th>Unit</th></tr><tr><td>Leukocytes [#/volume] in Blood by Automated count</td><td>5.6</td><td>4 - 11</td><td></td><td>10*3/uL</td></tr></table></div>"
        },
        "status": "final",
        "subject": {
          "reference": "urn:uuid:30c25188-4964-4d55-822f-dfc1df536439",
          "display": "Vincenza Porzio"
        },
        "effectiveDateTime": "2016-01-21T18:51:27Z",
        "specimen": {
          "reference": "urn:uuid:55b42c73-6408-4ec9-980f-9095712126f3"
        }
      }
    },
    {
      "fullUrl": "urn:uuid:065d28ee-d54d-4e07-a2e3-4c1dff2a2cf1",
      "resource": {
        "resourceType": "Observation",
        "id": "065d28ee-d54d-4e07-a2e3-4c1dff2a2cf1",
        "meta": {
          "profile": [
            "http://hl7.eu/fhir/laboratory/StructureDefinition/Observation-resultslab-eu-lab"
          ]
        },
        "performer": [
          {
            "display": "The Central European Lab"
          }
        ],
        "category": [
          {
            "coding": [
              {
                "system": "http://terminology.hl7.org/CodeSystem/observation-category",
                "code": "laboratory"
              }
            ]
          }
        ],
        "code": {
          "coding": [
            {
              "code": "789-8",
              "system": "http://loinc.org",
              "display": "Erythrocytes [#/volume] in Blood by Automated count"
            }
          ],
          "text": "Erythrocytes [#/volume] in Blood by Automated count"
        },
        "valueQuantity": {
          "system": "http://unitsofmeasure.org",
          "value": 5.4,
          "unit": "10*6/uL",
          "code": "10*6/uL"
        },
        "referenceRange": [
          {
            "low": {
              "value": 4,
              "code": "10*6/uL",
              "system": "http://unitsofmeasure.org"
            }
          },
          {
            "high": {
              "value": 5.2,
              "code": "10*6/uL",
              "system": "http://unitsofmeasure.org"
            }
          }
        ],
        "interpretation": [
          {
            "coding": [
              {
                "code": "H",
                "system": "http://terminology.hl7.org/CodeSystem/v3-ObservationInterpretation",
                "display": "High"
              }
            ]
          }
        ],
        "text": {
          "status": "generated",
          "div": "<div xmlns=\"http://www.w3.org/1999/xhtml\"><table class=\"hl7__eu__lab__report\"><tr><th>Test</th><th>21-Jan-2016</th><th>Reference&#xA0;Range</th><th>Unit</th></tr><tr><td>Erythrocytes [#/volume] in Blood by Automated count</td><td>5.4</td><td>4 - 5.2</td><td>H</td><td>10*6/uL</td></tr></table></div>"
        },
        "status": "final",
        "subject": {
          "reference": "urn:uuid:30c25188-4964-4d55-822f-dfc1df536439",
          "display": "Vincenza Porzio"
        },
        "effectiveDateTime": "2016-01-21T18:51:27Z",
        "specimen": {
          "reference": "urn:uuid:55b42c73-6408-4ec9-980f-9095712126f3"
        }
      }
    },
    {
      "fullUrl": "urn:uuid:a5fbcb97-3313-4036-aebc-1f67de92ae0e",
      "resource": {
        "resourceType": "Observation",
        "id": "a5fbcb97-3313-4036-aebc-1f67de92ae0e",
        "meta": {
          "profile": [
            "http://hl7.eu/fhir/laboratory/StructureDefinition/Observation-resultslab-eu-lab"
          ]
        },
        "performer": [
          {
            "display": "The Central European Lab"
          }
        ],
        "category": [
          {
            "coding": [
              {
                "system": "http://terminology.hl7.org/CodeSystem/observation-category",
                "code": "laboratory"
              }
            ]
          }
        ],
        "code": {
          "coding": [
            {
              "code": "718-7",
              "system": "http://loinc.org",
              "display": "Hemoglobin [Mass/volume] in Blood"
            }
          ],
          "text": "Hemoglobin [Mass/volume] in Blood"
        },
        "valueQuantity": {
          "system": "http://unitsofmeasure.org",
          "value": 14.3,
          "unit": "g/dL",
          "code": "g/dL"
        },
        "referenceRange": [
          {
            "low": {
              "value": 12,
              "code": "g/dL",
              "system": "http://unitsofmeasure.org"
            }
          },
          {
            "high": {
              "value": 16,
              "code": "g/dL",
              "system": "http://unitsofmeasure.org"
            }
          }
        ],
        "text": {
          "status": "generated",
          "div": "<div xmlns=\"http://www.w3.org/1999/xhtml\"><table class=\"hl7__eu__lab__report\"><tr><th>Test</th><th>21-Jan-2016</th><th>Reference&#xA0;Range</th><th>Unit</th></tr><tr><td>Hemoglobin [Mass/volume] in Blood</td><td>14.3</td><td>12 - 16</td><td></td><td>g/dL</td></tr></table></div>"
        },
        "status": "final",
        "subject": {
          "reference": "urn:uuid:30c25188-4964-4d55-822f-dfc1df536439",
          "display": "Vincenza Porzio"
        },
        "effectiveDateTime": "2016-01-21T18:51:27Z",
        "specimen": {
          "reference": "urn:uuid:55b42c73-6408-4ec9-980f-9095712126f3"
        }
      }
    },
    {
      "fullUrl": "urn:uuid:235f5f68-a317-43da-b0fa-5660ae9fb85f",
      "resource": {
        "resourceType": "Observation",
        "id": "235f5f68-a317-43da-b0fa-5660ae9fb85f",
        "meta": {
          "profile": [
            "http://hl7.eu/fhir/laboratory/StructureDefinition/Observation-resultslab-eu-lab"
          ]
        },
        "performer": [
          {
            "display": "The Central European Lab"
          }
        ],
        "category": [
          {
            "coding": [
              {
                "system": "http://terminology.hl7.org/CodeSystem/observation-category",
                "code": "laboratory"
              }
            ]
          }
        ],
        "code": {
          "coding": [
            {
              "code": "4544-3",
              "system": "http://loinc.org",
              "display": "Hematocrit [Volume Fraction] of Blood by Automated count"
            }
          ],
          "text": "Hematocrit [Volume Fraction] of Blood by Automated count"
        },
        "valueQuantity": {
          "system": "http://unitsofmeasure.org",
          "value": 44,
          "unit": "%",
          "code": "%"
        },
        "referenceRange": [
          {
            "low": {
              "value": 36,
              "code": "%",
              "system": "http://unitsofmeasure.org"
            }
          },
          {
            "high": {
              "value": 52,
              "code": "%",
              "system": "http://unitsofmeasure.org"
            }
          }
        ],
        "text": {
          "status": "generated",
          "div": "<div xmlns=\"http://www.w3.org/1999/xhtml\"><table class=\"hl7__eu__lab__report\"><tr><th>Test</th><th>21-Jan-2016</th><th>Reference&#xA0;Range</th><th>Unit</th></tr><tr><td>Hematocrit [Volume Fraction] of Blood by Automated count</td><td>44.0</td><td>36 - 52</td><td></td><td>%</td></tr></table></div>"
        },
        "status": "final",
        "subject": {
          "reference": "urn:uuid:30c25188-4964-4d55-822f-dfc1df536439",
          "display": "Vincenza Porzio"
        },
        "effectiveDateTime": "2016-01-21T18:51:27Z",
        "specimen": {
          "reference": "urn:uuid:55b42c73-6408-4ec9-980f-9095712126f3"
        }
      }
    },
    {
      "fullUrl": "urn:uuid:340d4d2b-4c91-404e-b938-aade86e5d8a9",
      "resource": {
        "resourceType": "Observation",
        "id": "340d4d2b-4c91-404e-b938-aade86e5d8a9",
        "meta": {
          "profile": [
            "http://hl7.eu/fhir/laboratory/StructureDefinition/Observation-resultslab-eu-lab"
          ]
        },
        "performer": [
          {
            "display": "The Central European Lab"
          }
        ],
        "category": [
          {
            "coding": [
              {
                "system": "http://terminology.hl7.org/CodeSystem/observation-category",
                "code": "laboratory"
              }
            ]
          }
        ],
        "code": {
          "coding": [
            {
              "code": "787-2",
              "system": "http://loinc.org",
              "display": "MCV [Entitic volume] by Automated count"
            }
          ],
          "text": "MCV [Entitic volume] by Automated count"
        },
        "valueQuantity": {
          "system": "http://unitsofmeasure.org",
          "value": 81.8,
          "unit": "fL",
          "code": "fL"
        },
        "referenceRange": [
          {
            "low": {
              "value": 82,
              "code": "fL",
              "system": "http://unitsofmeasure.org"
            }
          },
          {
            "high": {
              "value": 98,
              "code": "fL",
              "system": "http://unitsofmeasure.org"
            }
          }
        ],
        "interpretation": [
          {
            "coding": [
              {
                "code": "L",
                "system": "http://terminology.hl7.org/CodeSystem/v3-ObservationInterpretation",
                "display": "Low"
              }
            ]
          }
        ],
        "text": {
          "status": "generated",
          "div": "<div xmlns=\"http://www.w3.org/1999/xhtml\"><table class=\"hl7__eu__lab__report\"><tr><th>Test</th><th>21-Jan-2016</th><th>Reference&#xA0;Range</th><th>Unit</th></tr><tr><td>MCV [Entitic volume] by Automated count</td><td>81.8</td><td>82 - 98</td><td>L</td><td>fL</td></tr></table></div>"
        },
        "status": "final",
        "subject": {
          "reference": "urn:uuid:30c25188-4964-4d55-822f-dfc1df536439",
          "display": "Vincenza Porzio"
        },
        "effectiveDateTime": "2016-01-21T18:51:27Z",
        "specimen": {
          "reference": "urn:uuid:55b42c73-6408-4ec9-980f-9095712126f3"
        }
      }
    },
    {
      "fullUrl": "urn:uuid:f5559ead-f5a9-4624-8592-c73c7ba59ffe",
      "resource": {
        "resourceType": "Observation",
        "id": "f5559ead-f5a9-4624-8592-c73c7ba59ffe",
        "meta": {
          "profile": [
            "http://hl7.eu/fhir/laboratory/StructureDefinition/Observation-resultslab-eu-lab"
          ]
        },
        "performer": [
          {
            "display": "The Central European Lab"
          }
        ],
        "category": [
          {
            "coding": [
              {
                "system": "http://terminology.hl7.org/CodeSystem/observation-category",
                "code": "laboratory"
              }
            ]
          }
        ],
        "code": {
          "coding": [
            {
              "code": "785-6",
              "system": "http://loinc.org",
              "display": "MCH [Entitic mass] by Automated count"
            }
          ],
          "text": "MCH [Entitic mass] by Automated count"
        },
        "valueQuantity": {
          "system": "http://unitsofmeasure.org",
          "value": 28.7,
          "unit": "pg",
          "code": "pg"
        },
        "referenceRange": [
          {
            "low": {
              "value": 27,
              "code": "pg",
              "system": "http://unitsofmeasure.org"
            }
          },
          {
            "high": {
              "value": 33,
              "code": "pg",
              "system": "http://unitsofmeasure.org"
            }
          }
        ],
        "text": {
          "status": "generated",
          "div": "<div xmlns=\"http://www.w3.org/1999/xhtml\"><table class=\"hl7__eu__lab__report\"><tr><th>Test</th><th>21-Jan-2016</th><th>Reference&#xA0;Range</th><th>Unit</th></tr><tr><td>MCH [Entitic mass] by Automated count</td><td>28.7</td><td>27 - 33</td><td></td><td>pg</td></tr></table></div>"
        },
        "status": "final",
        "subject": {
          "reference": "urn:uuid:30c25188-4964-4d55-822f-dfc1df536439",
          "display": "Vincenza Porzio"
        },
        "effectiveDateTime": "2016-01-21T18:51:27Z",
        "specimen": {
          "reference": "urn:uuid:55b42c73-6408-4ec9-980f-9095712126f3"
        }
      }
    },
    {
      "fullUrl": "urn:uuid:f9e3b311-3544-4eb6-b178-b526d776e1ef",
      "resource": {
        "resourceType": "Observation",
        "id": "f9e3b311-3544-4eb6-b178-b526d776e1ef",
        "meta": {
          "profile": [
            "http://hl7.eu/fhir/laboratory/StructureDefinition/Observation-resultslab-eu-lab"
          ]
        },
        "performer": [
          {
            "display": "The Central European Lab"
          }
        ],
        "category": [
          {
            "coding": [
              {
                "system": "http://terminology.hl7.org/CodeSystem/observation-category",
                "code": "laboratory"
              }
            ]
          }
        ],
        "code": {
          "coding": [
            {
              "code": "786-4",
              "system": "http://loinc.org",
              "display": "MCHC [Mass/volume] by Automated count"
            }
          ],
          "text": "MCHC [Mass/volume] by Automated count"
        },
        "valueQuantity": {
          "system": "http://unitsofmeasure.org",
          "value": 33.8,
          "unit": "g/dL",
          "code": "g/dL"
        },
        "referenceRange": [
          {
            "low": {
              "value": 31,
              "code": "g/dL",
              "system": "http://unitsofmeasure.org"
            }
          },
          {
            "high": {
              "value": 35,
              "code": "g/dL",
              "system": "http://unitsofmeasure.org"
            }
          }
        ],
        "text": {
          "status": "generated",
          "div": "<div xmlns=\"http://www.w3.org/1999/xhtml\"><table class=\"hl7__eu__lab__report\"><tr><th>Test</th><th>21-Jan-2016</th><th>Reference&#xA0;Range</th><th>Unit</th></tr><tr><td>MCHC [Mass/volume] by Automated count</td><td>33.8</td><td>31 - 35</td><td></td><td>g/dL</td></tr></table></div>"
        },
        "status": "final",
        "subject": {
          "reference": "urn:uuid:30c25188-4964-4d55-822f-dfc1df536439",
          "display": "Vincenza Porzio"
        },
        "effectiveDateTime": "2016-01-21T18:51:27Z",
        "specimen": {
          "reference": "urn:uuid:55b42c73-6408-4ec9-980f-9095712126f3"
        }
      }
    },
    {
      "fullUrl": "urn:uuid:5c8ae77b-3abc-46ec-b12c-12b07f1e8b95",
      "resource": {
        "resourceType": "Observation",
        "id": "5c8ae77b-3abc-46ec-b12c-12b07f1e8b95",
        "meta": {
          "profile": [
            "http://hl7.eu/fhir/laboratory/StructureDefinition/Observation-resultslab-eu-lab"
          ]
        },
        "performer": [
          {
            "display": "The Central European Lab"
          }
        ],
        "category": [
          {
            "coding": [
              {
                "system": "http://terminology.hl7.org/CodeSystem/observation-category",
                "code": "laboratory"
              }
            ]
          }
        ],
        "code": {
          "coding": [
            {
              "code": "21000-5",
              "system": "http://loinc.org",
              "display": "Erythrocyte distribution width [Entitic volume] by Automated count"
            }
          ],
          "text": "Erythrocyte distribution width [Entitic volume] by Automated count"
        },
        "valueQuantity": {
          "system": "http://unitsofmeasure.org",
          "value": 40.2,
          "unit": "fL",
          "code": "fL"
        },
        "referenceRange": [
          {
            "low": {
              "value": 36,
              "code": "fL",
              "system": "http://unitsofmeasure.org"
            }
          },
          {
            "high": {
              "value": 55,
              "code": "fL",
              "system": "http://unitsofmeasure.org"
            }
          }
        ],
        "text": {
          "status": "generated",
          "div": "<div xmlns=\"http://www.w3.org/1999/xhtml\"><table class=\"hl7__eu__lab__report\"><tr><th>Test</th><th>21-Jan-2016</th><th>Reference&#xA0;Range</th><th>Unit</th></tr><tr><td>Erythrocyte distribution width [Entitic volume] by Automated count</td><td>40.2</td><td>36 - 55</td><td></td><td>fL</td></tr></table></div>"
        },
        "status": "final",
        "subject": {
          "reference": "urn:uuid:30c25188-4964-4d55-822f-dfc1df536439",
          "display": "Vincenza Porzio"
        },
        "effectiveDateTime": "2016-01-21T18:51:27Z",
        "specimen": {
          "reference": "urn:uuid:55b42c73-6408-4ec9-980f-9095712126f3"
        }
      }
    },
    {
      "fullUrl": "urn:uuid:6644c3ee-b741-4f9a-93b1-deebc2fe8272",
      "resource": {
        "resourceType": "Observation",
        "id": "6644c3ee-b741-4f9a-93b1-deebc2fe8272",
        "meta": {
          "profile": [
            "http://hl7.eu/fhir/laboratory/StructureDefinition/Observation-resultslab-eu-lab"
          ]
        },
        "performer": [
          {
            "display": "The Central European Lab"
          }
        ],
        "category": [
          {
            "coding": [
              {
                "system": "http://terminology.hl7.org/CodeSystem/observation-category",
                "code": "laboratory"
              }
            ]
          }
        ],
        "code": {
          "coding": [
            {
              "code": "777-3",
              "system": "http://loinc.org",
              "display": "Platelets [#/volume] in Blood by Automated count"
            }
          ],
          "text": "Platelets [#/volume] in Blood by Automated count"
        },
        "valueQuantity": {
          "system": "http://unitsofmeasure.org",
          "value": 235.9,
          "unit": "10*3/uL",
          "code": "10*3/uL"
        },
        "referenceRange": [
          {
            "low": {
              "value": 150,
              "code": "10*3/uL",
              "system": "http://unitsofmeasure.org"
            }
          },
          {
            "high": {
              "value": 450,
              "code": "10*3/uL",
              "system": "http://unitsofmeasure.org"
            }
          }
        ],
        "text": {
          "status": "generated",
          "div": "<div xmlns=\"http://www.w3.org/1999/xhtml\"><table class=\"hl7__eu__lab__report\"><tr><th>Test</th><th>21-Jan-2016</th><th>Reference&#xA0;Range</th><th>Unit</th></tr><tr><td>Platelets [#/volume] in Blood by Automated count</td><td>235.9</td><td>150 - 450</td><td></td><td>10*3/uL</td></tr></table></div>"
        },
        "status": "final",
        "subject": {
          "reference": "urn:uuid:30c25188-4964-4d55-822f-dfc1df536439",
          "display": "Vincenza Porzio"
        },
        "effectiveDateTime": "2016-01-21T18:51:27Z",
        "specimen": {
          "reference": "urn:uuid:55b42c73-6408-4ec9-980f-9095712126f3"
        }
      }
    },
    {
      "fullUrl": "urn:uuid:3d6363b1-fe90-49b5-9e94-f6284d1fe875",
      "resource": {
        "resourceType": "Observation",
        "id": "3d6363b1-fe90-49b5-9e94-f6284d1fe875",
        "meta": {
          "profile": [
            "http://hl7.eu/fhir/laboratory/StructureDefinition/Observation-resultslab-eu-lab"
          ]
        },
        "performer": [
          {
            "display": "The Central European Lab"
          }
        ],
        "category": [
          {
            "coding": [
              {
                "system": "http://terminology.hl7.org/CodeSystem/observation-category",
                "code": "laboratory"
              }
            ]
          }
        ],
        "code": {
          "coding": [
            {
              "code": "32207-3",
              "system": "http://loinc.org",
              "display": "Platelet distribution width [Entitic volume] in Blood by Automated count"
            }
          ],
          "text": "Platelet distribution width [Entitic volume] in Blood by Automated count"
        },
        "valueQuantity": {
          "system": "http://unitsofmeasure.org",
          "value": 216.9,
          "unit": "fL",
          "code": "fL"
        },
        "referenceRange": [
          {
            "low": {
              "value": 11.6,
              "code": "fL",
              "system": "http://unitsofmeasure.org"
            }
          },
          {
            "high": {
              "value": 17.4,
              "code": "fL",
              "system": "http://unitsofmeasure.org"
            }
          }
        ],
        "interpretation": [
          {
            "coding": [
              {
                "code": "H",
                "system": "http://terminology.hl7.org/CodeSystem/v3-ObservationInterpretation",
                "display": "High"
              }
            ]
          }
        ],
        "text": {
          "status": "generated",
          "div": "<div xmlns=\"http://www.w3.org/1999/xhtml\"><table class=\"hl7__eu__lab__report\"><tr><th>Test</th><th>21-Jan-2016</th><th>Reference&#xA0;Range</th><th>Unit</th></tr><tr><td>Platelet distribution width [Entitic volume] in Blood by Automated count</td><td>216.9</td><td>11.6 - 17.4</td><td>H</td><td>fL</td></tr></table></div>"
        },
        "status": "final",
        "subject": {
          "reference": "urn:uuid:30c25188-4964-4d55-822f-dfc1df536439",
          "display": "Vincenza Porzio"
        },
        "effectiveDateTime": "2016-01-21T18:51:27Z",
        "specimen": {
          "reference": "urn:uuid:55b42c73-6408-4ec9-980f-9095712126f3"
        }
      }
    },
    {
      "fullUrl": "urn:uuid:2b6f525d-2bdf-4cda-941c-6d59e0f8a167",
      "resource": {
        "resourceType": "Observation",
        "id": "2b6f525d-2bdf-4cda-941c-6d59e0f8a167",
        "meta": {
          "profile": [
            "http://hl7.eu/fhir/laboratory/StructureDefinition/Observation-resultslab-eu-lab"
          ]
        },
        "performer": [
          {
            "display": "The Central European Lab"
          }
        ],
        "category": [
          {
            "coding": [
              {
                "system": "http://terminology.hl7.org/CodeSystem/observation-category",
                "code": "laboratory"
              }
            ]
          }
        ],
        "code": {
          "coding": [
            {
              "code": "32623-1",
              "system": "http://loinc.org",
              "display": "Platelet mean volume [Entitic volume] in Blood by Automated count"
            }
          ],
          "text": "Platelet mean volume [Entitic volume] in Blood by Automated count"
        },
        "valueQuantity": {
          "system": "http://unitsofmeasure.org",
          "value": 11.5,
          "unit": "fL",
          "code": "fL"
        },
        "referenceRange": [
          {
            "low": {
              "value": 7.2,
              "code": "fL",
              "system": "http://unitsofmeasure.org"
            }
          },
          {
            "high": {
              "value": 13.5,
              "code": "fL",
              "system": "http://unitsofmeasure.org"
            }
          }
        ],
        "text": {
          "status": "generated",
          "div": "<div xmlns=\"http://www.w3.org/1999/xhtml\"><table class=\"hl7__eu__lab__report\"><tr><th>Test</th><th>21-Jan-2016</th><th>Reference&#xA0;Range</th><th>Unit</th></tr><tr><td>Platelet mean volume [Entitic volume] in Blood by Automated count</td><td>11.5</td><td>7.2 - 13.5</td><td></td><td>fL</td></tr></table></div>"
        },
        "status": "final",
        "subject": {
          "reference": "urn:uuid:30c25188-4964-4d55-822f-dfc1df536439",
          "display": "Vincenza Porzio"
        },
        "effectiveDateTime": "2016-01-21T18:51:27Z",
        "specimen": {
          "reference": "urn:uuid:55b42c73-6408-4ec9-980f-9095712126f3"
        }
      }
    },
    {
      "fullUrl": "urn:uuid:b678ef1f-0961-4d37-8699-89b35179bcf3",
      "resource": {
        "resourceType": "Device",
        "id": "b678ef1f-0961-4d37-8699-89b35179bcf3",
        "deviceName": [
          {
            "name": "SYNDERAI Synthetic Generator",
            "type": "manufacturer-name"
          }
        ],
        "version": [
          {
            "value": "5.0"
          }
        ],
        "text": {
          "status": "generated",
          "div": "<div xmlns=\"http://www.w3.org/1999/xhtml\">SYNDERAI Synthetic Generator v5.0</div>"
        },
        "status": "active\"",
        "distinctIdentifier": "synderai-generator-50",
        "manufacturer": "SYNDERAI Project"
      }
    },
    {
      "fullUrl": "urn:uuid:8c374af6-9790-4c2d-8f80-9e569c2bb56c",
      "resource": {
        "resourceType": "Provenance",
        "id": "8c374af6-9790-4c2d-8f80-9e569c2bb56c",
        "target": [
          {
            "reference": "Patient/30c25188-4964-4d55-822f-dfc1df536439"
          },
          {
            "reference": "Bundle/ee79e63a-1c85-451d-ac4f-3b0eca3684ed"
          },
          {
            "reference": "Composition/1d774a9a-d6e7-40c9-a66d-083d244e0b63"
          },
          {
            "reference": "PractitionerRole/f48d9e18-b0fb-4970-8612-0d99f3577695"
          },
          {
            "reference": "Practitioner/f2f09577-2ecd-4634-9723-b2223d9a598a"
          },
          {
            "reference": "PractitionerRole/3f6f0bd6-97ac-42dd-8ae5-f83c776c3b36"
          },
          {
            "reference": "Organization/71349229-e054-4a1e-9447-440c764f28d0"
          }
        ],
        "activity": {
          "text": "Synthetic Example Data Generation"
        },
        "policy": [
          "https://synderai.net/synderai-synthetic-data-policy"
        ],
        "agent": [
          {
            "type": {
              "text": "author"
            },
            "who": {
              "reference": "Device/b678ef1f-0961-4d37-8699-89b35179bcf3"
            }
          }
        ],
        "reason": [
          {
            "text": "Interoperability Testing and Training (non-clinical use)"
          }
        ],
        "text": {
          "status": "generated",
          "div": "<div xmlns=\"http://www.w3.org/1999/xhtml\">Provenance for SYNDERAI Synthetic Example Data Resource</div>"
        },
        "recorded": "2016-01-21T19:51:27Z"
      }
    },
    {
      "fullUrl": "urn:uuid:f48d9e18-b0fb-4970-8612-0d99f3577695",
      "resource": {
        "resourceType": "PractitionerRole",
        "id": "f48d9e18-b0fb-4970-8612-0d99f3577695",
        "meta": {
          "profile": [
            "http://hl7.eu/fhir/base/StructureDefinition/practitionerRole-eu"
          ]
        },
        "text": {
          "status": "generated",
          "div": "<div xmlns=\"http://www.w3.org/1999/xhtml\">Laboratory Role Id: f48d9e18-b0fb-4970-8612-0d99f3577695</div>"
        },
        "practitioner": {
          "reference": "urn:uuid:f2f09577-2ecd-4634-9723-b2223d9a598a"
        }
      }
    },
    {
      "fullUrl": "urn:uuid:f2f09577-2ecd-4634-9723-b2223d9a598a",
      "resource": {
        "resourceType": "Practitioner",
        "id": "f2f09577-2ecd-4634-9723-b2223d9a598a",
        "meta": {
          "profile": [
            "http://hl7.eu/fhir/base/StructureDefinition/practitioner-eu"
          ]
        },
        "identifier": [
          {
            "assigner": {
              "display": "HL7 Europe"
            },
            "system": "urn:oid:2.16.840.1.113883.2.51.999",
            "value": "a3892a6c-564e-4a5c-b994-ba11cc329d8b"
          }
        ],
        "name": [
          {
            "prefix": [
              "dr"
            ],
            "given": [
              "Ex"
            ],
            "family": "Ample"
          }
        ],
        "address": [
          {
            "line": [
              "Laboratoire Central Européenne",
              "Boulevard du Jardin Botanique 32"
            ],
            "postalCode": "1000",
            "city": "Brussels",
            "country": "Belgium"
          }
        ],
        "text": {
          "status": "generated",
          "div": "<div xmlns=\"http://www.w3.org/1999/xhtml\">Laboratory: Laboratoire Central Européenne, 1000 Brussels, Belgium</div>"
        }
      }
    }
  ],
  "type": "document",
  "timestamp": "2016-01-21T19:51:27Z"
}
