{
  "resourceType": "Bundle",
  "id": "3135fd62-afa1-44f0-9330-db8e2dbedb08",
  "meta": {
    "profile": [
      "http://hl7.eu/fhir/laboratory/StructureDefinition/Bundle-eu-lab"
    ]
  },
  "identifier": {
    "assigner": {
      "display": "HL7 Europe"
    },
    "system": "urn:oid:2.16.840.1.113883.2.51.999",
    "value": "e5697b05-fa11-455a-9fb5-ea1c43de91f0"
  },
  "entry": [
    {
      "fullUrl": "urn:uuid:b048b11c-334d-4d13-a1da-46877816b406",
      "resource": {
        "resourceType": "Composition",
        "id": "b048b11c-334d-4d13-a1da-46877816b406",
        "meta": {
          "profile": [
            "http://hl7.eu/fhir/laboratory/StructureDefinition/Composition-eu-lab"
          ]
        },
        "identifier": {
          "assigner": {
            "display": "HL7 Europe"
          },
          "system": "urn:oid:2.16.840.1.113883.2.51.999",
          "value": "01b653b4-3b7d-4742-9d79-8bd659bd7dbb"
        },
        "author": [
          {
            "reference": "urn:uuid:6f0dc7cb-2091-4fe7-aba4-32aa2045f2bb"
          }
        ],
        "category": [
          {
            "coding": [
              {
                "code": "26436-6",
                "system": "http://loinc.org",
                "display": "Laboratory studies (set)"
              }
            ]
          }
        ],
        "type": {
          "coding": [
            {
              "code": "11502-2",
              "system": "http://loinc.org",
              "display": "Laboratory report"
            }
          ],
          "text": "Laboratory Report"
        },
        "section": [
          {
            "code": {
              "coding": [
                {
                  "code": "26436-6",
                  "system": "http://loinc.org",
                  "display": "Laboratory studies (set)"
                }
              ],
              "text": "Laboratory studies"
            },
            "section": [
              {
                "code": {
                  "coding": [
                    {
                      "code": "$18723-7",
                      "system": "http://loinc.org",
                      "display": "Hematology studies (set)"
                    }
                  ],
                  "text": "Hematology"
                },
                "entry": [
                  {
                    "reference": "urn:uuid:f2c0a697-a20f-4df8-a968-055f35388b6c"
                  },
                  {
                    "reference": "urn:uuid:a01ca103-2fe8-4544-869c-a8c151db7c83"
                  },
                  {
                    "reference": "urn:uuid:1f43fd75-7b15-4d7a-96f9-134659756ee3"
                  },
                  {
                    "reference": "urn:uuid:c1da2f6e-4aef-48df-99a0-d0a922707a2f"
                  },
                  {
                    "reference": "urn:uuid:15c1b91f-a134-492f-bb0d-3c92dae9747b"
                  },
                  {
                    "reference": "urn:uuid:8e8425bf-6955-40a6-9a77-4426a8b3240b"
                  },
                  {
                    "reference": "urn:uuid:3892b3d1-e824-438b-9827-e81d0af4423c"
                  },
                  {
                    "reference": "urn:uuid:df649e9c-fab4-41b9-a84b-02c70a6d8e6b"
                  },
                  {
                    "reference": "urn:uuid:193905c1-8de0-4e1a-ab67-b71628c0eeba"
                  },
                  {
                    "reference": "urn:uuid:38c733d4-dfda-457c-8652-171be3788958"
                  },
                  {
                    "reference": "urn:uuid:a5e694f8-a1ac-4d02-bd74-8af4fbcc6f9c"
                  }
                ],
                "text": {
                  "status": "generated",
                  "div": "<div xmlns=\"http://www.w3.org/1999/xhtml\"><h3>Hematology</h3><table class=\"hl7__eu__lab__report\"><thead><tr><th>Test</th><th>05-DEC-2021</th><th>Reference&#xA0;Range</th><th>Unit</th></tr></thead><tbody><tr><td>Leukocytes [#/volume] in Blood by Automated count</td><td>6.7</td><td>4.5 - 10.5</td><td>10*3/uL</td></tr><tr><td>Erythrocytes [#/volume] in Blood by Automated count</td><td>5.5</td><td>4.5 - 6.2</td><td>10*6/uL</td></tr><tr><td>Hemoglobin [Mass/volume] in Blood</td><td>16.5</td><td>13.5 - 17.5</td><td>g/dL</td></tr><tr><td>Hematocrit [Volume Fraction] of Blood by Automated count</td><td><strong>36.7 L</strong></td><td>38 - 50</td><td>%</td></tr><tr><td>MCV [Entitic volume] by Automated count</td><td>81.2</td><td>76 - 98</td><td>fL</td></tr><tr><td>MCH [Entitic mass] by Automated count</td><td>32.6</td><td>27 - 34.5</td><td>pg</td></tr><tr><td>MCHC [Mass/volume] by Automated count</td><td>35.1</td><td>31 - 37</td><td>g/dL</td></tr><tr><td>Erythrocyte distribution width [Entitic volume] by Automated count</td><td>44.2</td><td>36 - 55</td><td>fL</td></tr><tr><td>Platelets [#/volume] in Blood by Automated count</td><td><strong>351.9 H</strong></td><td>150 - 350</td><td>10*3/uL</td></tr><tr><td>Platelet distribution width [Entitic volume] in Blood by Automated count</td><td><strong>286.6 H</strong></td><td>13.4 - 17.4</td><td>fL</td></tr><tr><td>Platelet mean volume [Entitic volume] in Blood by Automated count</td><td>11.4</td><td>9.4 - 12</td><td>fL</td></tr></tbody></table></div>"
                },
                "title": "Hematology"
              }
            ],
            "title": "Laboratory Report"
          },
          {
            "text": {
              "status": "generated",
              "div": "<div xmlns=\"http://www.w3.org/1999/xhtml\"><h3>Annotation</h3><table class=\"hl7__eu__lab__report\"><tr><th>Conclusion and Recommendations based on this report and previous findings known to us</th></tr><tr><td>The results show a mildly decreased hematocrit, slightly elevated platelet count, and markedly increased platelet distribution width, while other parameters are within normal limits. These findings may suggest mild hemodilution or early reactive thrombocytosis, but there is no evidence of anemia or leukocytosis. Correlation with clinical context and follow-up may be considered if symptoms or risk factors are present.</td></tr></table></div>"
            },
            "code": {
              "coding": [
                {
                  "system": "http://loinc.org",
                  "code": "48767-8",
                  "display": "Annotation comment"
                }
              ]
            },
            "title": "Annotation comment"
          }
        ],
        "status": "final",
        "subject": {
          "reference": "urn:uuid:2172c67b-9bc5-43d6-822a-9d70505ae342",
          "display": "Amadeo Andreozzi"
        },
        "date": "2021-12-05T19:42:51Z",
        "title": "Laboratory Report",
        "confidentiality": "N"
      }
    },
    {
      "fullUrl": "urn:uuid:dd145454-96b7-4433-b2d5-5985e82aafbc",
      "resource": {
        "resourceType": "DiagnosticReport",
        "id": "dd145454-96b7-4433-b2d5-5985e82aafbc",
        "meta": {
          "profile": [
            "http://hl7.eu/fhir/laboratory/StructureDefinition/DiagnosticReport-eu-lab"
          ]
        },
        "identifier": [
          {
            "assigner": {
              "display": "HL7 Europe"
            },
            "system": "urn:oid:2.16.840.1.113883.2.51.999",
            "value": "2d5eeaca-1303-471a-8aad-65c21dba1836"
          }
        ],
        "extension": [
          {
            "url": "http://hl7.org/fhir/5.0/StructureDefinition/extension-DiagnosticReport.composition",
            "valueReference": {
              "reference": "urn:uuid:01b653b4-3b7d-4742-9d79-8bd659bd7dbb"
            }
          }
        ],
        "category": [
          {
            "coding": [
              {
                "code": "26436-6",
                "system": "http://loinc.org",
                "display": "Laboratory studies (set)"
              }
            ]
          }
        ],
        "specimen": [
          {
            "reference": "urn:uuid:9f24cfa9-2ee5-43f4-95e4-20305980b116"
          },
          {
            "reference": "urn:uuid:9f24cfa9-2ee5-43f4-95e4-20305980b116"
          }
        ],
        "result": [
          {
            "reference": "urn:uuid:f2c0a697-a20f-4df8-a968-055f35388b6c"
          },
          {
            "reference": "urn:uuid:a01ca103-2fe8-4544-869c-a8c151db7c83"
          },
          {
            "reference": "urn:uuid:1f43fd75-7b15-4d7a-96f9-134659756ee3"
          },
          {
            "reference": "urn:uuid:c1da2f6e-4aef-48df-99a0-d0a922707a2f"
          },
          {
            "reference": "urn:uuid:15c1b91f-a134-492f-bb0d-3c92dae9747b"
          },
          {
            "reference": "urn:uuid:8e8425bf-6955-40a6-9a77-4426a8b3240b"
          },
          {
            "reference": "urn:uuid:3892b3d1-e824-438b-9827-e81d0af4423c"
          },
          {
            "reference": "urn:uuid:df649e9c-fab4-41b9-a84b-02c70a6d8e6b"
          },
          {
            "reference": "urn:uuid:193905c1-8de0-4e1a-ab67-b71628c0eeba"
          },
          {
            "reference": "urn:uuid:38c733d4-dfda-457c-8652-171be3788958"
          },
          {
            "reference": "urn:uuid:a5e694f8-a1ac-4d02-bd74-8af4fbcc6f9c"
          }
        ],
        "status": "registered",
        "code": {
          "coding": [
            {
              "code": "11502-2",
              "system": "http://loinc.org",
              "display": "Laboratory report"
            }
          ]
        },
        "subject": {
          "reference": "urn:uuid:2172c67b-9bc5-43d6-822a-9d70505ae342",
          "display": "Amadeo Andreozzi"
        }
      }
    },
    {
      "fullUrl": "urn:uuid:2172c67b-9bc5-43d6-822a-9d70505ae342",
      "resource": {
        "resourceType": "Patient",
        "id": "2172c67b-9bc5-43d6-822a-9d70505ae342",
        "meta": {
          "security": [
            {
              "system": "http://terminology.hl7.org/CodeSystem/v3-ActReason",
              "code": "HTEST"
            },
            {
              "system": "http://terminology.hl7.org/CodeSystem/v3-ActReason",
              "code": "TRAIN"
            }
          ],
          "tag": [
            {
              "system": "https://synderai.net/fhir/CodeSystem/tags",
              "code": "synthetic",
              "display": "SYNDERAI Synthetic data"
            }
          ],
          "profile": [
            "http://hl7.eu/fhir/base/StructureDefinition/patient-eu-core"
          ]
        },
        "identifier": [
          {
            "type": {
              "coding": [
                {
                  "code": "PT",
                  "system": "http://terminology.hl7.org/CodeSystem/v2-0203"
                }
              ]
            },
            "system": "http://ec.europa.eu/identifier/eci",
            "value": "9798-276056-9"
          },
          {
            "type": {
              "coding": [
                {
                  "code": "MR",
                  "system": "http://terminology.hl7.org/CodeSystem/v2-0203"
                }
              ]
            },
            "system": "http://local.setting.eu/identifier",
            "value": "67df392d-f7bc-1bdd-7268-bc75454231cd"
          }
        ],
        "name": [
          {
            "family": "Andreozzi"
          },
          {
            "given": [
              "Amadeo"
            ]
          },
          {
            "text": "Amadeo Andreozzi"
          }
        ],
        "address": [
          {
            "line": [
              "Canale Riccardo, 887 Appartamento 1"
            ],
            "use": "home",
            "type": "physical",
            "postalCode": "23887",
            "city": "Valle San Nicolao",
            "country": "Italy"
          }
        ],
        "telecom": [
          {
            "system": "phone",
            "value": "+39 08231278688"
          }
        ],
        "extension": [
          {
            "url": "http://hl7.org/fhir/StructureDefinition/patient-nationality",
            "valueCodeableConcept": {
              "coding": [
                {
                  "code": "IT",
                  "system": "http://hl7.org/fhir/ValueSet/country"
                }
              ]
            }
          }
        ],
        "text": {
          "status": "generated",
          "div": "<div xmlns=\"http://www.w3.org/1999/xhtml\"><table class=\"hl7__ips\"><tr><td>Amadeo Andreozzi</td><td>male</td><td>09-Apr-2007</td></tr></table></div>"
        },
        "gender": "male",
        "birthDate": "2007-04-09"
      }
    },
    {
      "fullUrl": "urn:uuid:42cb7c37-8b54-4e75-85e6-ce08c58d7c5d",
      "resource": {
        "resourceType": "ServiceRequest",
        "id": "42cb7c37-8b54-4e75-85e6-ce08c58d7c5d",
        "meta": {
          "profile": [
            "http://hl7.eu/fhir/laboratory/StructureDefinition/ServiceRequest-eu-lab"
          ]
        },
        "identifier": [
          {
            "system": "http://example.org",
            "value": "53656736-7686-4bbe-badc-1da942967d54"
          }
        ],
        "specimen": [
          {
            "reference": "urn:uuid:9f24cfa9-2ee5-43f4-95e4-20305980b116"
          }
        ],
        "status": "active",
        "intent": "order",
        "code": {
          "coding": [
            {
              "code": "108252007",
              "system": "http://snomed.info/sct",
              "display": "Laboratory procedure"
            }
          ]
        },
        "subject": {
          "reference": "urn:uuid:2172c67b-9bc5-43d6-822a-9d70505ae342",
          "display": "Amadeo Andreozzi"
        },
        "requester": {
          "reference": "urn:uuid:58e7fda7-5d8c-42e0-b75a-1b1a10157ea8"
        }
      }
    },
    {
      "fullUrl": "urn:uuid:58e7fda7-5d8c-42e0-b75a-1b1a10157ea8",
      "resource": {
        "resourceType": "PractitionerRole",
        "id": "58e7fda7-5d8c-42e0-b75a-1b1a10157ea8",
        "meta": {
          "profile": [
            "http://hl7.eu/fhir/base/StructureDefinition/practitionerRole-eu"
          ]
        },
        "text": {
          "status": "generated",
          "div": "<div xmlns=\"http://www.w3.org/1999/xhtml\">Provider Role Id: 58e7fda7-5d8c-42e0-b75a-1b1a10157ea8</div>"
        },
        "organization": {
          "reference": "urn:uuid:a1621b6a-1dbc-4d43-a623-c1e9d6bd0a45"
        }
      }
    },
    {
      "fullUrl": "urn:uuid:a1621b6a-1dbc-4d43-a623-c1e9d6bd0a45",
      "resource": {
        "resourceType": "Organization",
        "id": "a1621b6a-1dbc-4d43-a623-c1e9d6bd0a45",
        "meta": {
          "profile": [
            "http://hl7.eu/fhir/base/StructureDefinition/organization-eu"
          ]
        },
        "identifier": [
          {
            "assigner": {
              "display": "HL7 Europe"
            },
            "system": "urn:oid:2.16.840.1.113883.2.51.999",
            "value": "4fdac2ce-c546-4bef-98ae-771635306b7c"
          }
        ],
        "address": [
          {
            "line": [
              "Largo Beato Leopoldo Mandic 1"
            ],
            "city": "Merate",
            "postalCode": "23807",
            "country": "Italy"
          }
        ],
        "text": {
          "status": "generated",
          "div": "<div xmlns=\"http://www.w3.org/1999/xhtml\">Provider Organization: Ospedale San Leopoldo Mandic</div>"
        },
        "name": "Ospedale San Leopoldo Mandic"
      }
    },
    {
      "fullUrl": "urn:uuid:9f24cfa9-2ee5-43f4-95e4-20305980b116",
      "resource": {
        "resourceType": "Specimen",
        "id": "9f24cfa9-2ee5-43f4-95e4-20305980b116",
        "meta": {
          "profile": [
            "http://hl7.eu/fhir/laboratory/StructureDefinition/Specimen-eu-lab"
          ]
        },
        "collection": {
          "collectedDateTime": "2021-12-05"
        },
        "text": {
          "status": "generated",
          "div": "<div xmlns=\"http://www.w3.org/1999/xhtml\"><table class=\"hl7__eu__lab__report\"><tr><th>Specimen</th><th>Collection Date</th></tr><tr><td>Whole blood specimen (specimen)</td><td><span class=\"nb\">05-Dec-2021</span></td></tr></table></div>"
        },
        "type": {
          "coding": [
            {
              "code": "258580003",
              "system": "http://snomed.info/sct",
              "display": "Whole blood specimen (specimen)"
            }
          ]
        }
      }
    },
    {
      "fullUrl": "urn:uuid:9f24cfa9-2ee5-43f4-95e4-20305980b116",
      "resource": {
        "resourceType": "Specimen",
        "id": "9f24cfa9-2ee5-43f4-95e4-20305980b116",
        "meta": {
          "profile": [
            "http://hl7.eu/fhir/laboratory/StructureDefinition/Specimen-eu-lab"
          ]
        },
        "collection": {
          "collectedDateTime": "2021-12-05"
        },
        "text": {
          "status": "generated",
          "div": "<div xmlns=\"http://www.w3.org/1999/xhtml\"><table class=\"hl7__eu__lab__report\"><tr><th>Specimen</th><th>Collection Date</th></tr><tr><td>Whole blood specimen (specimen)</td><td><span class=\"nb\">05-Dec-2021</span></td></tr></table></div>"
        },
        "type": {
          "coding": [
            {
              "code": "258580003",
              "system": "http://snomed.info/sct",
              "display": "Whole blood specimen (specimen)"
            }
          ]
        }
      }
    },
    {
      "fullUrl": "urn:uuid:f2c0a697-a20f-4df8-a968-055f35388b6c",
      "resource": {
        "resourceType": "Observation",
        "id": "f2c0a697-a20f-4df8-a968-055f35388b6c",
        "meta": {
          "profile": [
            "http://hl7.eu/fhir/laboratory/StructureDefinition/Observation-resultslab-eu-lab"
          ]
        },
        "performer": [
          {
            "display": "The Central European Lab"
          }
        ],
        "category": [
          {
            "coding": [
              {
                "system": "http://terminology.hl7.org/CodeSystem/observation-category",
                "code": "laboratory"
              }
            ]
          }
        ],
        "code": {
          "coding": [
            {
              "code": "6690-2",
              "system": "http://loinc.org",
              "display": "Leukocytes [#/volume] in Blood by Automated count"
            }
          ],
          "text": "Leukocytes [#/volume] in Blood by Automated count"
        },
        "valueQuantity": {
          "system": "http://unitsofmeasure.org",
          "value": 6.7,
          "unit": "10*3/uL",
          "code": "10*3/uL"
        },
        "referenceRange": [
          {
            "low": {
              "value": 4.5,
              "code": "10*3/uL",
              "system": "http://unitsofmeasure.org"
            }
          },
          {
            "high": {
              "value": 10.5,
              "code": "10*3/uL",
              "system": "http://unitsofmeasure.org"
            }
          }
        ],
        "text": {
          "status": "generated",
          "div": "<div xmlns=\"http://www.w3.org/1999/xhtml\"><table class=\"hl7__eu__lab__report\"><tr><th>Test</th><th>05-Dec-2021</th><th>Reference&#xA0;Range</th><th>Unit</th></tr><tr><td>Leukocytes [#/volume] in Blood by Automated count</td><td>6.7</td><td>4.5 - 10.5</td><td></td><td>10*3/uL</td></tr></table></div>"
        },
        "status": "final",
        "subject": {
          "reference": "urn:uuid:2172c67b-9bc5-43d6-822a-9d70505ae342",
          "display": "Amadeo Andreozzi"
        },
        "effectiveDateTime": "2021-12-05T18:42:51Z",
        "specimen": {
          "reference": "urn:uuid:9f24cfa9-2ee5-43f4-95e4-20305980b116"
        }
      }
    },
    {
      "fullUrl": "urn:uuid:a01ca103-2fe8-4544-869c-a8c151db7c83",
      "resource": {
        "resourceType": "Observation",
        "id": "a01ca103-2fe8-4544-869c-a8c151db7c83",
        "meta": {
          "profile": [
            "http://hl7.eu/fhir/laboratory/StructureDefinition/Observation-resultslab-eu-lab"
          ]
        },
        "performer": [
          {
            "display": "The Central European Lab"
          }
        ],
        "category": [
          {
            "coding": [
              {
                "system": "http://terminology.hl7.org/CodeSystem/observation-category",
                "code": "laboratory"
              }
            ]
          }
        ],
        "code": {
          "coding": [
            {
              "code": "789-8",
              "system": "http://loinc.org",
              "display": "Erythrocytes [#/volume] in Blood by Automated count"
            }
          ],
          "text": "Erythrocytes [#/volume] in Blood by Automated count"
        },
        "valueQuantity": {
          "system": "http://unitsofmeasure.org",
          "value": 5.5,
          "unit": "10*6/uL",
          "code": "10*6/uL"
        },
        "referenceRange": [
          {
            "low": {
              "value": 4.5,
              "code": "10*6/uL",
              "system": "http://unitsofmeasure.org"
            }
          },
          {
            "high": {
              "value": 6.2,
              "code": "10*6/uL",
              "system": "http://unitsofmeasure.org"
            }
          }
        ],
        "text": {
          "status": "generated",
          "div": "<div xmlns=\"http://www.w3.org/1999/xhtml\"><table class=\"hl7__eu__lab__report\"><tr><th>Test</th><th>05-Dec-2021</th><th>Reference&#xA0;Range</th><th>Unit</th></tr><tr><td>Erythrocytes [#/volume] in Blood by Automated count</td><td>5.5</td><td>4.5 - 6.2</td><td></td><td>10*6/uL</td></tr></table></div>"
        },
        "status": "final",
        "subject": {
          "reference": "urn:uuid:2172c67b-9bc5-43d6-822a-9d70505ae342",
          "display": "Amadeo Andreozzi"
        },
        "effectiveDateTime": "2021-12-05T18:42:51Z",
        "specimen": {
          "reference": "urn:uuid:9f24cfa9-2ee5-43f4-95e4-20305980b116"
        }
      }
    },
    {
      "fullUrl": "urn:uuid:1f43fd75-7b15-4d7a-96f9-134659756ee3",
      "resource": {
        "resourceType": "Observation",
        "id": "1f43fd75-7b15-4d7a-96f9-134659756ee3",
        "meta": {
          "profile": [
            "http://hl7.eu/fhir/laboratory/StructureDefinition/Observation-resultslab-eu-lab"
          ]
        },
        "performer": [
          {
            "display": "The Central European Lab"
          }
        ],
        "category": [
          {
            "coding": [
              {
                "system": "http://terminology.hl7.org/CodeSystem/observation-category",
                "code": "laboratory"
              }
            ]
          }
        ],
        "code": {
          "coding": [
            {
              "code": "718-7",
              "system": "http://loinc.org",
              "display": "Hemoglobin [Mass/volume] in Blood"
            }
          ],
          "text": "Hemoglobin [Mass/volume] in Blood"
        },
        "valueQuantity": {
          "system": "http://unitsofmeasure.org",
          "value": 16.5,
          "unit": "g/dL",
          "code": "g/dL"
        },
        "referenceRange": [
          {
            "low": {
              "value": 13.5,
              "code": "g/dL",
              "system": "http://unitsofmeasure.org"
            }
          },
          {
            "high": {
              "value": 17.5,
              "code": "g/dL",
              "system": "http://unitsofmeasure.org"
            }
          }
        ],
        "text": {
          "status": "generated",
          "div": "<div xmlns=\"http://www.w3.org/1999/xhtml\"><table class=\"hl7__eu__lab__report\"><tr><th>Test</th><th>05-Dec-2021</th><th>Reference&#xA0;Range</th><th>Unit</th></tr><tr><td>Hemoglobin [Mass/volume] in Blood</td><td>16.5</td><td>13.5 - 17.5</td><td></td><td>g/dL</td></tr></table></div>"
        },
        "status": "final",
        "subject": {
          "reference": "urn:uuid:2172c67b-9bc5-43d6-822a-9d70505ae342",
          "display": "Amadeo Andreozzi"
        },
        "effectiveDateTime": "2021-12-05T18:42:51Z",
        "specimen": {
          "reference": "urn:uuid:9f24cfa9-2ee5-43f4-95e4-20305980b116"
        }
      }
    },
    {
      "fullUrl": "urn:uuid:c1da2f6e-4aef-48df-99a0-d0a922707a2f",
      "resource": {
        "resourceType": "Observation",
        "id": "c1da2f6e-4aef-48df-99a0-d0a922707a2f",
        "meta": {
          "profile": [
            "http://hl7.eu/fhir/laboratory/StructureDefinition/Observation-resultslab-eu-lab"
          ]
        },
        "performer": [
          {
            "display": "The Central European Lab"
          }
        ],
        "category": [
          {
            "coding": [
              {
                "system": "http://terminology.hl7.org/CodeSystem/observation-category",
                "code": "laboratory"
              }
            ]
          }
        ],
        "code": {
          "coding": [
            {
              "code": "4544-3",
              "system": "http://loinc.org",
              "display": "Hematocrit [Volume Fraction] of Blood by Automated count"
            }
          ],
          "text": "Hematocrit [Volume Fraction] of Blood by Automated count"
        },
        "valueQuantity": {
          "system": "http://unitsofmeasure.org",
          "value": 36.7,
          "unit": "%",
          "code": "%"
        },
        "referenceRange": [
          {
            "low": {
              "value": 38,
              "code": "%",
              "system": "http://unitsofmeasure.org"
            }
          },
          {
            "high": {
              "value": 50,
              "code": "%",
              "system": "http://unitsofmeasure.org"
            }
          }
        ],
        "interpretation": [
          {
            "coding": [
              {
                "code": "L",
                "system": "http://terminology.hl7.org/CodeSystem/v3-ObservationInterpretation",
                "display": "Low"
              }
            ]
          }
        ],
        "text": {
          "status": "generated",
          "div": "<div xmlns=\"http://www.w3.org/1999/xhtml\"><table class=\"hl7__eu__lab__report\"><tr><th>Test</th><th>05-Dec-2021</th><th>Reference&#xA0;Range</th><th>Unit</th></tr><tr><td>Hematocrit [Volume Fraction] of Blood by Automated count</td><td>36.7</td><td>38 - 50</td><td>L</td><td>%</td></tr></table></div>"
        },
        "status": "final",
        "subject": {
          "reference": "urn:uuid:2172c67b-9bc5-43d6-822a-9d70505ae342",
          "display": "Amadeo Andreozzi"
        },
        "effectiveDateTime": "2021-12-05T18:42:51Z",
        "specimen": {
          "reference": "urn:uuid:9f24cfa9-2ee5-43f4-95e4-20305980b116"
        }
      }
    },
    {
      "fullUrl": "urn:uuid:15c1b91f-a134-492f-bb0d-3c92dae9747b",
      "resource": {
        "resourceType": "Observation",
        "id": "15c1b91f-a134-492f-bb0d-3c92dae9747b",
        "meta": {
          "profile": [
            "http://hl7.eu/fhir/laboratory/StructureDefinition/Observation-resultslab-eu-lab"
          ]
        },
        "performer": [
          {
            "display": "The Central European Lab"
          }
        ],
        "category": [
          {
            "coding": [
              {
                "system": "http://terminology.hl7.org/CodeSystem/observation-category",
                "code": "laboratory"
              }
            ]
          }
        ],
        "code": {
          "coding": [
            {
              "code": "787-2",
              "system": "http://loinc.org",
              "display": "MCV [Entitic volume] by Automated count"
            }
          ],
          "text": "MCV [Entitic volume] by Automated count"
        },
        "valueQuantity": {
          "system": "http://unitsofmeasure.org",
          "value": 81.2,
          "unit": "fL",
          "code": "fL"
        },
        "referenceRange": [
          {
            "low": {
              "value": 76,
              "code": "fL",
              "system": "http://unitsofmeasure.org"
            }
          },
          {
            "high": {
              "value": 98,
              "code": "fL",
              "system": "http://unitsofmeasure.org"
            }
          }
        ],
        "text": {
          "status": "generated",
          "div": "<div xmlns=\"http://www.w3.org/1999/xhtml\"><table class=\"hl7__eu__lab__report\"><tr><th>Test</th><th>05-Dec-2021</th><th>Reference&#xA0;Range</th><th>Unit</th></tr><tr><td>MCV [Entitic volume] by Automated count</td><td>81.2</td><td>76 - 98</td><td></td><td>fL</td></tr></table></div>"
        },
        "status": "final",
        "subject": {
          "reference": "urn:uuid:2172c67b-9bc5-43d6-822a-9d70505ae342",
          "display": "Amadeo Andreozzi"
        },
        "effectiveDateTime": "2021-12-05T18:42:51Z",
        "specimen": {
          "reference": "urn:uuid:9f24cfa9-2ee5-43f4-95e4-20305980b116"
        }
      }
    },
    {
      "fullUrl": "urn:uuid:8e8425bf-6955-40a6-9a77-4426a8b3240b",
      "resource": {
        "resourceType": "Observation",
        "id": "8e8425bf-6955-40a6-9a77-4426a8b3240b",
        "meta": {
          "profile": [
            "http://hl7.eu/fhir/laboratory/StructureDefinition/Observation-resultslab-eu-lab"
          ]
        },
        "performer": [
          {
            "display": "The Central European Lab"
          }
        ],
        "category": [
          {
            "coding": [
              {
                "system": "http://terminology.hl7.org/CodeSystem/observation-category",
                "code": "laboratory"
              }
            ]
          }
        ],
        "code": {
          "coding": [
            {
              "code": "785-6",
              "system": "http://loinc.org",
              "display": "MCH [Entitic mass] by Automated count"
            }
          ],
          "text": "MCH [Entitic mass] by Automated count"
        },
        "valueQuantity": {
          "system": "http://unitsofmeasure.org",
          "value": 32.6,
          "unit": "pg",
          "code": "pg"
        },
        "referenceRange": [
          {
            "low": {
              "value": 27,
              "code": "pg",
              "system": "http://unitsofmeasure.org"
            }
          },
          {
            "high": {
              "value": 34.5,
              "code": "pg",
              "system": "http://unitsofmeasure.org"
            }
          }
        ],
        "text": {
          "status": "generated",
          "div": "<div xmlns=\"http://www.w3.org/1999/xhtml\"><table class=\"hl7__eu__lab__report\"><tr><th>Test</th><th>05-Dec-2021</th><th>Reference&#xA0;Range</th><th>Unit</th></tr><tr><td>MCH [Entitic mass] by Automated count</td><td>32.6</td><td>27 - 34.5</td><td></td><td>pg</td></tr></table></div>"
        },
        "status": "final",
        "subject": {
          "reference": "urn:uuid:2172c67b-9bc5-43d6-822a-9d70505ae342",
          "display": "Amadeo Andreozzi"
        },
        "effectiveDateTime": "2021-12-05T18:42:51Z",
        "specimen": {
          "reference": "urn:uuid:9f24cfa9-2ee5-43f4-95e4-20305980b116"
        }
      }
    },
    {
      "fullUrl": "urn:uuid:3892b3d1-e824-438b-9827-e81d0af4423c",
      "resource": {
        "resourceType": "Observation",
        "id": "3892b3d1-e824-438b-9827-e81d0af4423c",
        "meta": {
          "profile": [
            "http://hl7.eu/fhir/laboratory/StructureDefinition/Observation-resultslab-eu-lab"
          ]
        },
        "performer": [
          {
            "display": "The Central European Lab"
          }
        ],
        "category": [
          {
            "coding": [
              {
                "system": "http://terminology.hl7.org/CodeSystem/observation-category",
                "code": "laboratory"
              }
            ]
          }
        ],
        "code": {
          "coding": [
            {
              "code": "786-4",
              "system": "http://loinc.org",
              "display": "MCHC [Mass/volume] by Automated count"
            }
          ],
          "text": "MCHC [Mass/volume] by Automated count"
        },
        "valueQuantity": {
          "system": "http://unitsofmeasure.org",
          "value": 35.1,
          "unit": "g/dL",
          "code": "g/dL"
        },
        "referenceRange": [
          {
            "low": {
              "value": 31,
              "code": "g/dL",
              "system": "http://unitsofmeasure.org"
            }
          },
          {
            "high": {
              "value": 37,
              "code": "g/dL",
              "system": "http://unitsofmeasure.org"
            }
          }
        ],
        "text": {
          "status": "generated",
          "div": "<div xmlns=\"http://www.w3.org/1999/xhtml\"><table class=\"hl7__eu__lab__report\"><tr><th>Test</th><th>05-Dec-2021</th><th>Reference&#xA0;Range</th><th>Unit</th></tr><tr><td>MCHC [Mass/volume] by Automated count</td><td>35.1</td><td>31 - 37</td><td></td><td>g/dL</td></tr></table></div>"
        },
        "status": "final",
        "subject": {
          "reference": "urn:uuid:2172c67b-9bc5-43d6-822a-9d70505ae342",
          "display": "Amadeo Andreozzi"
        },
        "effectiveDateTime": "2021-12-05T18:42:51Z",
        "specimen": {
          "reference": "urn:uuid:9f24cfa9-2ee5-43f4-95e4-20305980b116"
        }
      }
    },
    {
      "fullUrl": "urn:uuid:df649e9c-fab4-41b9-a84b-02c70a6d8e6b",
      "resource": {
        "resourceType": "Observation",
        "id": "df649e9c-fab4-41b9-a84b-02c70a6d8e6b",
        "meta": {
          "profile": [
            "http://hl7.eu/fhir/laboratory/StructureDefinition/Observation-resultslab-eu-lab"
          ]
        },
        "performer": [
          {
            "display": "The Central European Lab"
          }
        ],
        "category": [
          {
            "coding": [
              {
                "system": "http://terminology.hl7.org/CodeSystem/observation-category",
                "code": "laboratory"
              }
            ]
          }
        ],
        "code": {
          "coding": [
            {
              "code": "21000-5",
              "system": "http://loinc.org",
              "display": "Erythrocyte distribution width [Entitic volume] by Automated count"
            }
          ],
          "text": "Erythrocyte distribution width [Entitic volume] by Automated count"
        },
        "valueQuantity": {
          "system": "http://unitsofmeasure.org",
          "value": 44.2,
          "unit": "fL",
          "code": "fL"
        },
        "referenceRange": [
          {
            "low": {
              "value": 36,
              "code": "fL",
              "system": "http://unitsofmeasure.org"
            }
          },
          {
            "high": {
              "value": 55,
              "code": "fL",
              "system": "http://unitsofmeasure.org"
            }
          }
        ],
        "text": {
          "status": "generated",
          "div": "<div xmlns=\"http://www.w3.org/1999/xhtml\"><table class=\"hl7__eu__lab__report\"><tr><th>Test</th><th>05-Dec-2021</th><th>Reference&#xA0;Range</th><th>Unit</th></tr><tr><td>Erythrocyte distribution width [Entitic volume] by Automated count</td><td>44.2</td><td>36 - 55</td><td></td><td>fL</td></tr></table></div>"
        },
        "status": "final",
        "subject": {
          "reference": "urn:uuid:2172c67b-9bc5-43d6-822a-9d70505ae342",
          "display": "Amadeo Andreozzi"
        },
        "effectiveDateTime": "2021-12-05T18:42:51Z",
        "specimen": {
          "reference": "urn:uuid:9f24cfa9-2ee5-43f4-95e4-20305980b116"
        }
      }
    },
    {
      "fullUrl": "urn:uuid:193905c1-8de0-4e1a-ab67-b71628c0eeba",
      "resource": {
        "resourceType": "Observation",
        "id": "193905c1-8de0-4e1a-ab67-b71628c0eeba",
        "meta": {
          "profile": [
            "http://hl7.eu/fhir/laboratory/StructureDefinition/Observation-resultslab-eu-lab"
          ]
        },
        "performer": [
          {
            "display": "The Central European Lab"
          }
        ],
        "category": [
          {
            "coding": [
              {
                "system": "http://terminology.hl7.org/CodeSystem/observation-category",
                "code": "laboratory"
              }
            ]
          }
        ],
        "code": {
          "coding": [
            {
              "code": "777-3",
              "system": "http://loinc.org",
              "display": "Platelets [#/volume] in Blood by Automated count"
            }
          ],
          "text": "Platelets [#/volume] in Blood by Automated count"
        },
        "valueQuantity": {
          "system": "http://unitsofmeasure.org",
          "value": 351.9,
          "unit": "10*3/uL",
          "code": "10*3/uL"
        },
        "referenceRange": [
          {
            "low": {
              "value": 150,
              "code": "10*3/uL",
              "system": "http://unitsofmeasure.org"
            }
          },
          {
            "high": {
              "value": 350,
              "code": "10*3/uL",
              "system": "http://unitsofmeasure.org"
            }
          }
        ],
        "interpretation": [
          {
            "coding": [
              {
                "code": "H",
                "system": "http://terminology.hl7.org/CodeSystem/v3-ObservationInterpretation",
                "display": "High"
              }
            ]
          }
        ],
        "text": {
          "status": "generated",
          "div": "<div xmlns=\"http://www.w3.org/1999/xhtml\"><table class=\"hl7__eu__lab__report\"><tr><th>Test</th><th>05-Dec-2021</th><th>Reference&#xA0;Range</th><th>Unit</th></tr><tr><td>Platelets [#/volume] in Blood by Automated count</td><td>351.9</td><td>150 - 350</td><td>H</td><td>10*3/uL</td></tr></table></div>"
        },
        "status": "final",
        "subject": {
          "reference": "urn:uuid:2172c67b-9bc5-43d6-822a-9d70505ae342",
          "display": "Amadeo Andreozzi"
        },
        "effectiveDateTime": "2021-12-05T18:42:51Z",
        "specimen": {
          "reference": "urn:uuid:9f24cfa9-2ee5-43f4-95e4-20305980b116"
        }
      }
    },
    {
      "fullUrl": "urn:uuid:38c733d4-dfda-457c-8652-171be3788958",
      "resource": {
        "resourceType": "Observation",
        "id": "38c733d4-dfda-457c-8652-171be3788958",
        "meta": {
          "profile": [
            "http://hl7.eu/fhir/laboratory/StructureDefinition/Observation-resultslab-eu-lab"
          ]
        },
        "performer": [
          {
            "display": "The Central European Lab"
          }
        ],
        "category": [
          {
            "coding": [
              {
                "system": "http://terminology.hl7.org/CodeSystem/observation-category",
                "code": "laboratory"
              }
            ]
          }
        ],
        "code": {
          "coding": [
            {
              "code": "32207-3",
              "system": "http://loinc.org",
              "display": "Platelet distribution width [Entitic volume] in Blood by Automated count"
            }
          ],
          "text": "Platelet distribution width [Entitic volume] in Blood by Automated count"
        },
        "valueQuantity": {
          "system": "http://unitsofmeasure.org",
          "value": 286.6,
          "unit": "fL",
          "code": "fL"
        },
        "referenceRange": [
          {
            "low": {
              "value": 13.4,
              "code": "fL",
              "system": "http://unitsofmeasure.org"
            }
          },
          {
            "high": {
              "value": 17.4,
              "code": "fL",
              "system": "http://unitsofmeasure.org"
            }
          }
        ],
        "interpretation": [
          {
            "coding": [
              {
                "code": "H",
                "system": "http://terminology.hl7.org/CodeSystem/v3-ObservationInterpretation",
                "display": "High"
              }
            ]
          }
        ],
        "text": {
          "status": "generated",
          "div": "<div xmlns=\"http://www.w3.org/1999/xhtml\"><table class=\"hl7__eu__lab__report\"><tr><th>Test</th><th>05-Dec-2021</th><th>Reference&#xA0;Range</th><th>Unit</th></tr><tr><td>Platelet distribution width [Entitic volume] in Blood by Automated count</td><td>286.6</td><td>13.4 - 17.4</td><td>H</td><td>fL</td></tr></table></div>"
        },
        "status": "final",
        "subject": {
          "reference": "urn:uuid:2172c67b-9bc5-43d6-822a-9d70505ae342",
          "display": "Amadeo Andreozzi"
        },
        "effectiveDateTime": "2021-12-05T18:42:51Z",
        "specimen": {
          "reference": "urn:uuid:9f24cfa9-2ee5-43f4-95e4-20305980b116"
        }
      }
    },
    {
      "fullUrl": "urn:uuid:a5e694f8-a1ac-4d02-bd74-8af4fbcc6f9c",
      "resource": {
        "resourceType": "Observation",
        "id": "a5e694f8-a1ac-4d02-bd74-8af4fbcc6f9c",
        "meta": {
          "profile": [
            "http://hl7.eu/fhir/laboratory/StructureDefinition/Observation-resultslab-eu-lab"
          ]
        },
        "performer": [
          {
            "display": "The Central European Lab"
          }
        ],
        "category": [
          {
            "coding": [
              {
                "system": "http://terminology.hl7.org/CodeSystem/observation-category",
                "code": "laboratory"
              }
            ]
          }
        ],
        "code": {
          "coding": [
            {
              "code": "32623-1",
              "system": "http://loinc.org",
              "display": "Platelet mean volume [Entitic volume] in Blood by Automated count"
            }
          ],
          "text": "Platelet mean volume [Entitic volume] in Blood by Automated count"
        },
        "valueQuantity": {
          "system": "http://unitsofmeasure.org",
          "value": 11.4,
          "unit": "fL",
          "code": "fL"
        },
        "referenceRange": [
          {
            "low": {
              "value": 9.4,
              "code": "fL",
              "system": "http://unitsofmeasure.org"
            }
          },
          {
            "high": {
              "value": 12,
              "code": "fL",
              "system": "http://unitsofmeasure.org"
            }
          }
        ],
        "text": {
          "status": "generated",
          "div": "<div xmlns=\"http://www.w3.org/1999/xhtml\"><table class=\"hl7__eu__lab__report\"><tr><th>Test</th><th>05-Dec-2021</th><th>Reference&#xA0;Range</th><th>Unit</th></tr><tr><td>Platelet mean volume [Entitic volume] in Blood by Automated count</td><td>11.4</td><td>9.4 - 12</td><td></td><td>fL</td></tr></table></div>"
        },
        "status": "final",
        "subject": {
          "reference": "urn:uuid:2172c67b-9bc5-43d6-822a-9d70505ae342",
          "display": "Amadeo Andreozzi"
        },
        "effectiveDateTime": "2021-12-05T18:42:51Z",
        "specimen": {
          "reference": "urn:uuid:9f24cfa9-2ee5-43f4-95e4-20305980b116"
        }
      }
    },
    {
      "fullUrl": "urn:uuid:0885c121-41bc-4476-9af3-a836bbd759fb",
      "resource": {
        "resourceType": "Device",
        "id": "0885c121-41bc-4476-9af3-a836bbd759fb",
        "deviceName": [
          {
            "name": "SYNDERAI Synthetic Generator",
            "type": "manufacturer-name"
          }
        ],
        "version": [
          {
            "value": "5.0"
          }
        ],
        "text": {
          "status": "generated",
          "div": "<div xmlns=\"http://www.w3.org/1999/xhtml\">SYNDERAI Synthetic Generator v5.0</div>"
        },
        "status": "active\"",
        "distinctIdentifier": "synderai-generator-50",
        "manufacturer": "SYNDERAI Project"
      }
    },
    {
      "fullUrl": "urn:uuid:efb423ee-e82e-4064-aaf7-5641f1a9a42b",
      "resource": {
        "resourceType": "Provenance",
        "id": "efb423ee-e82e-4064-aaf7-5641f1a9a42b",
        "target": [
          {
            "reference": "Patient/2172c67b-9bc5-43d6-822a-9d70505ae342"
          },
          {
            "reference": "Bundle/3135fd62-afa1-44f0-9330-db8e2dbedb08"
          },
          {
            "reference": "Composition/b048b11c-334d-4d13-a1da-46877816b406"
          },
          {
            "reference": "PractitionerRole/6f0dc7cb-2091-4fe7-aba4-32aa2045f2bb"
          },
          {
            "reference": "Practitioner/81e0fde2-f025-49d7-9c42-0ee6748840b6"
          },
          {
            "reference": "PractitionerRole/58e7fda7-5d8c-42e0-b75a-1b1a10157ea8"
          },
          {
            "reference": "Organization/a1621b6a-1dbc-4d43-a623-c1e9d6bd0a45"
          }
        ],
        "activity": {
          "text": "Synthetic Example Data Generation"
        },
        "policy": [
          "https://synderai.net/synderai-synthetic-data-policy"
        ],
        "agent": [
          {
            "type": {
              "text": "author"
            },
            "who": {
              "reference": "Device/0885c121-41bc-4476-9af3-a836bbd759fb"
            }
          }
        ],
        "reason": [
          {
            "text": "Interoperability Testing and Training (non-clinical use)"
          }
        ],
        "text": {
          "status": "generated",
          "div": "<div xmlns=\"http://www.w3.org/1999/xhtml\">Provenance for SYNDERAI Synthetic Example Data Resource</div>"
        },
        "recorded": "2021-12-05T19:42:51Z"
      }
    },
    {
      "fullUrl": "urn:uuid:6f0dc7cb-2091-4fe7-aba4-32aa2045f2bb",
      "resource": {
        "resourceType": "PractitionerRole",
        "id": "6f0dc7cb-2091-4fe7-aba4-32aa2045f2bb",
        "meta": {
          "profile": [
            "http://hl7.eu/fhir/base/StructureDefinition/practitionerRole-eu"
          ]
        },
        "text": {
          "status": "generated",
          "div": "<div xmlns=\"http://www.w3.org/1999/xhtml\">Laboratory Role Id: 6f0dc7cb-2091-4fe7-aba4-32aa2045f2bb</div>"
        },
        "practitioner": {
          "reference": "urn:uuid:81e0fde2-f025-49d7-9c42-0ee6748840b6"
        }
      }
    },
    {
      "fullUrl": "urn:uuid:81e0fde2-f025-49d7-9c42-0ee6748840b6",
      "resource": {
        "resourceType": "Practitioner",
        "id": "81e0fde2-f025-49d7-9c42-0ee6748840b6",
        "meta": {
          "profile": [
            "http://hl7.eu/fhir/base/StructureDefinition/practitioner-eu"
          ]
        },
        "identifier": [
          {
            "assigner": {
              "display": "HL7 Europe"
            },
            "system": "urn:oid:2.16.840.1.113883.2.51.999",
            "value": "84541e15-cc3e-491f-af95-7e1d481451b9"
          }
        ],
        "name": [
          {
            "prefix": [
              "dr"
            ],
            "given": [
              "Ex"
            ],
            "family": "Ample"
          }
        ],
        "address": [
          {
            "line": [
              "Laboratoire Central Européenne",
              "Boulevard du Jardin Botanique 32"
            ],
            "postalCode": "1000",
            "city": "Brussels",
            "country": "Belgium"
          }
        ],
        "text": {
          "status": "generated",
          "div": "<div xmlns=\"http://www.w3.org/1999/xhtml\">Laboratory: Laboratoire Central Européenne, 1000 Brussels, Belgium</div>"
        }
      }
    }
  ],
  "type": "document",
  "timestamp": "2021-12-05T19:42:51Z"
}
