{
  "resourceType": "Bundle",
  "id": "6bd78350-5953-4b37-b1ea-e5459ca4c40a",
  "meta": {
    "profile": [
      "http://hl7.eu/fhir/laboratory/StructureDefinition/Bundle-eu-lab"
    ]
  },
  "identifier": {
    "assigner": {
      "display": "HL7 Europe"
    },
    "system": "urn:oid:2.16.840.1.113883.2.51.999",
    "value": "f713deb5-dfdc-44bb-881a-593ca842bfc5"
  },
  "entry": [
    {
      "fullUrl": "urn:uuid:9eb64644-f415-45c7-bdc4-3f0e0c027a93",
      "resource": {
        "resourceType": "Composition",
        "id": "9eb64644-f415-45c7-bdc4-3f0e0c027a93",
        "meta": {
          "profile": [
            "http://hl7.eu/fhir/laboratory/StructureDefinition/Composition-eu-lab"
          ]
        },
        "identifier": {
          "assigner": {
            "display": "HL7 Europe"
          },
          "system": "urn:oid:2.16.840.1.113883.2.51.999",
          "value": "1f804569-09c4-44b1-a5ab-fb4db2313350"
        },
        "author": [
          {
            "reference": "urn:uuid:c6e14ce6-28c6-4e1b-9830-0eda8f768ca9"
          }
        ],
        "category": [
          {
            "coding": [
              {
                "code": "26436-6",
                "system": "http://loinc.org",
                "display": "Laboratory studies (set)"
              }
            ]
          }
        ],
        "type": {
          "coding": [
            {
              "code": "11502-2",
              "system": "http://loinc.org",
              "display": "Laboratory report"
            }
          ],
          "text": "Laboratory Report"
        },
        "section": [
          {
            "code": {
              "coding": [
                {
                  "code": "26436-6",
                  "system": "http://loinc.org",
                  "display": "Laboratory studies (set)"
                }
              ],
              "text": "Laboratory studies"
            },
            "section": [
              {
                "code": {
                  "coding": [
                    {
                      "code": "$18719-5",
                      "system": "http://loinc.org",
                      "display": "Chemistry studies (set)"
                    }
                  ],
                  "text": "Chemistry"
                },
                "entry": [
                  {
                    "reference": "urn:uuid:2c075df3-8e36-4555-bf22-702683793069"
                  },
                  {
                    "reference": "urn:uuid:5dd7e9fe-f8ef-458b-998d-8f512545f8dd"
                  },
                  {
                    "reference": "urn:uuid:e1d14f95-4c2f-410e-bbc8-554418b799e5"
                  },
                  {
                    "reference": "urn:uuid:4efb59d8-896b-40eb-b43d-bc37590e9ca1"
                  },
                  {
                    "reference": "urn:uuid:c89a27c9-61bf-4821-bb44-b411e35cc4f0"
                  },
                  {
                    "reference": "urn:uuid:d532096e-474d-4cbb-a336-c79fd5493078"
                  },
                  {
                    "reference": "urn:uuid:52129b70-a193-429a-acfd-e5739b9e11aa"
                  },
                  {
                    "reference": "urn:uuid:208561eb-04aa-4c63-8ce3-7517ab181b84"
                  },
                  {
                    "reference": "urn:uuid:7ab16c0e-2d7c-4ab5-81db-f685fd04a718"
                  }
                ],
                "text": {
                  "status": "generated",
                  "div": "<div xmlns=\"http://www.w3.org/1999/xhtml\"><h3>Chemistry</h3><table class=\"hl7__eu__lab__report\"><thead><tr><th>Test</th><th>26-MAR-2018</th><th>Reference&#xA0;Range</th><th>Unit</th></tr></thead><tbody><tr><td>Hemoglobin A1c/Hemoglobin.total in Blood</td><td><strong>6.1 H</strong></td><td>4 - 6</td><td>%</td></tr><tr><td>Glucose [Mass/volume] in Blood</td><td>77.8</td><td>70 - 140</td><td>mg/dL</td></tr><tr><td>Urea nitrogen [Mass/volume] in Blood</td><td>16.1</td><td>7 - 20</td><td>mg/dL</td></tr><tr><td>Creatinine [Mass/volume] in Blood</td><td>0.9</td><td>0.9 - 1.3</td><td>mg/dL</td></tr><tr><td>Calcium [Mass/volume] in Blood</td><td>10.0</td><td>8.5 - 10.5</td><td>mg/dL</td></tr><tr><td>Sodium [Moles/volume] in Blood</td><td>139.4</td><td>135 - 145</td><td>mmol/L</td></tr><tr><td>Potassium [Moles/volume] in Blood</td><td>4.3</td><td>3.5 - 5</td><td>mmol/L</td></tr><tr><td>Chloride [Moles/volume] in Blood</td><td>107.9</td><td>98 - 110</td><td>mmol/L</td></tr><tr><td>Carbon dioxide, total [Moles/volume] in Blood</td><td><strong>21.5 L</strong></td><td>22 - 32</td><td>mmol/L</td></tr></tbody></table></div>"
                },
                "title": "Chemistry"
              }
            ],
            "title": "Laboratory Report"
          },
          {
            "text": {
              "status": "generated",
              "div": "<div xmlns=\"http://www.w3.org/1999/xhtml\"><h3>Annotation</h3><table class=\"hl7__eu__lab__report\"><tr><th>Conclusion and Recommendations based on this report and previous findings known to us</th></tr><tr><td>The patient shows mildly elevated HbA1c, indicating impaired glucose metabolism or possible prediabetes, despite normal fasting glucose. Renal function, electrolytes, and calcium are within normal limits. Slightly low total CO₂ may suggest mild metabolic acidosis or compensation; clinical correlation is advised. No acute abnormalities detected. Recommend follow-up for glycemic control.</td></tr></table></div>"
            },
            "code": {
              "coding": [
                {
                  "system": "http://loinc.org",
                  "code": "48767-8",
                  "display": "Annotation comment"
                }
              ]
            },
            "title": "Annotation comment"
          }
        ],
        "status": "final",
        "subject": {
          "reference": "urn:uuid:da7f6e04-24ce-45a2-abfc-44d4a92156bc",
          "display": "Alessio Fanucci"
        },
        "date": "2018-03-26T09:49:06Z",
        "title": "Laboratory Report",
        "confidentiality": "N"
      }
    },
    {
      "fullUrl": "urn:uuid:b94bed5a-c021-4964-93a2-b6a55acc2cfb",
      "resource": {
        "resourceType": "DiagnosticReport",
        "id": "b94bed5a-c021-4964-93a2-b6a55acc2cfb",
        "meta": {
          "profile": [
            "http://hl7.eu/fhir/laboratory/StructureDefinition/DiagnosticReport-eu-lab"
          ]
        },
        "identifier": [
          {
            "assigner": {
              "display": "HL7 Europe"
            },
            "system": "urn:oid:2.16.840.1.113883.2.51.999",
            "value": "0e7c1e2f-d15d-43f0-8c1f-b2067018184f"
          }
        ],
        "extension": [
          {
            "url": "http://hl7.org/fhir/5.0/StructureDefinition/extension-DiagnosticReport.composition",
            "valueReference": {
              "reference": "urn:uuid:1f804569-09c4-44b1-a5ab-fb4db2313350"
            }
          }
        ],
        "category": [
          {
            "coding": [
              {
                "code": "26436-6",
                "system": "http://loinc.org",
                "display": "Laboratory studies (set)"
              }
            ]
          }
        ],
        "specimen": [
          {
            "reference": "urn:uuid:562600cd-e9cb-4fa0-841b-c341580526b0"
          }
        ],
        "result": [
          {
            "reference": "urn:uuid:2c075df3-8e36-4555-bf22-702683793069"
          },
          {
            "reference": "urn:uuid:5dd7e9fe-f8ef-458b-998d-8f512545f8dd"
          },
          {
            "reference": "urn:uuid:e1d14f95-4c2f-410e-bbc8-554418b799e5"
          },
          {
            "reference": "urn:uuid:4efb59d8-896b-40eb-b43d-bc37590e9ca1"
          },
          {
            "reference": "urn:uuid:c89a27c9-61bf-4821-bb44-b411e35cc4f0"
          },
          {
            "reference": "urn:uuid:d532096e-474d-4cbb-a336-c79fd5493078"
          },
          {
            "reference": "urn:uuid:52129b70-a193-429a-acfd-e5739b9e11aa"
          },
          {
            "reference": "urn:uuid:208561eb-04aa-4c63-8ce3-7517ab181b84"
          },
          {
            "reference": "urn:uuid:7ab16c0e-2d7c-4ab5-81db-f685fd04a718"
          }
        ],
        "status": "registered",
        "code": {
          "coding": [
            {
              "code": "11502-2",
              "system": "http://loinc.org",
              "display": "Laboratory report"
            }
          ]
        },
        "subject": {
          "reference": "urn:uuid:da7f6e04-24ce-45a2-abfc-44d4a92156bc",
          "display": "Alessio Fanucci"
        }
      }
    },
    {
      "fullUrl": "urn:uuid:da7f6e04-24ce-45a2-abfc-44d4a92156bc",
      "resource": {
        "resourceType": "Patient",
        "id": "da7f6e04-24ce-45a2-abfc-44d4a92156bc",
        "meta": {
          "security": [
            {
              "system": "http://terminology.hl7.org/CodeSystem/v3-ActReason",
              "code": "HTEST"
            },
            {
              "system": "http://terminology.hl7.org/CodeSystem/v3-ActReason",
              "code": "TRAIN"
            }
          ],
          "tag": [
            {
              "system": "https://synderai.net/fhir/CodeSystem/tags",
              "code": "synthetic",
              "display": "SYNDERAI Synthetic data"
            }
          ],
          "profile": [
            "http://hl7.eu/fhir/base/StructureDefinition/patient-eu-core"
          ]
        },
        "identifier": [
          {
            "type": {
              "coding": [
                {
                  "code": "PT",
                  "system": "http://terminology.hl7.org/CodeSystem/v2-0203"
                }
              ]
            },
            "system": "http://ec.europa.eu/identifier/eci",
            "value": "4754-874768-3"
          },
          {
            "type": {
              "coding": [
                {
                  "code": "MR",
                  "system": "http://terminology.hl7.org/CodeSystem/v2-0203"
                }
              ]
            },
            "system": "http://local.setting.eu/identifier",
            "value": "4b888823-bdd8-59a3-b785-e7ba28e6a7b5"
          }
        ],
        "name": [
          {
            "family": "Fanucci"
          },
          {
            "given": [
              "Alessio"
            ]
          },
          {
            "text": "Alessio Fanucci"
          }
        ],
        "address": [
          {
            "line": [
              "Incrocio Combi, 822"
            ],
            "use": "home",
            "type": "physical",
            "postalCode": "33015",
            "city": "Moggio Udinese",
            "country": "Italy"
          }
        ],
        "telecom": [
          {
            "system": "phone",
            "value": "0125684636"
          }
        ],
        "extension": [
          {
            "url": "http://hl7.org/fhir/StructureDefinition/patient-nationality",
            "valueCodeableConcept": {
              "coding": [
                {
                  "code": "IT",
                  "system": "http://hl7.org/fhir/ValueSet/country"
                }
              ]
            }
          }
        ],
        "text": {
          "status": "generated",
          "div": "<div xmlns=\"http://www.w3.org/1999/xhtml\"><table class=\"hl7__ips\"><tr><td>Alessio Fanucci</td><td>male</td><td>12-Sep-1964</td></tr></table></div>"
        },
        "gender": "male",
        "birthDate": "1964-09-12"
      }
    },
    {
      "fullUrl": "urn:uuid:0f22083d-6f38-4c5a-b84f-a62381aace68",
      "resource": {
        "resourceType": "ServiceRequest",
        "id": "0f22083d-6f38-4c5a-b84f-a62381aace68",
        "meta": {
          "profile": [
            "http://hl7.eu/fhir/laboratory/StructureDefinition/ServiceRequest-eu-lab"
          ]
        },
        "identifier": [
          {
            "system": "http://example.org",
            "value": "a7987b0a-22a3-4b46-a96b-8f4177adc0a2"
          }
        ],
        "specimen": [
          {
            "reference": "urn:uuid:562600cd-e9cb-4fa0-841b-c341580526b0"
          }
        ],
        "reasonCode": [
          {
            "coding": [
              {
                "code": "15777000",
                "system": "http://snomed.info/sct",
                "display": "Prediabetes"
              }
            ]
          },
          {
            "coding": [
              {
                "code": "271737000",
                "system": "http://snomed.info/sct",
                "display": "Anemia"
              }
            ]
          },
          {
            "coding": [
              {
                "code": "40055000",
                "system": "http://snomed.info/sct",
                "display": "Chronic sinusitis"
              }
            ]
          }
        ],
        "status": "active",
        "intent": "order",
        "code": {
          "coding": [
            {
              "code": "108252007",
              "system": "http://snomed.info/sct",
              "display": "Laboratory procedure"
            }
          ]
        },
        "subject": {
          "reference": "urn:uuid:da7f6e04-24ce-45a2-abfc-44d4a92156bc",
          "display": "Alessio Fanucci"
        },
        "requester": {
          "reference": "urn:uuid:ef5142b2-d80d-4caa-bdfe-bcdcf813aa0b"
        }
      }
    },
    {
      "fullUrl": "urn:uuid:ef5142b2-d80d-4caa-bdfe-bcdcf813aa0b",
      "resource": {
        "resourceType": "PractitionerRole",
        "id": "ef5142b2-d80d-4caa-bdfe-bcdcf813aa0b",
        "meta": {
          "profile": [
            "http://hl7.eu/fhir/base/StructureDefinition/practitionerRole-eu"
          ]
        },
        "text": {
          "status": "generated",
          "div": "<div xmlns=\"http://www.w3.org/1999/xhtml\">Provider Role Id: ef5142b2-d80d-4caa-bdfe-bcdcf813aa0b</div>"
        },
        "organization": {
          "reference": "urn:uuid:40077fce-b968-4568-a39b-27301194d1cc"
        }
      }
    },
    {
      "fullUrl": "urn:uuid:40077fce-b968-4568-a39b-27301194d1cc",
      "resource": {
        "resourceType": "Organization",
        "id": "40077fce-b968-4568-a39b-27301194d1cc",
        "meta": {
          "profile": [
            "http://hl7.eu/fhir/base/StructureDefinition/organization-eu"
          ]
        },
        "identifier": [
          {
            "assigner": {
              "display": "HL7 Europe"
            },
            "system": "urn:oid:2.16.840.1.113883.2.51.999",
            "value": "70f9576d-ba6b-4333-8995-d4e080813383"
          }
        ],
        "address": [
          {
            "city": "Artegna",
            "postalCode": "33011",
            "country": "Italy"
          }
        ],
        "text": {
          "status": "generated",
          "div": "<div xmlns=\"http://www.w3.org/1999/xhtml\">Provider Organization: Ambulatori</div>"
        },
        "name": "Ambulatori"
      }
    },
    {
      "fullUrl": "urn:uuid:562600cd-e9cb-4fa0-841b-c341580526b0",
      "resource": {
        "resourceType": "Specimen",
        "id": "562600cd-e9cb-4fa0-841b-c341580526b0",
        "meta": {
          "profile": [
            "http://hl7.eu/fhir/laboratory/StructureDefinition/Specimen-eu-lab"
          ]
        },
        "collection": {
          "collectedDateTime": "2018-03-26"
        },
        "text": {
          "status": "generated",
          "div": "<div xmlns=\"http://www.w3.org/1999/xhtml\"><table class=\"hl7__eu__lab__report\"><tr><th>Specimen</th><th>Collection Date</th></tr><tr><td>Whole blood specimen (specimen)</td><td><span class=\"nb\">26-Mar-2018</span></td></tr></table></div>"
        },
        "type": {
          "coding": [
            {
              "code": "258580003",
              "system": "http://snomed.info/sct",
              "display": "Whole blood specimen (specimen)"
            }
          ]
        }
      }
    },
    {
      "fullUrl": "urn:uuid:2c075df3-8e36-4555-bf22-702683793069",
      "resource": {
        "resourceType": "Observation",
        "id": "2c075df3-8e36-4555-bf22-702683793069",
        "meta": {
          "profile": [
            "http://hl7.eu/fhir/laboratory/StructureDefinition/Observation-resultslab-eu-lab"
          ]
        },
        "performer": [
          {
            "display": "The Central European Lab"
          }
        ],
        "category": [
          {
            "coding": [
              {
                "system": "http://terminology.hl7.org/CodeSystem/observation-category",
                "code": "laboratory"
              }
            ]
          }
        ],
        "code": {
          "coding": [
            {
              "code": "4548-4",
              "system": "http://loinc.org",
              "display": "Hemoglobin A1c/Hemoglobin.total in Blood"
            }
          ],
          "text": "Hemoglobin A1c/Hemoglobin.total in Blood"
        },
        "valueQuantity": {
          "system": "http://unitsofmeasure.org",
          "value": 6.1,
          "unit": "%",
          "code": "%"
        },
        "referenceRange": [
          {
            "low": {
              "value": 4,
              "code": "%",
              "system": "http://unitsofmeasure.org"
            }
          },
          {
            "high": {
              "value": 6,
              "code": "%",
              "system": "http://unitsofmeasure.org"
            }
          }
        ],
        "interpretation": [
          {
            "coding": [
              {
                "code": "H",
                "system": "http://terminology.hl7.org/CodeSystem/v3-ObservationInterpretation",
                "display": "High"
              }
            ]
          }
        ],
        "text": {
          "status": "generated",
          "div": "<div xmlns=\"http://www.w3.org/1999/xhtml\"><table class=\"hl7__eu__lab__report\"><tr><th>Test</th><th>26-Mar-2018</th><th>Reference&#xA0;Range</th><th>Unit</th></tr><tr><td>Hemoglobin A1c/Hemoglobin.total in Blood</td><td>6.1</td><td>4 - 6</td><td>H</td><td>%</td></tr></table></div>"
        },
        "status": "final",
        "subject": {
          "reference": "urn:uuid:da7f6e04-24ce-45a2-abfc-44d4a92156bc",
          "display": "Alessio Fanucci"
        },
        "effectiveDateTime": "2018-03-26T07:49:06Z",
        "specimen": {
          "reference": "urn:uuid:562600cd-e9cb-4fa0-841b-c341580526b0"
        }
      }
    },
    {
      "fullUrl": "urn:uuid:5dd7e9fe-f8ef-458b-998d-8f512545f8dd",
      "resource": {
        "resourceType": "Observation",
        "id": "5dd7e9fe-f8ef-458b-998d-8f512545f8dd",
        "meta": {
          "profile": [
            "http://hl7.eu/fhir/laboratory/StructureDefinition/Observation-resultslab-eu-lab"
          ]
        },
        "performer": [
          {
            "display": "The Central European Lab"
          }
        ],
        "category": [
          {
            "coding": [
              {
                "system": "http://terminology.hl7.org/CodeSystem/observation-category",
                "code": "laboratory"
              }
            ]
          }
        ],
        "code": {
          "coding": [
            {
              "code": "2339-0",
              "system": "http://loinc.org",
              "display": "Glucose [Mass/volume] in Blood"
            }
          ],
          "text": "Glucose [Mass/volume] in Blood"
        },
        "valueQuantity": {
          "system": "http://unitsofmeasure.org",
          "value": 77.8,
          "unit": "mg/dL",
          "code": "mg/dL"
        },
        "referenceRange": [
          {
            "low": {
              "value": 70,
              "code": "mg/dL",
              "system": "http://unitsofmeasure.org"
            }
          },
          {
            "high": {
              "value": 140,
              "code": "mg/dL",
              "system": "http://unitsofmeasure.org"
            }
          }
        ],
        "text": {
          "status": "generated",
          "div": "<div xmlns=\"http://www.w3.org/1999/xhtml\"><table class=\"hl7__eu__lab__report\"><tr><th>Test</th><th>26-Mar-2018</th><th>Reference&#xA0;Range</th><th>Unit</th></tr><tr><td>Glucose [Mass/volume] in Blood</td><td>77.8</td><td>70 - 140</td><td></td><td>mg/dL</td></tr></table></div>"
        },
        "status": "final",
        "subject": {
          "reference": "urn:uuid:da7f6e04-24ce-45a2-abfc-44d4a92156bc",
          "display": "Alessio Fanucci"
        },
        "effectiveDateTime": "2018-03-26T07:49:06Z",
        "specimen": {
          "reference": "urn:uuid:562600cd-e9cb-4fa0-841b-c341580526b0"
        }
      }
    },
    {
      "fullUrl": "urn:uuid:e1d14f95-4c2f-410e-bbc8-554418b799e5",
      "resource": {
        "resourceType": "Observation",
        "id": "e1d14f95-4c2f-410e-bbc8-554418b799e5",
        "meta": {
          "profile": [
            "http://hl7.eu/fhir/laboratory/StructureDefinition/Observation-resultslab-eu-lab"
          ]
        },
        "performer": [
          {
            "display": "The Central European Lab"
          }
        ],
        "category": [
          {
            "coding": [
              {
                "system": "http://terminology.hl7.org/CodeSystem/observation-category",
                "code": "laboratory"
              }
            ]
          }
        ],
        "code": {
          "coding": [
            {
              "code": "6299-2",
              "system": "http://loinc.org",
              "display": "Urea nitrogen [Mass/volume] in Blood"
            }
          ],
          "text": "Urea nitrogen [Mass/volume] in Blood"
        },
        "valueQuantity": {
          "system": "http://unitsofmeasure.org",
          "value": 16.1,
          "unit": "mg/dL",
          "code": "mg/dL"
        },
        "referenceRange": [
          {
            "low": {
              "value": 7,
              "code": "mg/dL",
              "system": "http://unitsofmeasure.org"
            }
          },
          {
            "high": {
              "value": 20,
              "code": "mg/dL",
              "system": "http://unitsofmeasure.org"
            }
          }
        ],
        "text": {
          "status": "generated",
          "div": "<div xmlns=\"http://www.w3.org/1999/xhtml\"><table class=\"hl7__eu__lab__report\"><tr><th>Test</th><th>26-Mar-2018</th><th>Reference&#xA0;Range</th><th>Unit</th></tr><tr><td>Urea nitrogen [Mass/volume] in Blood</td><td>16.1</td><td>7 - 20</td><td></td><td>mg/dL</td></tr></table></div>"
        },
        "status": "final",
        "subject": {
          "reference": "urn:uuid:da7f6e04-24ce-45a2-abfc-44d4a92156bc",
          "display": "Alessio Fanucci"
        },
        "effectiveDateTime": "2018-03-26T07:49:06Z",
        "specimen": {
          "reference": "urn:uuid:562600cd-e9cb-4fa0-841b-c341580526b0"
        }
      }
    },
    {
      "fullUrl": "urn:uuid:4efb59d8-896b-40eb-b43d-bc37590e9ca1",
      "resource": {
        "resourceType": "Observation",
        "id": "4efb59d8-896b-40eb-b43d-bc37590e9ca1",
        "meta": {
          "profile": [
            "http://hl7.eu/fhir/laboratory/StructureDefinition/Observation-resultslab-eu-lab"
          ]
        },
        "performer": [
          {
            "display": "The Central European Lab"
          }
        ],
        "category": [
          {
            "coding": [
              {
                "system": "http://terminology.hl7.org/CodeSystem/observation-category",
                "code": "laboratory"
              }
            ]
          }
        ],
        "code": {
          "coding": [
            {
              "code": "38483-4",
              "system": "http://loinc.org",
              "display": "Creatinine [Mass/volume] in Blood"
            }
          ],
          "text": "Creatinine [Mass/volume] in Blood"
        },
        "valueQuantity": {
          "system": "http://unitsofmeasure.org",
          "value": 0.9,
          "unit": "mg/dL",
          "code": "mg/dL"
        },
        "referenceRange": [
          {
            "low": {
              "value": 0.9,
              "code": "mg/dL",
              "system": "http://unitsofmeasure.org"
            }
          },
          {
            "high": {
              "value": 1.3,
              "code": "mg/dL",
              "system": "http://unitsofmeasure.org"
            }
          }
        ],
        "text": {
          "status": "generated",
          "div": "<div xmlns=\"http://www.w3.org/1999/xhtml\"><table class=\"hl7__eu__lab__report\"><tr><th>Test</th><th>26-Mar-2018</th><th>Reference&#xA0;Range</th><th>Unit</th></tr><tr><td>Creatinine [Mass/volume] in Blood</td><td>0.9</td><td>0.9 - 1.3</td><td></td><td>mg/dL</td></tr></table></div>"
        },
        "status": "final",
        "subject": {
          "reference": "urn:uuid:da7f6e04-24ce-45a2-abfc-44d4a92156bc",
          "display": "Alessio Fanucci"
        },
        "effectiveDateTime": "2018-03-26T07:49:06Z",
        "specimen": {
          "reference": "urn:uuid:562600cd-e9cb-4fa0-841b-c341580526b0"
        }
      }
    },
    {
      "fullUrl": "urn:uuid:c89a27c9-61bf-4821-bb44-b411e35cc4f0",
      "resource": {
        "resourceType": "Observation",
        "id": "c89a27c9-61bf-4821-bb44-b411e35cc4f0",
        "meta": {
          "profile": [
            "http://hl7.eu/fhir/laboratory/StructureDefinition/Observation-resultslab-eu-lab"
          ]
        },
        "performer": [
          {
            "display": "The Central European Lab"
          }
        ],
        "category": [
          {
            "coding": [
              {
                "system": "http://terminology.hl7.org/CodeSystem/observation-category",
                "code": "laboratory"
              }
            ]
          }
        ],
        "code": {
          "coding": [
            {
              "code": "49765-1",
              "system": "http://loinc.org",
              "display": "Calcium [Mass/volume] in Blood"
            }
          ],
          "text": "Calcium [Mass/volume] in Blood"
        },
        "valueQuantity": {
          "system": "http://unitsofmeasure.org",
          "value": 10,
          "unit": "mg/dL",
          "code": "mg/dL"
        },
        "referenceRange": [
          {
            "low": {
              "value": 8.5,
              "code": "mg/dL",
              "system": "http://unitsofmeasure.org"
            }
          },
          {
            "high": {
              "value": 10.5,
              "code": "mg/dL",
              "system": "http://unitsofmeasure.org"
            }
          }
        ],
        "text": {
          "status": "generated",
          "div": "<div xmlns=\"http://www.w3.org/1999/xhtml\"><table class=\"hl7__eu__lab__report\"><tr><th>Test</th><th>26-Mar-2018</th><th>Reference&#xA0;Range</th><th>Unit</th></tr><tr><td>Calcium [Mass/volume] in Blood</td><td>10.0</td><td>8.5 - 10.5</td><td></td><td>mg/dL</td></tr></table></div>"
        },
        "status": "final",
        "subject": {
          "reference": "urn:uuid:da7f6e04-24ce-45a2-abfc-44d4a92156bc",
          "display": "Alessio Fanucci"
        },
        "effectiveDateTime": "2018-03-26T07:49:06Z",
        "specimen": {
          "reference": "urn:uuid:562600cd-e9cb-4fa0-841b-c341580526b0"
        }
      }
    },
    {
      "fullUrl": "urn:uuid:d532096e-474d-4cbb-a336-c79fd5493078",
      "resource": {
        "resourceType": "Observation",
        "id": "d532096e-474d-4cbb-a336-c79fd5493078",
        "meta": {
          "profile": [
            "http://hl7.eu/fhir/laboratory/StructureDefinition/Observation-resultslab-eu-lab"
          ]
        },
        "performer": [
          {
            "display": "The Central European Lab"
          }
        ],
        "category": [
          {
            "coding": [
              {
                "system": "http://terminology.hl7.org/CodeSystem/observation-category",
                "code": "laboratory"
              }
            ]
          }
        ],
        "code": {
          "coding": [
            {
              "code": "2947-0",
              "system": "http://loinc.org",
              "display": "Sodium [Moles/volume] in Blood"
            }
          ],
          "text": "Sodium [Moles/volume] in Blood"
        },
        "valueQuantity": {
          "system": "http://unitsofmeasure.org",
          "value": 139.4,
          "unit": "mmol/L",
          "code": "mmol/L"
        },
        "referenceRange": [
          {
            "low": {
              "value": 135,
              "code": "mmol/L",
              "system": "http://unitsofmeasure.org"
            }
          },
          {
            "high": {
              "value": 145,
              "code": "mmol/L",
              "system": "http://unitsofmeasure.org"
            }
          }
        ],
        "text": {
          "status": "generated",
          "div": "<div xmlns=\"http://www.w3.org/1999/xhtml\"><table class=\"hl7__eu__lab__report\"><tr><th>Test</th><th>26-Mar-2018</th><th>Reference&#xA0;Range</th><th>Unit</th></tr><tr><td>Sodium [Moles/volume] in Blood</td><td>139.4</td><td>135 - 145</td><td></td><td>mmol/L</td></tr></table></div>"
        },
        "status": "final",
        "subject": {
          "reference": "urn:uuid:da7f6e04-24ce-45a2-abfc-44d4a92156bc",
          "display": "Alessio Fanucci"
        },
        "effectiveDateTime": "2018-03-26T07:49:06Z",
        "specimen": {
          "reference": "urn:uuid:562600cd-e9cb-4fa0-841b-c341580526b0"
        }
      }
    },
    {
      "fullUrl": "urn:uuid:52129b70-a193-429a-acfd-e5739b9e11aa",
      "resource": {
        "resourceType": "Observation",
        "id": "52129b70-a193-429a-acfd-e5739b9e11aa",
        "meta": {
          "profile": [
            "http://hl7.eu/fhir/laboratory/StructureDefinition/Observation-resultslab-eu-lab"
          ]
        },
        "performer": [
          {
            "display": "The Central European Lab"
          }
        ],
        "category": [
          {
            "coding": [
              {
                "system": "http://terminology.hl7.org/CodeSystem/observation-category",
                "code": "laboratory"
              }
            ]
          }
        ],
        "code": {
          "coding": [
            {
              "code": "6298-4",
              "system": "http://loinc.org",
              "display": "Potassium [Moles/volume] in Blood"
            }
          ],
          "text": "Potassium [Moles/volume] in Blood"
        },
        "valueQuantity": {
          "system": "http://unitsofmeasure.org",
          "value": 4.3,
          "unit": "mmol/L",
          "code": "mmol/L"
        },
        "referenceRange": [
          {
            "low": {
              "value": 3.5,
              "code": "mmol/L",
              "system": "http://unitsofmeasure.org"
            }
          },
          {
            "high": {
              "value": 5,
              "code": "mmol/L",
              "system": "http://unitsofmeasure.org"
            }
          }
        ],
        "text": {
          "status": "generated",
          "div": "<div xmlns=\"http://www.w3.org/1999/xhtml\"><table class=\"hl7__eu__lab__report\"><tr><th>Test</th><th>26-Mar-2018</th><th>Reference&#xA0;Range</th><th>Unit</th></tr><tr><td>Potassium [Moles/volume] in Blood</td><td>4.3</td><td>3.5 - 5</td><td></td><td>mmol/L</td></tr></table></div>"
        },
        "status": "final",
        "subject": {
          "reference": "urn:uuid:da7f6e04-24ce-45a2-abfc-44d4a92156bc",
          "display": "Alessio Fanucci"
        },
        "effectiveDateTime": "2018-03-26T07:49:06Z",
        "specimen": {
          "reference": "urn:uuid:562600cd-e9cb-4fa0-841b-c341580526b0"
        }
      }
    },
    {
      "fullUrl": "urn:uuid:208561eb-04aa-4c63-8ce3-7517ab181b84",
      "resource": {
        "resourceType": "Observation",
        "id": "208561eb-04aa-4c63-8ce3-7517ab181b84",
        "meta": {
          "profile": [
            "http://hl7.eu/fhir/laboratory/StructureDefinition/Observation-resultslab-eu-lab"
          ]
        },
        "performer": [
          {
            "display": "The Central European Lab"
          }
        ],
        "category": [
          {
            "coding": [
              {
                "system": "http://terminology.hl7.org/CodeSystem/observation-category",
                "code": "laboratory"
              }
            ]
          }
        ],
        "code": {
          "coding": [
            {
              "code": "2069-3",
              "system": "http://loinc.org",
              "display": "Chloride [Moles/volume] in Blood"
            }
          ],
          "text": "Chloride [Moles/volume] in Blood"
        },
        "valueQuantity": {
          "system": "http://unitsofmeasure.org",
          "value": 107.9,
          "unit": "mmol/L",
          "code": "mmol/L"
        },
        "referenceRange": [
          {
            "low": {
              "value": 98,
              "code": "mmol/L",
              "system": "http://unitsofmeasure.org"
            }
          },
          {
            "high": {
              "value": 110,
              "code": "mmol/L",
              "system": "http://unitsofmeasure.org"
            }
          }
        ],
        "text": {
          "status": "generated",
          "div": "<div xmlns=\"http://www.w3.org/1999/xhtml\"><table class=\"hl7__eu__lab__report\"><tr><th>Test</th><th>26-Mar-2018</th><th>Reference&#xA0;Range</th><th>Unit</th></tr><tr><td>Chloride [Moles/volume] in Blood</td><td>107.9</td><td>98 - 110</td><td></td><td>mmol/L</td></tr></table></div>"
        },
        "status": "final",
        "subject": {
          "reference": "urn:uuid:da7f6e04-24ce-45a2-abfc-44d4a92156bc",
          "display": "Alessio Fanucci"
        },
        "effectiveDateTime": "2018-03-26T07:49:06Z",
        "specimen": {
          "reference": "urn:uuid:562600cd-e9cb-4fa0-841b-c341580526b0"
        }
      }
    },
    {
      "fullUrl": "urn:uuid:7ab16c0e-2d7c-4ab5-81db-f685fd04a718",
      "resource": {
        "resourceType": "Observation",
        "id": "7ab16c0e-2d7c-4ab5-81db-f685fd04a718",
        "meta": {
          "profile": [
            "http://hl7.eu/fhir/laboratory/StructureDefinition/Observation-resultslab-eu-lab"
          ]
        },
        "performer": [
          {
            "display": "The Central European Lab"
          }
        ],
        "category": [
          {
            "coding": [
              {
                "system": "http://terminology.hl7.org/CodeSystem/observation-category",
                "code": "laboratory"
              }
            ]
          }
        ],
        "code": {
          "coding": [
            {
              "code": "20565-8",
              "system": "http://loinc.org",
              "display": "Carbon dioxide, total [Moles/volume] in Blood"
            }
          ],
          "text": "Carbon dioxide, total [Moles/volume] in Blood"
        },
        "valueQuantity": {
          "system": "http://unitsofmeasure.org",
          "value": 21.5,
          "unit": "mmol/L",
          "code": "mmol/L"
        },
        "referenceRange": [
          {
            "low": {
              "value": 22,
              "code": "mmol/L",
              "system": "http://unitsofmeasure.org"
            }
          },
          {
            "high": {
              "value": 32,
              "code": "mmol/L",
              "system": "http://unitsofmeasure.org"
            }
          }
        ],
        "interpretation": [
          {
            "coding": [
              {
                "code": "L",
                "system": "http://terminology.hl7.org/CodeSystem/v3-ObservationInterpretation",
                "display": "Low"
              }
            ]
          }
        ],
        "text": {
          "status": "generated",
          "div": "<div xmlns=\"http://www.w3.org/1999/xhtml\"><table class=\"hl7__eu__lab__report\"><tr><th>Test</th><th>26-Mar-2018</th><th>Reference&#xA0;Range</th><th>Unit</th></tr><tr><td>Carbon dioxide, total [Moles/volume] in Blood</td><td>21.5</td><td>22 - 32</td><td>L</td><td>mmol/L</td></tr></table></div>"
        },
        "status": "final",
        "subject": {
          "reference": "urn:uuid:da7f6e04-24ce-45a2-abfc-44d4a92156bc",
          "display": "Alessio Fanucci"
        },
        "effectiveDateTime": "2018-03-26T07:49:06Z",
        "specimen": {
          "reference": "urn:uuid:562600cd-e9cb-4fa0-841b-c341580526b0"
        }
      }
    },
    {
      "fullUrl": "urn:uuid:7143e6cf-07e6-4ff8-9dcb-e9079ca83775",
      "resource": {
        "resourceType": "Device",
        "id": "7143e6cf-07e6-4ff8-9dcb-e9079ca83775",
        "deviceName": [
          {
            "name": "SYNDERAI Synthetic Generator",
            "type": "manufacturer-name"
          }
        ],
        "version": [
          {
            "value": "5.0"
          }
        ],
        "text": {
          "status": "generated",
          "div": "<div xmlns=\"http://www.w3.org/1999/xhtml\">SYNDERAI Synthetic Generator v5.0</div>"
        },
        "status": "active\"",
        "distinctIdentifier": "synderai-generator-50",
        "manufacturer": "SYNDERAI Project"
      }
    },
    {
      "fullUrl": "urn:uuid:89d1749d-a95f-4faa-abcc-7beead9c0f40",
      "resource": {
        "resourceType": "Provenance",
        "id": "89d1749d-a95f-4faa-abcc-7beead9c0f40",
        "target": [
          {
            "reference": "Patient/da7f6e04-24ce-45a2-abfc-44d4a92156bc"
          },
          {
            "reference": "Bundle/6bd78350-5953-4b37-b1ea-e5459ca4c40a"
          },
          {
            "reference": "Composition/9eb64644-f415-45c7-bdc4-3f0e0c027a93"
          },
          {
            "reference": "PractitionerRole/c6e14ce6-28c6-4e1b-9830-0eda8f768ca9"
          },
          {
            "reference": "Practitioner/6abba038-1bb7-4f2f-b32a-df0efd765c40"
          },
          {
            "reference": "PractitionerRole/ef5142b2-d80d-4caa-bdfe-bcdcf813aa0b"
          },
          {
            "reference": "Organization/40077fce-b968-4568-a39b-27301194d1cc"
          }
        ],
        "activity": {
          "text": "Synthetic Example Data Generation"
        },
        "policy": [
          "https://synderai.net/synderai-synthetic-data-policy"
        ],
        "agent": [
          {
            "type": {
              "text": "author"
            },
            "who": {
              "reference": "Device/7143e6cf-07e6-4ff8-9dcb-e9079ca83775"
            }
          }
        ],
        "reason": [
          {
            "text": "Interoperability Testing and Training (non-clinical use)"
          }
        ],
        "text": {
          "status": "generated",
          "div": "<div xmlns=\"http://www.w3.org/1999/xhtml\">Provenance for SYNDERAI Synthetic Example Data Resource</div>"
        },
        "recorded": "2018-03-26T09:49:06Z"
      }
    },
    {
      "fullUrl": "urn:uuid:c6e14ce6-28c6-4e1b-9830-0eda8f768ca9",
      "resource": {
        "resourceType": "PractitionerRole",
        "id": "c6e14ce6-28c6-4e1b-9830-0eda8f768ca9",
        "meta": {
          "profile": [
            "http://hl7.eu/fhir/base/StructureDefinition/practitionerRole-eu"
          ]
        },
        "text": {
          "status": "generated",
          "div": "<div xmlns=\"http://www.w3.org/1999/xhtml\">Laboratory Role Id: c6e14ce6-28c6-4e1b-9830-0eda8f768ca9</div>"
        },
        "practitioner": {
          "reference": "urn:uuid:6abba038-1bb7-4f2f-b32a-df0efd765c40"
        }
      }
    },
    {
      "fullUrl": "urn:uuid:6abba038-1bb7-4f2f-b32a-df0efd765c40",
      "resource": {
        "resourceType": "Practitioner",
        "id": "6abba038-1bb7-4f2f-b32a-df0efd765c40",
        "meta": {
          "profile": [
            "http://hl7.eu/fhir/base/StructureDefinition/practitioner-eu"
          ]
        },
        "identifier": [
          {
            "assigner": {
              "display": "HL7 Europe"
            },
            "system": "urn:oid:2.16.840.1.113883.2.51.999",
            "value": "0e89af54-9c9e-4fc4-8ab0-cc8a9d0c40a2"
          }
        ],
        "name": [
          {
            "prefix": [
              "dr"
            ],
            "given": [
              "Ex"
            ],
            "family": "Ample"
          }
        ],
        "address": [
          {
            "line": [
              "Laboratoire Central Européenne",
              "Boulevard du Jardin Botanique 32"
            ],
            "postalCode": "1000",
            "city": "Brussels",
            "country": "Belgium"
          }
        ],
        "text": {
          "status": "generated",
          "div": "<div xmlns=\"http://www.w3.org/1999/xhtml\">Laboratory: Laboratoire Central Européenne, 1000 Brussels, Belgium</div>"
        }
      }
    }
  ],
  "type": "document",
  "timestamp": "2018-03-26T09:49:06Z"
}
