{
  "resourceType": "Bundle",
  "id": "64edac5e-e0fc-4637-b4e3-de2f625be5fd",
  "meta": {
    "profile": [
      "http://hl7.eu/fhir/laboratory/StructureDefinition/Bundle-eu-lab"
    ]
  },
  "identifier": {
    "assigner": {
      "display": "HL7 Europe"
    },
    "system": "urn:oid:2.16.840.1.113883.2.51.999",
    "value": "ef86b933-6cbc-4806-8c09-966e38f17d8a"
  },
  "entry": [
    {
      "fullUrl": "urn:uuid:160cd158-282e-4af4-9549-f55a373cf77e",
      "resource": {
        "resourceType": "Composition",
        "id": "160cd158-282e-4af4-9549-f55a373cf77e",
        "meta": {
          "profile": [
            "http://hl7.eu/fhir/laboratory/StructureDefinition/Composition-eu-lab"
          ]
        },
        "identifier": {
          "assigner": {
            "display": "HL7 Europe"
          },
          "system": "urn:oid:2.16.840.1.113883.2.51.999",
          "value": "9d624182-653c-4063-b179-da133dc3f792"
        },
        "author": [
          {
            "reference": "urn:uuid:0f280386-1526-4ce2-8360-ef00cf0beec6"
          }
        ],
        "category": [
          {
            "coding": [
              {
                "code": "26436-6",
                "system": "http://loinc.org",
                "display": "Laboratory studies (set)"
              }
            ]
          }
        ],
        "type": {
          "coding": [
            {
              "code": "11502-2",
              "system": "http://loinc.org",
              "display": "Laboratory report"
            }
          ],
          "text": "Laboratory Report"
        },
        "section": [
          {
            "code": {
              "coding": [
                {
                  "code": "26436-6",
                  "system": "http://loinc.org",
                  "display": "Laboratory studies (set)"
                }
              ],
              "text": "Laboratory studies"
            },
            "section": [
              {
                "code": {
                  "coding": [
                    {
                      "code": "$18719-5",
                      "system": "http://loinc.org",
                      "display": "Chemistry studies (set)"
                    }
                  ],
                  "text": "Chemistry"
                },
                "entry": [
                  {
                    "reference": "urn:uuid:ce28f132-ca04-4131-a7f1-579555f70564"
                  },
                  {
                    "reference": "urn:uuid:e3cfdf48-7538-4ea1-88e8-4910010b9d62"
                  },
                  {
                    "reference": "urn:uuid:14a9f0ed-e1cc-4056-8e44-92740fd41ac2"
                  },
                  {
                    "reference": "urn:uuid:96c3c961-888d-4932-a30b-48030d887b8f"
                  },
                  {
                    "reference": "urn:uuid:233e85c6-a512-4ede-8650-00d5b5fe53dc"
                  },
                  {
                    "reference": "urn:uuid:1394200c-2e42-4fa9-afb8-4eaaede981e7"
                  },
                  {
                    "reference": "urn:uuid:b77d6b2d-2d4a-4ef0-86a7-d47363612592"
                  },
                  {
                    "reference": "urn:uuid:521af06d-a56a-4e7b-9521-79c0a41a5001"
                  },
                  {
                    "reference": "urn:uuid:ccc0dc73-dc26-4818-90c9-6323bff07445"
                  }
                ],
                "text": {
                  "status": "generated",
                  "div": "<div xmlns=\"http://www.w3.org/1999/xhtml\"><h3>Chemistry</h3><table class=\"hl7__eu__lab__report\"><thead><tr><th>Test</th><th>14-JUL-2018</th><th>Reference&#xA0;Range</th><th>Unit</th></tr></thead><tbody><tr><td>Hemoglobin A1c/Hemoglobin.total in Blood</td><td>5.9</td><td>4.3 - 6.4</td><td>%</td></tr><tr><td>Glucose [Mass/volume] in Blood</td><td>89.8</td><td>70 - 140</td><td>mg/dL</td></tr><tr><td>Urea nitrogen [Mass/volume] in Blood</td><td>12.6</td><td>7 - 20</td><td>mg/dL</td></tr><tr><td>Creatinine [Mass/volume] in Blood</td><td><strong>1.7 H</strong></td><td>0.6 - 1.3</td><td>mg/dL</td></tr><tr><td>Calcium [Mass/volume] in Blood</td><td>8.6</td><td>8.5 - 10.5</td><td>mg/dL</td></tr><tr><td>Sodium [Moles/volume] in Blood</td><td>143.5</td><td>135 - 145</td><td>mmol/L</td></tr><tr><td>Potassium [Moles/volume] in Blood</td><td>4.2</td><td>3.5 - 5.3</td><td>mmol/L</td></tr><tr><td>Chloride [Moles/volume] in Blood</td><td>109.9</td><td>98 - 110</td><td>mmol/L</td></tr><tr><td>Carbon dioxide, total [Moles/volume] in Blood</td><td>25.3</td><td>22 - 29</td><td>mmol/L</td></tr></tbody></table></div>"
                },
                "title": "Chemistry"
              }
            ],
            "title": "Laboratory Report"
          },
          {
            "text": {
              "status": "generated",
              "div": "<div xmlns=\"http://www.w3.org/1999/xhtml\"><h3>Annotation</h3><table class=\"hl7__eu__lab__report\"><tr><th>Conclusion and Recommendations based on this report and previous findings known to us</th></tr><tr><td>All measured parameters are within normal limits except for a mildly elevated creatinine, which may indicate reduced kidney function. Glucose and HbA1c are within target ranges, suggesting good glycemic control. Electrolytes and urea are normal. Recommend clinical correlation for renal function and consideration of repeat or further renal assessment if not previously evaluated.</td></tr></table></div>"
            },
            "code": {
              "coding": [
                {
                  "system": "http://loinc.org",
                  "code": "48767-8",
                  "display": "Annotation comment"
                }
              ]
            },
            "title": "Annotation comment"
          }
        ],
        "status": "final",
        "subject": {
          "reference": "urn:uuid:143a2ee5-1eb0-44bc-8de6-26ed7b5aa5ba",
          "display": "Andrzej Frydrychowicz"
        },
        "date": "2018-07-14T23:33:04Z",
        "title": "Laboratory Report",
        "confidentiality": "N"
      }
    },
    {
      "fullUrl": "urn:uuid:107af54e-89f1-49e4-a454-63c2b7a61d94",
      "resource": {
        "resourceType": "DiagnosticReport",
        "id": "107af54e-89f1-49e4-a454-63c2b7a61d94",
        "meta": {
          "profile": [
            "http://hl7.eu/fhir/laboratory/StructureDefinition/DiagnosticReport-eu-lab"
          ]
        },
        "identifier": [
          {
            "assigner": {
              "display": "HL7 Europe"
            },
            "system": "urn:oid:2.16.840.1.113883.2.51.999",
            "value": "755473af-60b9-4d53-94b2-cba909768c9b"
          }
        ],
        "extension": [
          {
            "url": "http://hl7.org/fhir/5.0/StructureDefinition/extension-DiagnosticReport.composition",
            "valueReference": {
              "reference": "urn:uuid:9d624182-653c-4063-b179-da133dc3f792"
            }
          }
        ],
        "category": [
          {
            "coding": [
              {
                "code": "26436-6",
                "system": "http://loinc.org",
                "display": "Laboratory studies (set)"
              }
            ]
          }
        ],
        "specimen": [
          {
            "reference": "urn:uuid:aa492e04-0047-4f05-9e71-e6aac373e314"
          }
        ],
        "result": [
          {
            "reference": "urn:uuid:ce28f132-ca04-4131-a7f1-579555f70564"
          },
          {
            "reference": "urn:uuid:e3cfdf48-7538-4ea1-88e8-4910010b9d62"
          },
          {
            "reference": "urn:uuid:14a9f0ed-e1cc-4056-8e44-92740fd41ac2"
          },
          {
            "reference": "urn:uuid:96c3c961-888d-4932-a30b-48030d887b8f"
          },
          {
            "reference": "urn:uuid:233e85c6-a512-4ede-8650-00d5b5fe53dc"
          },
          {
            "reference": "urn:uuid:1394200c-2e42-4fa9-afb8-4eaaede981e7"
          },
          {
            "reference": "urn:uuid:b77d6b2d-2d4a-4ef0-86a7-d47363612592"
          },
          {
            "reference": "urn:uuid:521af06d-a56a-4e7b-9521-79c0a41a5001"
          },
          {
            "reference": "urn:uuid:ccc0dc73-dc26-4818-90c9-6323bff07445"
          }
        ],
        "status": "registered",
        "code": {
          "coding": [
            {
              "code": "11502-2",
              "system": "http://loinc.org",
              "display": "Laboratory report"
            }
          ]
        },
        "subject": {
          "reference": "urn:uuid:143a2ee5-1eb0-44bc-8de6-26ed7b5aa5ba",
          "display": "Andrzej Frydrychowicz"
        }
      }
    },
    {
      "fullUrl": "urn:uuid:143a2ee5-1eb0-44bc-8de6-26ed7b5aa5ba",
      "resource": {
        "resourceType": "Patient",
        "id": "143a2ee5-1eb0-44bc-8de6-26ed7b5aa5ba",
        "meta": {
          "security": [
            {
              "system": "http://terminology.hl7.org/CodeSystem/v3-ActReason",
              "code": "HTEST"
            },
            {
              "system": "http://terminology.hl7.org/CodeSystem/v3-ActReason",
              "code": "TRAIN"
            }
          ],
          "tag": [
            {
              "system": "https://synderai.net/fhir/CodeSystem/tags",
              "code": "synthetic",
              "display": "SYNDERAI Synthetic data"
            }
          ],
          "profile": [
            "http://hl7.eu/fhir/base/StructureDefinition/patient-eu-core"
          ]
        },
        "identifier": [
          {
            "type": {
              "coding": [
                {
                  "code": "PT",
                  "system": "http://terminology.hl7.org/CodeSystem/v2-0203"
                }
              ]
            },
            "system": "http://ec.europa.eu/identifier/eci",
            "value": "7036-931598-4"
          },
          {
            "type": {
              "coding": [
                {
                  "code": "MR",
                  "system": "http://terminology.hl7.org/CodeSystem/v2-0203"
                }
              ]
            },
            "system": "http://local.setting.eu/identifier",
            "value": "c84bd820-cdcf-9bc1-d9ba-aa083a5eb400"
          }
        ],
        "name": [
          {
            "family": "Frydrychowicz"
          },
          {
            "given": [
              "Andrzej"
            ]
          },
          {
            "text": "Andrzej Frydrychowicz"
          }
        ],
        "address": [
          {
            "line": [
              "aleja Tulipanowa 94"
            ],
            "use": "home",
            "type": "physical",
            "postalCode": "21-040",
            "city": "Świdnik",
            "country": "Poland"
          }
        ],
        "telecom": [
          {
            "system": "phone",
            "value": "516 092 560"
          }
        ],
        "extension": [
          {
            "url": "http://hl7.org/fhir/StructureDefinition/patient-nationality",
            "valueCodeableConcept": {
              "coding": [
                {
                  "code": "PL",
                  "system": "http://hl7.org/fhir/ValueSet/country"
                }
              ]
            }
          }
        ],
        "text": {
          "status": "generated",
          "div": "<div xmlns=\"http://www.w3.org/1999/xhtml\"><table class=\"hl7__ips\"><tr><td>Andrzej Frydrychowicz</td><td>male</td><td>12-Apr-1974</td></tr></table></div>"
        },
        "gender": "male",
        "birthDate": "1974-04-12"
      }
    },
    {
      "fullUrl": "urn:uuid:3840f2aa-309a-44e0-9935-5f75e6f7182b",
      "resource": {
        "resourceType": "ServiceRequest",
        "id": "3840f2aa-309a-44e0-9935-5f75e6f7182b",
        "meta": {
          "profile": [
            "http://hl7.eu/fhir/laboratory/StructureDefinition/ServiceRequest-eu-lab"
          ]
        },
        "identifier": [
          {
            "system": "http://example.org",
            "value": "b8428be6-ec96-440e-899c-abe4d5879c76"
          }
        ],
        "specimen": [
          {
            "reference": "urn:uuid:aa492e04-0047-4f05-9e71-e6aac373e314"
          }
        ],
        "reasonCode": [
          {
            "coding": [
              {
                "code": "414545008",
                "system": "http://snomed.info/sct",
                "display": "Ischemic heart disease"
              }
            ]
          },
          {
            "coding": [
              {
                "code": "239873007",
                "system": "http://snomed.info/sct",
                "display": "Osteoarthritis of knee"
              }
            ]
          },
          {
            "coding": [
              {
                "code": "15777000",
                "system": "http://snomed.info/sct",
                "display": "Prediabetes"
              }
            ]
          },
          {
            "coding": [
              {
                "code": "271737000",
                "system": "http://snomed.info/sct",
                "display": "Anemia"
              }
            ]
          }
        ],
        "status": "active",
        "intent": "order",
        "code": {
          "coding": [
            {
              "code": "108252007",
              "system": "http://snomed.info/sct",
              "display": "Laboratory procedure"
            }
          ]
        },
        "subject": {
          "reference": "urn:uuid:143a2ee5-1eb0-44bc-8de6-26ed7b5aa5ba",
          "display": "Andrzej Frydrychowicz"
        },
        "requester": {
          "reference": "urn:uuid:a5507946-abc5-4bd3-a409-b174cca62070"
        }
      }
    },
    {
      "fullUrl": "urn:uuid:a5507946-abc5-4bd3-a409-b174cca62070",
      "resource": {
        "resourceType": "PractitionerRole",
        "id": "a5507946-abc5-4bd3-a409-b174cca62070",
        "meta": {
          "profile": [
            "http://hl7.eu/fhir/base/StructureDefinition/practitionerRole-eu"
          ]
        },
        "text": {
          "status": "generated",
          "div": "<div xmlns=\"http://www.w3.org/1999/xhtml\">Provider Role Id: a5507946-abc5-4bd3-a409-b174cca62070</div>"
        },
        "organization": {
          "reference": "urn:uuid:a61555b0-a17b-4714-8ef9-46538ca52d44"
        }
      }
    },
    {
      "fullUrl": "urn:uuid:a61555b0-a17b-4714-8ef9-46538ca52d44",
      "resource": {
        "resourceType": "Organization",
        "id": "a61555b0-a17b-4714-8ef9-46538ca52d44",
        "meta": {
          "profile": [
            "http://hl7.eu/fhir/base/StructureDefinition/organization-eu"
          ]
        },
        "identifier": [
          {
            "assigner": {
              "display": "HL7 Europe"
            },
            "system": "urn:oid:2.16.840.1.113883.2.51.999",
            "value": "c9912e69-37e1-470b-bcfa-347be4880316"
          }
        ],
        "address": [
          {
            "line": [
              "Aleja Lotników Polskich 82"
            ],
            "city": "Świdnik",
            "postalCode": "21-040",
            "country": "Poland"
          }
        ],
        "text": {
          "status": "generated",
          "div": "<div xmlns=\"http://www.w3.org/1999/xhtml\">Provider Organization: Lubelskie Centrum Diagnostyczne</div>"
        },
        "name": "Lubelskie Centrum Diagnostyczne"
      }
    },
    {
      "fullUrl": "urn:uuid:aa492e04-0047-4f05-9e71-e6aac373e314",
      "resource": {
        "resourceType": "Specimen",
        "id": "aa492e04-0047-4f05-9e71-e6aac373e314",
        "meta": {
          "profile": [
            "http://hl7.eu/fhir/laboratory/StructureDefinition/Specimen-eu-lab"
          ]
        },
        "collection": {
          "collectedDateTime": "2018-07-14"
        },
        "text": {
          "status": "generated",
          "div": "<div xmlns=\"http://www.w3.org/1999/xhtml\"><table class=\"hl7__eu__lab__report\"><tr><th>Specimen</th><th>Collection Date</th></tr><tr><td>Whole blood specimen (specimen)</td><td><span class=\"nb\">14-Jul-2018</span></td></tr></table></div>"
        },
        "type": {
          "coding": [
            {
              "code": "258580003",
              "system": "http://snomed.info/sct",
              "display": "Whole blood specimen (specimen)"
            }
          ]
        }
      }
    },
    {
      "fullUrl": "urn:uuid:ce28f132-ca04-4131-a7f1-579555f70564",
      "resource": {
        "resourceType": "Observation",
        "id": "ce28f132-ca04-4131-a7f1-579555f70564",
        "meta": {
          "profile": [
            "http://hl7.eu/fhir/laboratory/StructureDefinition/Observation-resultslab-eu-lab"
          ]
        },
        "performer": [
          {
            "display": "The Central European Lab"
          }
        ],
        "category": [
          {
            "coding": [
              {
                "system": "http://terminology.hl7.org/CodeSystem/observation-category",
                "code": "laboratory"
              }
            ]
          }
        ],
        "code": {
          "coding": [
            {
              "code": "4548-4",
              "system": "http://loinc.org",
              "display": "Hemoglobin A1c/Hemoglobin.total in Blood"
            }
          ],
          "text": "Hemoglobin A1c/Hemoglobin.total in Blood"
        },
        "valueQuantity": {
          "system": "http://unitsofmeasure.org",
          "value": 5.9,
          "unit": "%",
          "code": "%"
        },
        "referenceRange": [
          {
            "low": {
              "value": 4.3,
              "code": "%",
              "system": "http://unitsofmeasure.org"
            }
          },
          {
            "high": {
              "value": 6.4,
              "code": "%",
              "system": "http://unitsofmeasure.org"
            }
          }
        ],
        "text": {
          "status": "generated",
          "div": "<div xmlns=\"http://www.w3.org/1999/xhtml\"><table class=\"hl7__eu__lab__report\"><tr><th>Test</th><th>14-Jul-2018</th><th>Reference&#xA0;Range</th><th>Unit</th></tr><tr><td>Hemoglobin A1c/Hemoglobin.total in Blood</td><td>5.9</td><td>4.3 - 6.4</td><td></td><td>%</td></tr></table></div>"
        },
        "status": "final",
        "subject": {
          "reference": "urn:uuid:143a2ee5-1eb0-44bc-8de6-26ed7b5aa5ba",
          "display": "Andrzej Frydrychowicz"
        },
        "effectiveDateTime": "2018-07-14T21:33:04Z",
        "specimen": {
          "reference": "urn:uuid:aa492e04-0047-4f05-9e71-e6aac373e314"
        }
      }
    },
    {
      "fullUrl": "urn:uuid:e3cfdf48-7538-4ea1-88e8-4910010b9d62",
      "resource": {
        "resourceType": "Observation",
        "id": "e3cfdf48-7538-4ea1-88e8-4910010b9d62",
        "meta": {
          "profile": [
            "http://hl7.eu/fhir/laboratory/StructureDefinition/Observation-resultslab-eu-lab"
          ]
        },
        "performer": [
          {
            "display": "The Central European Lab"
          }
        ],
        "category": [
          {
            "coding": [
              {
                "system": "http://terminology.hl7.org/CodeSystem/observation-category",
                "code": "laboratory"
              }
            ]
          }
        ],
        "code": {
          "coding": [
            {
              "code": "2339-0",
              "system": "http://loinc.org",
              "display": "Glucose [Mass/volume] in Blood"
            }
          ],
          "text": "Glucose [Mass/volume] in Blood"
        },
        "valueQuantity": {
          "system": "http://unitsofmeasure.org",
          "value": 89.8,
          "unit": "mg/dL",
          "code": "mg/dL"
        },
        "referenceRange": [
          {
            "low": {
              "value": 70,
              "code": "mg/dL",
              "system": "http://unitsofmeasure.org"
            }
          },
          {
            "high": {
              "value": 140,
              "code": "mg/dL",
              "system": "http://unitsofmeasure.org"
            }
          }
        ],
        "text": {
          "status": "generated",
          "div": "<div xmlns=\"http://www.w3.org/1999/xhtml\"><table class=\"hl7__eu__lab__report\"><tr><th>Test</th><th>14-Jul-2018</th><th>Reference&#xA0;Range</th><th>Unit</th></tr><tr><td>Glucose [Mass/volume] in Blood</td><td>89.8</td><td>70 - 140</td><td></td><td>mg/dL</td></tr></table></div>"
        },
        "status": "final",
        "subject": {
          "reference": "urn:uuid:143a2ee5-1eb0-44bc-8de6-26ed7b5aa5ba",
          "display": "Andrzej Frydrychowicz"
        },
        "effectiveDateTime": "2018-07-14T21:33:04Z",
        "specimen": {
          "reference": "urn:uuid:aa492e04-0047-4f05-9e71-e6aac373e314"
        }
      }
    },
    {
      "fullUrl": "urn:uuid:14a9f0ed-e1cc-4056-8e44-92740fd41ac2",
      "resource": {
        "resourceType": "Observation",
        "id": "14a9f0ed-e1cc-4056-8e44-92740fd41ac2",
        "meta": {
          "profile": [
            "http://hl7.eu/fhir/laboratory/StructureDefinition/Observation-resultslab-eu-lab"
          ]
        },
        "performer": [
          {
            "display": "The Central European Lab"
          }
        ],
        "category": [
          {
            "coding": [
              {
                "system": "http://terminology.hl7.org/CodeSystem/observation-category",
                "code": "laboratory"
              }
            ]
          }
        ],
        "code": {
          "coding": [
            {
              "code": "6299-2",
              "system": "http://loinc.org",
              "display": "Urea nitrogen [Mass/volume] in Blood"
            }
          ],
          "text": "Urea nitrogen [Mass/volume] in Blood"
        },
        "valueQuantity": {
          "system": "http://unitsofmeasure.org",
          "value": 12.6,
          "unit": "mg/dL",
          "code": "mg/dL"
        },
        "referenceRange": [
          {
            "low": {
              "value": 7,
              "code": "mg/dL",
              "system": "http://unitsofmeasure.org"
            }
          },
          {
            "high": {
              "value": 20,
              "code": "mg/dL",
              "system": "http://unitsofmeasure.org"
            }
          }
        ],
        "text": {
          "status": "generated",
          "div": "<div xmlns=\"http://www.w3.org/1999/xhtml\"><table class=\"hl7__eu__lab__report\"><tr><th>Test</th><th>14-Jul-2018</th><th>Reference&#xA0;Range</th><th>Unit</th></tr><tr><td>Urea nitrogen [Mass/volume] in Blood</td><td>12.6</td><td>7 - 20</td><td></td><td>mg/dL</td></tr></table></div>"
        },
        "status": "final",
        "subject": {
          "reference": "urn:uuid:143a2ee5-1eb0-44bc-8de6-26ed7b5aa5ba",
          "display": "Andrzej Frydrychowicz"
        },
        "effectiveDateTime": "2018-07-14T21:33:04Z",
        "specimen": {
          "reference": "urn:uuid:aa492e04-0047-4f05-9e71-e6aac373e314"
        }
      }
    },
    {
      "fullUrl": "urn:uuid:96c3c961-888d-4932-a30b-48030d887b8f",
      "resource": {
        "resourceType": "Observation",
        "id": "96c3c961-888d-4932-a30b-48030d887b8f",
        "meta": {
          "profile": [
            "http://hl7.eu/fhir/laboratory/StructureDefinition/Observation-resultslab-eu-lab"
          ]
        },
        "performer": [
          {
            "display": "The Central European Lab"
          }
        ],
        "category": [
          {
            "coding": [
              {
                "system": "http://terminology.hl7.org/CodeSystem/observation-category",
                "code": "laboratory"
              }
            ]
          }
        ],
        "code": {
          "coding": [
            {
              "code": "38483-4",
              "system": "http://loinc.org",
              "display": "Creatinine [Mass/volume] in Blood"
            }
          ],
          "text": "Creatinine [Mass/volume] in Blood"
        },
        "valueQuantity": {
          "system": "http://unitsofmeasure.org",
          "value": 1.7,
          "unit": "mg/dL",
          "code": "mg/dL"
        },
        "referenceRange": [
          {
            "low": {
              "value": 0.6,
              "code": "mg/dL",
              "system": "http://unitsofmeasure.org"
            }
          },
          {
            "high": {
              "value": 1.3,
              "code": "mg/dL",
              "system": "http://unitsofmeasure.org"
            }
          }
        ],
        "interpretation": [
          {
            "coding": [
              {
                "code": "H",
                "system": "http://terminology.hl7.org/CodeSystem/v3-ObservationInterpretation",
                "display": "High"
              }
            ]
          }
        ],
        "text": {
          "status": "generated",
          "div": "<div xmlns=\"http://www.w3.org/1999/xhtml\"><table class=\"hl7__eu__lab__report\"><tr><th>Test</th><th>14-Jul-2018</th><th>Reference&#xA0;Range</th><th>Unit</th></tr><tr><td>Creatinine [Mass/volume] in Blood</td><td>1.7</td><td>0.6 - 1.3</td><td>H</td><td>mg/dL</td></tr></table></div>"
        },
        "status": "final",
        "subject": {
          "reference": "urn:uuid:143a2ee5-1eb0-44bc-8de6-26ed7b5aa5ba",
          "display": "Andrzej Frydrychowicz"
        },
        "effectiveDateTime": "2018-07-14T21:33:04Z",
        "specimen": {
          "reference": "urn:uuid:aa492e04-0047-4f05-9e71-e6aac373e314"
        }
      }
    },
    {
      "fullUrl": "urn:uuid:233e85c6-a512-4ede-8650-00d5b5fe53dc",
      "resource": {
        "resourceType": "Observation",
        "id": "233e85c6-a512-4ede-8650-00d5b5fe53dc",
        "meta": {
          "profile": [
            "http://hl7.eu/fhir/laboratory/StructureDefinition/Observation-resultslab-eu-lab"
          ]
        },
        "performer": [
          {
            "display": "The Central European Lab"
          }
        ],
        "category": [
          {
            "coding": [
              {
                "system": "http://terminology.hl7.org/CodeSystem/observation-category",
                "code": "laboratory"
              }
            ]
          }
        ],
        "code": {
          "coding": [
            {
              "code": "49765-1",
              "system": "http://loinc.org",
              "display": "Calcium [Mass/volume] in Blood"
            }
          ],
          "text": "Calcium [Mass/volume] in Blood"
        },
        "valueQuantity": {
          "system": "http://unitsofmeasure.org",
          "value": 8.6,
          "unit": "mg/dL",
          "code": "mg/dL"
        },
        "referenceRange": [
          {
            "low": {
              "value": 8.5,
              "code": "mg/dL",
              "system": "http://unitsofmeasure.org"
            }
          },
          {
            "high": {
              "value": 10.5,
              "code": "mg/dL",
              "system": "http://unitsofmeasure.org"
            }
          }
        ],
        "text": {
          "status": "generated",
          "div": "<div xmlns=\"http://www.w3.org/1999/xhtml\"><table class=\"hl7__eu__lab__report\"><tr><th>Test</th><th>14-Jul-2018</th><th>Reference&#xA0;Range</th><th>Unit</th></tr><tr><td>Calcium [Mass/volume] in Blood</td><td>8.6</td><td>8.5 - 10.5</td><td></td><td>mg/dL</td></tr></table></div>"
        },
        "status": "final",
        "subject": {
          "reference": "urn:uuid:143a2ee5-1eb0-44bc-8de6-26ed7b5aa5ba",
          "display": "Andrzej Frydrychowicz"
        },
        "effectiveDateTime": "2018-07-14T21:33:04Z",
        "specimen": {
          "reference": "urn:uuid:aa492e04-0047-4f05-9e71-e6aac373e314"
        }
      }
    },
    {
      "fullUrl": "urn:uuid:1394200c-2e42-4fa9-afb8-4eaaede981e7",
      "resource": {
        "resourceType": "Observation",
        "id": "1394200c-2e42-4fa9-afb8-4eaaede981e7",
        "meta": {
          "profile": [
            "http://hl7.eu/fhir/laboratory/StructureDefinition/Observation-resultslab-eu-lab"
          ]
        },
        "performer": [
          {
            "display": "The Central European Lab"
          }
        ],
        "category": [
          {
            "coding": [
              {
                "system": "http://terminology.hl7.org/CodeSystem/observation-category",
                "code": "laboratory"
              }
            ]
          }
        ],
        "code": {
          "coding": [
            {
              "code": "2947-0",
              "system": "http://loinc.org",
              "display": "Sodium [Moles/volume] in Blood"
            }
          ],
          "text": "Sodium [Moles/volume] in Blood"
        },
        "valueQuantity": {
          "system": "http://unitsofmeasure.org",
          "value": 143.5,
          "unit": "mmol/L",
          "code": "mmol/L"
        },
        "referenceRange": [
          {
            "low": {
              "value": 135,
              "code": "mmol/L",
              "system": "http://unitsofmeasure.org"
            }
          },
          {
            "high": {
              "value": 145,
              "code": "mmol/L",
              "system": "http://unitsofmeasure.org"
            }
          }
        ],
        "text": {
          "status": "generated",
          "div": "<div xmlns=\"http://www.w3.org/1999/xhtml\"><table class=\"hl7__eu__lab__report\"><tr><th>Test</th><th>14-Jul-2018</th><th>Reference&#xA0;Range</th><th>Unit</th></tr><tr><td>Sodium [Moles/volume] in Blood</td><td>143.5</td><td>135 - 145</td><td></td><td>mmol/L</td></tr></table></div>"
        },
        "status": "final",
        "subject": {
          "reference": "urn:uuid:143a2ee5-1eb0-44bc-8de6-26ed7b5aa5ba",
          "display": "Andrzej Frydrychowicz"
        },
        "effectiveDateTime": "2018-07-14T21:33:04Z",
        "specimen": {
          "reference": "urn:uuid:aa492e04-0047-4f05-9e71-e6aac373e314"
        }
      }
    },
    {
      "fullUrl": "urn:uuid:b77d6b2d-2d4a-4ef0-86a7-d47363612592",
      "resource": {
        "resourceType": "Observation",
        "id": "b77d6b2d-2d4a-4ef0-86a7-d47363612592",
        "meta": {
          "profile": [
            "http://hl7.eu/fhir/laboratory/StructureDefinition/Observation-resultslab-eu-lab"
          ]
        },
        "performer": [
          {
            "display": "The Central European Lab"
          }
        ],
        "category": [
          {
            "coding": [
              {
                "system": "http://terminology.hl7.org/CodeSystem/observation-category",
                "code": "laboratory"
              }
            ]
          }
        ],
        "code": {
          "coding": [
            {
              "code": "6298-4",
              "system": "http://loinc.org",
              "display": "Potassium [Moles/volume] in Blood"
            }
          ],
          "text": "Potassium [Moles/volume] in Blood"
        },
        "valueQuantity": {
          "system": "http://unitsofmeasure.org",
          "value": 4.2,
          "unit": "mmol/L",
          "code": "mmol/L"
        },
        "referenceRange": [
          {
            "low": {
              "value": 3.5,
              "code": "mmol/L",
              "system": "http://unitsofmeasure.org"
            }
          },
          {
            "high": {
              "value": 5.3,
              "code": "mmol/L",
              "system": "http://unitsofmeasure.org"
            }
          }
        ],
        "text": {
          "status": "generated",
          "div": "<div xmlns=\"http://www.w3.org/1999/xhtml\"><table class=\"hl7__eu__lab__report\"><tr><th>Test</th><th>14-Jul-2018</th><th>Reference&#xA0;Range</th><th>Unit</th></tr><tr><td>Potassium [Moles/volume] in Blood</td><td>4.2</td><td>3.5 - 5.3</td><td></td><td>mmol/L</td></tr></table></div>"
        },
        "status": "final",
        "subject": {
          "reference": "urn:uuid:143a2ee5-1eb0-44bc-8de6-26ed7b5aa5ba",
          "display": "Andrzej Frydrychowicz"
        },
        "effectiveDateTime": "2018-07-14T21:33:04Z",
        "specimen": {
          "reference": "urn:uuid:aa492e04-0047-4f05-9e71-e6aac373e314"
        }
      }
    },
    {
      "fullUrl": "urn:uuid:521af06d-a56a-4e7b-9521-79c0a41a5001",
      "resource": {
        "resourceType": "Observation",
        "id": "521af06d-a56a-4e7b-9521-79c0a41a5001",
        "meta": {
          "profile": [
            "http://hl7.eu/fhir/laboratory/StructureDefinition/Observation-resultslab-eu-lab"
          ]
        },
        "performer": [
          {
            "display": "The Central European Lab"
          }
        ],
        "category": [
          {
            "coding": [
              {
                "system": "http://terminology.hl7.org/CodeSystem/observation-category",
                "code": "laboratory"
              }
            ]
          }
        ],
        "code": {
          "coding": [
            {
              "code": "2069-3",
              "system": "http://loinc.org",
              "display": "Chloride [Moles/volume] in Blood"
            }
          ],
          "text": "Chloride [Moles/volume] in Blood"
        },
        "valueQuantity": {
          "system": "http://unitsofmeasure.org",
          "value": 109.9,
          "unit": "mmol/L",
          "code": "mmol/L"
        },
        "referenceRange": [
          {
            "low": {
              "value": 98,
              "code": "mmol/L",
              "system": "http://unitsofmeasure.org"
            }
          },
          {
            "high": {
              "value": 110,
              "code": "mmol/L",
              "system": "http://unitsofmeasure.org"
            }
          }
        ],
        "text": {
          "status": "generated",
          "div": "<div xmlns=\"http://www.w3.org/1999/xhtml\"><table class=\"hl7__eu__lab__report\"><tr><th>Test</th><th>14-Jul-2018</th><th>Reference&#xA0;Range</th><th>Unit</th></tr><tr><td>Chloride [Moles/volume] in Blood</td><td>109.9</td><td>98 - 110</td><td></td><td>mmol/L</td></tr></table></div>"
        },
        "status": "final",
        "subject": {
          "reference": "urn:uuid:143a2ee5-1eb0-44bc-8de6-26ed7b5aa5ba",
          "display": "Andrzej Frydrychowicz"
        },
        "effectiveDateTime": "2018-07-14T21:33:04Z",
        "specimen": {
          "reference": "urn:uuid:aa492e04-0047-4f05-9e71-e6aac373e314"
        }
      }
    },
    {
      "fullUrl": "urn:uuid:ccc0dc73-dc26-4818-90c9-6323bff07445",
      "resource": {
        "resourceType": "Observation",
        "id": "ccc0dc73-dc26-4818-90c9-6323bff07445",
        "meta": {
          "profile": [
            "http://hl7.eu/fhir/laboratory/StructureDefinition/Observation-resultslab-eu-lab"
          ]
        },
        "performer": [
          {
            "display": "The Central European Lab"
          }
        ],
        "category": [
          {
            "coding": [
              {
                "system": "http://terminology.hl7.org/CodeSystem/observation-category",
                "code": "laboratory"
              }
            ]
          }
        ],
        "code": {
          "coding": [
            {
              "code": "20565-8",
              "system": "http://loinc.org",
              "display": "Carbon dioxide, total [Moles/volume] in Blood"
            }
          ],
          "text": "Carbon dioxide, total [Moles/volume] in Blood"
        },
        "valueQuantity": {
          "system": "http://unitsofmeasure.org",
          "value": 25.3,
          "unit": "mmol/L",
          "code": "mmol/L"
        },
        "referenceRange": [
          {
            "low": {
              "value": 22,
              "code": "mmol/L",
              "system": "http://unitsofmeasure.org"
            }
          },
          {
            "high": {
              "value": 29,
              "code": "mmol/L",
              "system": "http://unitsofmeasure.org"
            }
          }
        ],
        "text": {
          "status": "generated",
          "div": "<div xmlns=\"http://www.w3.org/1999/xhtml\"><table class=\"hl7__eu__lab__report\"><tr><th>Test</th><th>14-Jul-2018</th><th>Reference&#xA0;Range</th><th>Unit</th></tr><tr><td>Carbon dioxide, total [Moles/volume] in Blood</td><td>25.3</td><td>22 - 29</td><td></td><td>mmol/L</td></tr></table></div>"
        },
        "status": "final",
        "subject": {
          "reference": "urn:uuid:143a2ee5-1eb0-44bc-8de6-26ed7b5aa5ba",
          "display": "Andrzej Frydrychowicz"
        },
        "effectiveDateTime": "2018-07-14T21:33:04Z",
        "specimen": {
          "reference": "urn:uuid:aa492e04-0047-4f05-9e71-e6aac373e314"
        }
      }
    },
    {
      "fullUrl": "urn:uuid:161baf66-2caf-448a-a871-7f14d4dbca7a",
      "resource": {
        "resourceType": "Device",
        "id": "161baf66-2caf-448a-a871-7f14d4dbca7a",
        "deviceName": [
          {
            "name": "SYNDERAI Synthetic Generator",
            "type": "manufacturer-name"
          }
        ],
        "version": [
          {
            "value": "5.0"
          }
        ],
        "text": {
          "status": "generated",
          "div": "<div xmlns=\"http://www.w3.org/1999/xhtml\">SYNDERAI Synthetic Generator v5.0</div>"
        },
        "status": "active\"",
        "distinctIdentifier": "synderai-generator-50",
        "manufacturer": "SYNDERAI Project"
      }
    },
    {
      "fullUrl": "urn:uuid:1b2f8c04-1cab-46bf-a94c-26b0d297d06b",
      "resource": {
        "resourceType": "Provenance",
        "id": "1b2f8c04-1cab-46bf-a94c-26b0d297d06b",
        "target": [
          {
            "reference": "Patient/143a2ee5-1eb0-44bc-8de6-26ed7b5aa5ba"
          },
          {
            "reference": "Bundle/64edac5e-e0fc-4637-b4e3-de2f625be5fd"
          },
          {
            "reference": "Composition/160cd158-282e-4af4-9549-f55a373cf77e"
          },
          {
            "reference": "PractitionerRole/0f280386-1526-4ce2-8360-ef00cf0beec6"
          },
          {
            "reference": "Practitioner/3440f869-3005-42da-9f39-23aa20288789"
          },
          {
            "reference": "PractitionerRole/a5507946-abc5-4bd3-a409-b174cca62070"
          },
          {
            "reference": "Organization/a61555b0-a17b-4714-8ef9-46538ca52d44"
          }
        ],
        "activity": {
          "text": "Synthetic Example Data Generation"
        },
        "policy": [
          "https://synderai.net/synderai-synthetic-data-policy"
        ],
        "agent": [
          {
            "type": {
              "text": "author"
            },
            "who": {
              "reference": "Device/161baf66-2caf-448a-a871-7f14d4dbca7a"
            }
          }
        ],
        "reason": [
          {
            "text": "Interoperability Testing and Training (non-clinical use)"
          }
        ],
        "text": {
          "status": "generated",
          "div": "<div xmlns=\"http://www.w3.org/1999/xhtml\">Provenance for SYNDERAI Synthetic Example Data Resource</div>"
        },
        "recorded": "2018-07-14T23:33:04Z"
      }
    },
    {
      "fullUrl": "urn:uuid:0f280386-1526-4ce2-8360-ef00cf0beec6",
      "resource": {
        "resourceType": "PractitionerRole",
        "id": "0f280386-1526-4ce2-8360-ef00cf0beec6",
        "meta": {
          "profile": [
            "http://hl7.eu/fhir/base/StructureDefinition/practitionerRole-eu"
          ]
        },
        "text": {
          "status": "generated",
          "div": "<div xmlns=\"http://www.w3.org/1999/xhtml\">Laboratory Role Id: 0f280386-1526-4ce2-8360-ef00cf0beec6</div>"
        },
        "practitioner": {
          "reference": "urn:uuid:3440f869-3005-42da-9f39-23aa20288789"
        }
      }
    },
    {
      "fullUrl": "urn:uuid:3440f869-3005-42da-9f39-23aa20288789",
      "resource": {
        "resourceType": "Practitioner",
        "id": "3440f869-3005-42da-9f39-23aa20288789",
        "meta": {
          "profile": [
            "http://hl7.eu/fhir/base/StructureDefinition/practitioner-eu"
          ]
        },
        "identifier": [
          {
            "assigner": {
              "display": "HL7 Europe"
            },
            "system": "urn:oid:2.16.840.1.113883.2.51.999",
            "value": "43294479-34c8-4e75-b567-8f4e5981d086"
          }
        ],
        "name": [
          {
            "prefix": [
              "dr"
            ],
            "given": [
              "Ex"
            ],
            "family": "Ample"
          }
        ],
        "address": [
          {
            "line": [
              "Laboratoire Central Européenne",
              "Boulevard du Jardin Botanique 32"
            ],
            "postalCode": "1000",
            "city": "Brussels",
            "country": "Belgium"
          }
        ],
        "text": {
          "status": "generated",
          "div": "<div xmlns=\"http://www.w3.org/1999/xhtml\">Laboratory: Laboratoire Central Européenne, 1000 Brussels, Belgium</div>"
        }
      }
    }
  ],
  "type": "document",
  "timestamp": "2018-07-14T23:33:04Z"
}
