{
  "resourceType": "Bundle",
  "id": "24abe25d-ba6c-4307-ac0c-d1a763901186",
  "meta": {
    "profile": [
      "http://hl7.eu/fhir/laboratory/StructureDefinition/Bundle-eu-lab"
    ]
  },
  "identifier": {
    "assigner": {
      "display": "HL7 Europe"
    },
    "system": "urn:oid:2.16.840.1.113883.2.51.999",
    "value": "d6652777-087f-4cfb-bad5-b0d3531f4b6b"
  },
  "entry": [
    {
      "fullUrl": "urn:uuid:8fd3e775-d2bd-43bd-8bcf-9c943dcfde13",
      "resource": {
        "resourceType": "Composition",
        "id": "8fd3e775-d2bd-43bd-8bcf-9c943dcfde13",
        "meta": {
          "profile": [
            "http://hl7.eu/fhir/laboratory/StructureDefinition/Composition-eu-lab"
          ]
        },
        "identifier": {
          "assigner": {
            "display": "HL7 Europe"
          },
          "system": "urn:oid:2.16.840.1.113883.2.51.999",
          "value": "1f6dfde6-5f84-4f33-8f11-d308fe2f99ca"
        },
        "author": [
          {
            "reference": "urn:uuid:0b22dc72-b64c-4057-9509-9477e645d7b9"
          }
        ],
        "category": [
          {
            "coding": [
              {
                "code": "26436-6",
                "system": "http://loinc.org",
                "display": "Laboratory studies (set)"
              }
            ]
          }
        ],
        "type": {
          "coding": [
            {
              "code": "11502-2",
              "system": "http://loinc.org",
              "display": "Laboratory report"
            }
          ],
          "text": "Laboratory Report"
        },
        "section": [
          {
            "code": {
              "coding": [
                {
                  "code": "26436-6",
                  "system": "http://loinc.org",
                  "display": "Laboratory studies (set)"
                }
              ],
              "text": "Laboratory studies"
            },
            "section": [
              {
                "code": {
                  "coding": [
                    {
                      "code": "$18719-5",
                      "system": "http://loinc.org",
                      "display": "Chemistry studies (set)"
                    }
                  ],
                  "text": "Chemistry"
                },
                "entry": [
                  {
                    "reference": "urn:uuid:b204b912-d516-4c6f-b58c-98e086128931"
                  },
                  {
                    "reference": "urn:uuid:a1af0be4-8f2e-4a52-a6ae-4e848a27b950"
                  },
                  {
                    "reference": "urn:uuid:c481f7db-7677-4539-881f-deb9356f19df"
                  },
                  {
                    "reference": "urn:uuid:79e91e7c-ea37-4ddd-9dd2-3ce66116207e"
                  },
                  {
                    "reference": "urn:uuid:864feabf-5ae8-4812-930b-341786ba36b3"
                  },
                  {
                    "reference": "urn:uuid:b88442db-e2a3-4113-9095-b49174ca00c3"
                  },
                  {
                    "reference": "urn:uuid:80319364-9520-4f57-b105-68d8c06d7f63"
                  },
                  {
                    "reference": "urn:uuid:0468df5d-159e-4fe9-8725-3c3b4fc205d4"
                  },
                  {
                    "reference": "urn:uuid:984df040-e969-4355-8fea-553b157fa5fd"
                  },
                  {
                    "reference": "urn:uuid:c61f8a5a-cf27-4ed7-ad62-9c23cc6c0824"
                  },
                  {
                    "reference": "urn:uuid:597a79de-dd56-4148-a736-5e4859f5d8cb"
                  },
                  {
                    "reference": "urn:uuid:43423bb9-bb8b-4ac4-a142-23c5f4e886b3"
                  },
                  {
                    "reference": "urn:uuid:8819c4ac-dcee-4c5b-929b-28e947743287"
                  },
                  {
                    "reference": "urn:uuid:fe902a2c-188a-4099-982e-4bb32da344d1"
                  },
                  {
                    "reference": "urn:uuid:ad08400e-954d-40ae-b3a3-760e9a222481"
                  },
                  {
                    "reference": "urn:uuid:ced29e7f-bd64-4e2a-b8ae-9676931c12b4"
                  },
                  {
                    "reference": "urn:uuid:9c535c6f-8529-4a53-a1ac-1a18259b7674"
                  },
                  {
                    "reference": "urn:uuid:1613e8e8-dc21-4204-a5bd-fb75113b84e4"
                  },
                  {
                    "reference": "urn:uuid:2b4f8536-7d8b-4d43-9432-43a49b5c9427"
                  }
                ],
                "text": {
                  "status": "generated",
                  "div": "<div xmlns=\"http://www.w3.org/1999/xhtml\"><h3>Chemistry</h3><table class=\"hl7__eu__lab__report\"><thead><tr><th>Test</th><th>12-APR-2021</th><th>Reference&#xA0;Range</th><th>Unit</th></tr></thead><tbody><tr><td>Glucose [Mass/volume] in Blood</td><td>95.8</td><td>70 - 140</td><td>mg/dL</td></tr><tr><td>Urea nitrogen [Mass/volume] in Blood</td><td>8.5</td><td>7 - 20</td><td>mg/dL</td></tr><tr><td>Creatinine [Mass/volume] in Blood</td><td><strong>3.4 H</strong></td><td>0.6 - 1.1</td><td>mg/dL</td></tr><tr><td>Calcium [Mass/volume] in Blood</td><td>9.1</td><td>8.5 - 10.4</td><td>mg/dL</td></tr><tr><td>Sodium [Moles/volume] in Blood</td><td>143.3</td><td>135 - 145</td><td>mmol/L</td></tr><tr><td>Potassium [Moles/volume] in Blood</td><td>4.4</td><td>3.5 - 5.1</td><td>mmol/L</td></tr><tr><td>Chloride [Moles/volume] in Blood</td><td>101.9</td><td>98 - 108</td><td>mmol/L</td></tr><tr><td>Carbon dioxide, total [Moles/volume] in Blood</td><td>25.0</td><td>22 - 29</td><td>mmol/L</td></tr><tr><td>Protein [Mass/volume] in Serum or Plasma</td><td>7.3</td><td>6 - 8.3</td><td>g/dL</td></tr><tr><td>Albumin [Mass/volume] in Serum or Plasma</td><td>4.9</td><td>3.4 - 5</td><td>g/dL</td></tr><tr><td>Globulin [Mass/volume] in Serum by calculation</td><td>2.5</td><td>2 - 3.5</td><td>g/L</td></tr><tr><td>Bilirubin.total [Mass/volume] in Serum or Plasma</td><td>0.8</td><td>0.2 - 1.2</td><td>mg/dL</td></tr><tr><td>Alkaline phosphatase [Enzymatic activity/volume] in Serum or Plasma</td><td><strong>127.7 H</strong></td><td>44 - 104</td><td>U/L</td></tr><tr><td>Alanine aminotransferase [Enzymatic activity/volume] in Serum or Plasma</td><td>20.5</td><td>13 - 36</td><td>U/L</td></tr><tr><td>Aspartate aminotransferase [Enzymatic activity/volume] in Serum or Plasma</td><td><strong>7.2 L</strong></td><td>10 - 40</td><td>U/L</td></tr><tr><td>Cholesterol [Mass/volume] in Serum or Plasma</td><td>152.6</td><td>130 - 200</td><td>mg/dL</td></tr><tr><td>Triglyceride [Mass/volume] in Serum or Plasma</td><td>156.9</td><td>35 - 175</td><td>mg/dL</td></tr><tr><td>Cholesterol in LDL [Mass/volume] in Serum or Plasma by Direct assay</td><td>120.4</td><td>0 - 190</td><td>mg/dL</td></tr><tr><td>Cholesterol in HDL [Mass/volume] in Serum or Plasma</td><td>66.6</td><td>50 - 100</td><td>mg/dL</td></tr></tbody></table></div>"
                },
                "title": "Chemistry"
              }
            ],
            "title": "Laboratory Report"
          },
          {
            "text": {
              "status": "generated",
              "div": "<div xmlns=\"http://www.w3.org/1999/xhtml\"><h3>Annotation</h3><table class=\"hl7__eu__lab__report\"><tr><th>Conclusion and Recommendations based on this report and previous findings known to us</th></tr><tr><td>Renal function is impaired, as indicated by significantly elevated creatinine. Alkaline phosphatase is mildly elevated, which may suggest cholestasis or bone turnover; liver transaminases are within or below normal. Other parameters, including glucose, electrolytes, proteins, and lipids, are within normal limits. Recommend clinical correlation and further evaluation of renal and hepatobiliary function.</td></tr></table></div>"
            },
            "code": {
              "coding": [
                {
                  "system": "http://loinc.org",
                  "code": "48767-8",
                  "display": "Annotation comment"
                }
              ]
            },
            "title": "Annotation comment"
          }
        ],
        "status": "final",
        "subject": {
          "reference": "urn:uuid:89fbe331-a063-48e8-9b36-5cc10dbf6b7b",
          "display": "Eileen Taylor"
        },
        "date": "2021-04-12T07:47:02Z",
        "title": "Laboratory Report",
        "confidentiality": "N"
      }
    },
    {
      "fullUrl": "urn:uuid:2c12b6b4-fd44-4171-9603-ac4e61e12eb5",
      "resource": {
        "resourceType": "DiagnosticReport",
        "id": "2c12b6b4-fd44-4171-9603-ac4e61e12eb5",
        "meta": {
          "profile": [
            "http://hl7.eu/fhir/laboratory/StructureDefinition/DiagnosticReport-eu-lab"
          ]
        },
        "identifier": [
          {
            "assigner": {
              "display": "HL7 Europe"
            },
            "system": "urn:oid:2.16.840.1.113883.2.51.999",
            "value": "e6ea68b3-70ef-4f99-89d1-26c744ecbcd7"
          }
        ],
        "extension": [
          {
            "url": "http://hl7.org/fhir/5.0/StructureDefinition/extension-DiagnosticReport.composition",
            "valueReference": {
              "reference": "urn:uuid:1f6dfde6-5f84-4f33-8f11-d308fe2f99ca"
            }
          }
        ],
        "category": [
          {
            "coding": [
              {
                "code": "26436-6",
                "system": "http://loinc.org",
                "display": "Laboratory studies (set)"
              }
            ]
          }
        ],
        "specimen": [
          {
            "reference": "urn:uuid:d8d94748-aabe-4a80-b01c-91154abd19a7"
          },
          {
            "reference": "urn:uuid:cd414d0a-3a62-465e-9db3-a96212bdc3f5"
          },
          {
            "reference": "urn:uuid:22e32d01-c324-4598-b8a9-d1dbf27e0916"
          }
        ],
        "result": [
          {
            "reference": "urn:uuid:b204b912-d516-4c6f-b58c-98e086128931"
          },
          {
            "reference": "urn:uuid:a1af0be4-8f2e-4a52-a6ae-4e848a27b950"
          },
          {
            "reference": "urn:uuid:c481f7db-7677-4539-881f-deb9356f19df"
          },
          {
            "reference": "urn:uuid:79e91e7c-ea37-4ddd-9dd2-3ce66116207e"
          },
          {
            "reference": "urn:uuid:864feabf-5ae8-4812-930b-341786ba36b3"
          },
          {
            "reference": "urn:uuid:b88442db-e2a3-4113-9095-b49174ca00c3"
          },
          {
            "reference": "urn:uuid:80319364-9520-4f57-b105-68d8c06d7f63"
          },
          {
            "reference": "urn:uuid:0468df5d-159e-4fe9-8725-3c3b4fc205d4"
          },
          {
            "reference": "urn:uuid:984df040-e969-4355-8fea-553b157fa5fd"
          },
          {
            "reference": "urn:uuid:c61f8a5a-cf27-4ed7-ad62-9c23cc6c0824"
          },
          {
            "reference": "urn:uuid:597a79de-dd56-4148-a736-5e4859f5d8cb"
          },
          {
            "reference": "urn:uuid:43423bb9-bb8b-4ac4-a142-23c5f4e886b3"
          },
          {
            "reference": "urn:uuid:8819c4ac-dcee-4c5b-929b-28e947743287"
          },
          {
            "reference": "urn:uuid:fe902a2c-188a-4099-982e-4bb32da344d1"
          },
          {
            "reference": "urn:uuid:ad08400e-954d-40ae-b3a3-760e9a222481"
          },
          {
            "reference": "urn:uuid:ced29e7f-bd64-4e2a-b8ae-9676931c12b4"
          },
          {
            "reference": "urn:uuid:9c535c6f-8529-4a53-a1ac-1a18259b7674"
          },
          {
            "reference": "urn:uuid:1613e8e8-dc21-4204-a5bd-fb75113b84e4"
          },
          {
            "reference": "urn:uuid:2b4f8536-7d8b-4d43-9432-43a49b5c9427"
          }
        ],
        "status": "registered",
        "code": {
          "coding": [
            {
              "code": "11502-2",
              "system": "http://loinc.org",
              "display": "Laboratory report"
            }
          ]
        },
        "subject": {
          "reference": "urn:uuid:89fbe331-a063-48e8-9b36-5cc10dbf6b7b",
          "display": "Eileen Taylor"
        }
      }
    },
    {
      "fullUrl": "urn:uuid:89fbe331-a063-48e8-9b36-5cc10dbf6b7b",
      "resource": {
        "resourceType": "Patient",
        "id": "89fbe331-a063-48e8-9b36-5cc10dbf6b7b",
        "meta": {
          "security": [
            {
              "system": "http://terminology.hl7.org/CodeSystem/v3-ActReason",
              "code": "HTEST"
            },
            {
              "system": "http://terminology.hl7.org/CodeSystem/v3-ActReason",
              "code": "TRAIN"
            }
          ],
          "tag": [
            {
              "system": "https://synderai.net/fhir/CodeSystem/tags",
              "code": "synthetic",
              "display": "SYNDERAI Synthetic data"
            }
          ],
          "profile": [
            "http://hl7.eu/fhir/base/StructureDefinition/patient-eu-core"
          ]
        },
        "identifier": [
          {
            "type": {
              "coding": [
                {
                  "code": "PT",
                  "system": "http://terminology.hl7.org/CodeSystem/v2-0203"
                }
              ]
            },
            "system": "http://ec.europa.eu/identifier/eci",
            "value": "6172-576075-7"
          },
          {
            "type": {
              "coding": [
                {
                  "code": "MR",
                  "system": "http://terminology.hl7.org/CodeSystem/v2-0203"
                }
              ]
            },
            "system": "http://local.setting.eu/identifier",
            "value": "f7f175da-cf0d-5686-8800-840d9ab7b47b"
          }
        ],
        "name": [
          {
            "family": "Taylor"
          },
          {
            "given": [
              "Eileen"
            ]
          },
          {
            "text": "Eileen Taylor"
          }
        ],
        "address": [
          {
            "line": [
              "39 Slater harbors"
            ],
            "use": "home",
            "type": "physical",
            "postalCode": "LE17",
            "city": "Smithtown",
            "country": "United Kingdom"
          }
        ],
        "telecom": [
          {
            "system": "phone",
            "value": "+44(0)1614960460"
          }
        ],
        "extension": [
          {
            "url": "http://hl7.org/fhir/StructureDefinition/patient-nationality",
            "valueCodeableConcept": {
              "coding": [
                {
                  "code": "GB",
                  "system": "http://hl7.org/fhir/ValueSet/country"
                }
              ]
            }
          }
        ],
        "text": {
          "status": "generated",
          "div": "<div xmlns=\"http://www.w3.org/1999/xhtml\"><table class=\"hl7__ips\"><tr><td>Eileen Taylor</td><td>female</td><td>11-Dec-1951</td></tr></table></div>"
        },
        "gender": "female",
        "birthDate": "1951-12-11"
      }
    },
    {
      "fullUrl": "urn:uuid:f95dbc4a-497f-4711-acde-bfedefbc8aaa",
      "resource": {
        "resourceType": "ServiceRequest",
        "id": "f95dbc4a-497f-4711-acde-bfedefbc8aaa",
        "meta": {
          "profile": [
            "http://hl7.eu/fhir/laboratory/StructureDefinition/ServiceRequest-eu-lab"
          ]
        },
        "identifier": [
          {
            "system": "http://example.org",
            "value": "b790b05f-75b7-4bec-a9e5-a3e75079a7f9"
          }
        ],
        "specimen": [
          {
            "reference": "urn:uuid:d8d94748-aabe-4a80-b01c-91154abd19a7"
          },
          {
            "reference": "urn:uuid:cd414d0a-3a62-465e-9db3-a96212bdc3f5"
          },
          {
            "reference": "urn:uuid:22e32d01-c324-4598-b8a9-d1dbf27e0916"
          }
        ],
        "reasonCode": [
          {
            "coding": [
              {
                "code": "203082005",
                "system": "http://snomed.info/sct",
                "display": "Fibromyalgia"
              }
            ]
          },
          {
            "coding": [
              {
                "code": "239873007",
                "system": "http://snomed.info/sct",
                "display": "Osteoarthritis of knee"
              }
            ]
          },
          {
            "coding": [
              {
                "code": "55822004",
                "system": "http://snomed.info/sct",
                "display": "Hyperlipidemia"
              }
            ]
          },
          {
            "coding": [
              {
                "code": "254837009",
                "system": "http://snomed.info/sct",
                "display": "Malignant neoplasm of breast"
              }
            ]
          },
          {
            "coding": [
              {
                "code": "197927001",
                "system": "http://snomed.info/sct",
                "display": "Recurrent urinary tract infection"
              }
            ]
          }
        ],
        "status": "active",
        "intent": "order",
        "code": {
          "coding": [
            {
              "code": "108252007",
              "system": "http://snomed.info/sct",
              "display": "Laboratory procedure"
            }
          ]
        },
        "subject": {
          "reference": "urn:uuid:89fbe331-a063-48e8-9b36-5cc10dbf6b7b",
          "display": "Eileen Taylor"
        },
        "requester": {
          "reference": "urn:uuid:1de860c5-6872-459d-b9b2-a5b32f299b14"
        }
      }
    },
    {
      "fullUrl": "urn:uuid:1de860c5-6872-459d-b9b2-a5b32f299b14",
      "resource": {
        "resourceType": "PractitionerRole",
        "id": "1de860c5-6872-459d-b9b2-a5b32f299b14",
        "meta": {
          "profile": [
            "http://hl7.eu/fhir/base/StructureDefinition/practitionerRole-eu"
          ]
        },
        "text": {
          "status": "generated",
          "div": "<div xmlns=\"http://www.w3.org/1999/xhtml\">Provider Role Id: 1de860c5-6872-459d-b9b2-a5b32f299b14</div>"
        },
        "organization": {
          "reference": "urn:uuid:633473ed-6cc3-4fe2-90fb-4a9b5ce75670"
        }
      }
    },
    {
      "fullUrl": "urn:uuid:633473ed-6cc3-4fe2-90fb-4a9b5ce75670",
      "resource": {
        "resourceType": "Organization",
        "id": "633473ed-6cc3-4fe2-90fb-4a9b5ce75670",
        "meta": {
          "profile": [
            "http://hl7.eu/fhir/base/StructureDefinition/organization-eu"
          ]
        },
        "identifier": [
          {
            "assigner": {
              "display": "HL7 Europe"
            },
            "system": "urn:oid:2.16.840.1.113883.2.51.999",
            "value": "cf4c8e08-155e-436b-bef7-f1829e4ee9b1"
          }
        ],
        "address": [
          {
            "city": "Leicester",
            "postalCode": "LE2 7",
            "country": "United Kingdom"
          }
        ],
        "text": {
          "status": "generated",
          "div": "<div xmlns=\"http://www.w3.org/1999/xhtml\">Provider Organization: Leicester Royal Infirmary</div>"
        },
        "name": "Leicester Royal Infirmary"
      }
    },
    {
      "fullUrl": "urn:uuid:d8d94748-aabe-4a80-b01c-91154abd19a7",
      "resource": {
        "resourceType": "Specimen",
        "id": "d8d94748-aabe-4a80-b01c-91154abd19a7",
        "meta": {
          "profile": [
            "http://hl7.eu/fhir/laboratory/StructureDefinition/Specimen-eu-lab"
          ]
        },
        "collection": {
          "collectedDateTime": "2021-04-12"
        },
        "text": {
          "status": "generated",
          "div": "<div xmlns=\"http://www.w3.org/1999/xhtml\"><table class=\"hl7__eu__lab__report\"><tr><th>Specimen</th><th>Collection Date</th></tr><tr><td>Whole blood specimen (specimen)</td><td><span class=\"nb\">12-Apr-2021</span></td></tr></table></div>"
        },
        "type": {
          "coding": [
            {
              "code": "258580003",
              "system": "http://snomed.info/sct",
              "display": "Whole blood specimen (specimen)"
            }
          ]
        }
      }
    },
    {
      "fullUrl": "urn:uuid:cd414d0a-3a62-465e-9db3-a96212bdc3f5",
      "resource": {
        "resourceType": "Specimen",
        "id": "cd414d0a-3a62-465e-9db3-a96212bdc3f5",
        "meta": {
          "profile": [
            "http://hl7.eu/fhir/laboratory/StructureDefinition/Specimen-eu-lab"
          ]
        },
        "collection": {
          "collectedDateTime": "2021-04-12"
        },
        "text": {
          "status": "generated",
          "div": "<div xmlns=\"http://www.w3.org/1999/xhtml\"><table class=\"hl7__eu__lab__report\"><tr><th>Specimen</th><th>Collection Date</th></tr><tr><td>Acellular blood (serum or plasma) specimen</td><td><span class=\"nb\">12-Apr-2021</span></td></tr></table></div>"
        },
        "type": {
          "coding": [
            {
              "code": "122592007",
              "system": "http://snomed.info/sct",
              "display": "Acellular blood (serum or plasma) specimen"
            }
          ]
        }
      }
    },
    {
      "fullUrl": "urn:uuid:22e32d01-c324-4598-b8a9-d1dbf27e0916",
      "resource": {
        "resourceType": "Specimen",
        "id": "22e32d01-c324-4598-b8a9-d1dbf27e0916",
        "meta": {
          "profile": [
            "http://hl7.eu/fhir/laboratory/StructureDefinition/Specimen-eu-lab"
          ]
        },
        "collection": {
          "collectedDateTime": "2021-04-12"
        },
        "text": {
          "status": "generated",
          "div": "<div xmlns=\"http://www.w3.org/1999/xhtml\"><table class=\"hl7__eu__lab__report\"><tr><th>Specimen</th><th>Collection Date</th></tr><tr><td>Serum specimen</td><td><span class=\"nb\">12-Apr-2021</span></td></tr></table></div>"
        },
        "type": {
          "coding": [
            {
              "code": "119364003",
              "system": "http://snomed.info/sct",
              "display": "Serum specimen"
            }
          ]
        }
      }
    },
    {
      "fullUrl": "urn:uuid:b204b912-d516-4c6f-b58c-98e086128931",
      "resource": {
        "resourceType": "Observation",
        "id": "b204b912-d516-4c6f-b58c-98e086128931",
        "meta": {
          "profile": [
            "http://hl7.eu/fhir/laboratory/StructureDefinition/Observation-resultslab-eu-lab"
          ]
        },
        "performer": [
          {
            "display": "The Central European Lab"
          }
        ],
        "category": [
          {
            "coding": [
              {
                "system": "http://terminology.hl7.org/CodeSystem/observation-category",
                "code": "laboratory"
              }
            ]
          }
        ],
        "code": {
          "coding": [
            {
              "code": "2339-0",
              "system": "http://loinc.org",
              "display": "Glucose [Mass/volume] in Blood"
            }
          ],
          "text": "Glucose [Mass/volume] in Blood"
        },
        "valueQuantity": {
          "system": "http://unitsofmeasure.org",
          "value": 95.8,
          "unit": "mg/dL",
          "code": "mg/dL"
        },
        "referenceRange": [
          {
            "low": {
              "value": 70,
              "code": "mg/dL",
              "system": "http://unitsofmeasure.org"
            }
          },
          {
            "high": {
              "value": 140,
              "code": "mg/dL",
              "system": "http://unitsofmeasure.org"
            }
          }
        ],
        "text": {
          "status": "generated",
          "div": "<div xmlns=\"http://www.w3.org/1999/xhtml\"><table class=\"hl7__eu__lab__report\"><tr><th>Test</th><th>12-Apr-2021</th><th>Reference&#xA0;Range</th><th>Unit</th></tr><tr><td>Glucose [Mass/volume] in Blood</td><td>95.8</td><td>70 - 140</td><td></td><td>mg/dL</td></tr></table></div>"
        },
        "status": "final",
        "subject": {
          "reference": "urn:uuid:89fbe331-a063-48e8-9b36-5cc10dbf6b7b",
          "display": "Eileen Taylor"
        },
        "effectiveDateTime": "2021-04-12T05:47:02Z",
        "specimen": {
          "reference": "urn:uuid:d8d94748-aabe-4a80-b01c-91154abd19a7"
        }
      }
    },
    {
      "fullUrl": "urn:uuid:a1af0be4-8f2e-4a52-a6ae-4e848a27b950",
      "resource": {
        "resourceType": "Observation",
        "id": "a1af0be4-8f2e-4a52-a6ae-4e848a27b950",
        "meta": {
          "profile": [
            "http://hl7.eu/fhir/laboratory/StructureDefinition/Observation-resultslab-eu-lab"
          ]
        },
        "performer": [
          {
            "display": "The Central European Lab"
          }
        ],
        "category": [
          {
            "coding": [
              {
                "system": "http://terminology.hl7.org/CodeSystem/observation-category",
                "code": "laboratory"
              }
            ]
          }
        ],
        "code": {
          "coding": [
            {
              "code": "6299-2",
              "system": "http://loinc.org",
              "display": "Urea nitrogen [Mass/volume] in Blood"
            }
          ],
          "text": "Urea nitrogen [Mass/volume] in Blood"
        },
        "valueQuantity": {
          "system": "http://unitsofmeasure.org",
          "value": 8.5,
          "unit": "mg/dL",
          "code": "mg/dL"
        },
        "referenceRange": [
          {
            "low": {
              "value": 7,
              "code": "mg/dL",
              "system": "http://unitsofmeasure.org"
            }
          },
          {
            "high": {
              "value": 20,
              "code": "mg/dL",
              "system": "http://unitsofmeasure.org"
            }
          }
        ],
        "text": {
          "status": "generated",
          "div": "<div xmlns=\"http://www.w3.org/1999/xhtml\"><table class=\"hl7__eu__lab__report\"><tr><th>Test</th><th>12-Apr-2021</th><th>Reference&#xA0;Range</th><th>Unit</th></tr><tr><td>Urea nitrogen [Mass/volume] in Blood</td><td>8.5</td><td>7 - 20</td><td></td><td>mg/dL</td></tr></table></div>"
        },
        "status": "final",
        "subject": {
          "reference": "urn:uuid:89fbe331-a063-48e8-9b36-5cc10dbf6b7b",
          "display": "Eileen Taylor"
        },
        "effectiveDateTime": "2021-04-12T05:47:02Z",
        "specimen": {
          "reference": "urn:uuid:d8d94748-aabe-4a80-b01c-91154abd19a7"
        }
      }
    },
    {
      "fullUrl": "urn:uuid:c481f7db-7677-4539-881f-deb9356f19df",
      "resource": {
        "resourceType": "Observation",
        "id": "c481f7db-7677-4539-881f-deb9356f19df",
        "meta": {
          "profile": [
            "http://hl7.eu/fhir/laboratory/StructureDefinition/Observation-resultslab-eu-lab"
          ]
        },
        "performer": [
          {
            "display": "The Central European Lab"
          }
        ],
        "category": [
          {
            "coding": [
              {
                "system": "http://terminology.hl7.org/CodeSystem/observation-category",
                "code": "laboratory"
              }
            ]
          }
        ],
        "code": {
          "coding": [
            {
              "code": "38483-4",
              "system": "http://loinc.org",
              "display": "Creatinine [Mass/volume] in Blood"
            }
          ],
          "text": "Creatinine [Mass/volume] in Blood"
        },
        "valueQuantity": {
          "system": "http://unitsofmeasure.org",
          "value": 3.4,
          "unit": "mg/dL",
          "code": "mg/dL"
        },
        "referenceRange": [
          {
            "low": {
              "value": 0.6,
              "code": "mg/dL",
              "system": "http://unitsofmeasure.org"
            }
          },
          {
            "high": {
              "value": 1.1,
              "code": "mg/dL",
              "system": "http://unitsofmeasure.org"
            }
          }
        ],
        "interpretation": [
          {
            "coding": [
              {
                "code": "H",
                "system": "http://terminology.hl7.org/CodeSystem/v3-ObservationInterpretation",
                "display": "High"
              }
            ]
          }
        ],
        "text": {
          "status": "generated",
          "div": "<div xmlns=\"http://www.w3.org/1999/xhtml\"><table class=\"hl7__eu__lab__report\"><tr><th>Test</th><th>12-Apr-2021</th><th>Reference&#xA0;Range</th><th>Unit</th></tr><tr><td>Creatinine [Mass/volume] in Blood</td><td>3.4</td><td>0.6 - 1.1</td><td>H</td><td>mg/dL</td></tr></table></div>"
        },
        "status": "final",
        "subject": {
          "reference": "urn:uuid:89fbe331-a063-48e8-9b36-5cc10dbf6b7b",
          "display": "Eileen Taylor"
        },
        "effectiveDateTime": "2021-04-12T05:47:02Z",
        "specimen": {
          "reference": "urn:uuid:d8d94748-aabe-4a80-b01c-91154abd19a7"
        }
      }
    },
    {
      "fullUrl": "urn:uuid:79e91e7c-ea37-4ddd-9dd2-3ce66116207e",
      "resource": {
        "resourceType": "Observation",
        "id": "79e91e7c-ea37-4ddd-9dd2-3ce66116207e",
        "meta": {
          "profile": [
            "http://hl7.eu/fhir/laboratory/StructureDefinition/Observation-resultslab-eu-lab"
          ]
        },
        "performer": [
          {
            "display": "The Central European Lab"
          }
        ],
        "category": [
          {
            "coding": [
              {
                "system": "http://terminology.hl7.org/CodeSystem/observation-category",
                "code": "laboratory"
              }
            ]
          }
        ],
        "code": {
          "coding": [
            {
              "code": "49765-1",
              "system": "http://loinc.org",
              "display": "Calcium [Mass/volume] in Blood"
            }
          ],
          "text": "Calcium [Mass/volume] in Blood"
        },
        "valueQuantity": {
          "system": "http://unitsofmeasure.org",
          "value": 9.1,
          "unit": "mg/dL",
          "code": "mg/dL"
        },
        "referenceRange": [
          {
            "low": {
              "value": 8.5,
              "code": "mg/dL",
              "system": "http://unitsofmeasure.org"
            }
          },
          {
            "high": {
              "value": 10.4,
              "code": "mg/dL",
              "system": "http://unitsofmeasure.org"
            }
          }
        ],
        "text": {
          "status": "generated",
          "div": "<div xmlns=\"http://www.w3.org/1999/xhtml\"><table class=\"hl7__eu__lab__report\"><tr><th>Test</th><th>12-Apr-2021</th><th>Reference&#xA0;Range</th><th>Unit</th></tr><tr><td>Calcium [Mass/volume] in Blood</td><td>9.1</td><td>8.5 - 10.4</td><td></td><td>mg/dL</td></tr></table></div>"
        },
        "status": "final",
        "subject": {
          "reference": "urn:uuid:89fbe331-a063-48e8-9b36-5cc10dbf6b7b",
          "display": "Eileen Taylor"
        },
        "effectiveDateTime": "2021-04-12T05:47:02Z",
        "specimen": {
          "reference": "urn:uuid:d8d94748-aabe-4a80-b01c-91154abd19a7"
        }
      }
    },
    {
      "fullUrl": "urn:uuid:864feabf-5ae8-4812-930b-341786ba36b3",
      "resource": {
        "resourceType": "Observation",
        "id": "864feabf-5ae8-4812-930b-341786ba36b3",
        "meta": {
          "profile": [
            "http://hl7.eu/fhir/laboratory/StructureDefinition/Observation-resultslab-eu-lab"
          ]
        },
        "performer": [
          {
            "display": "The Central European Lab"
          }
        ],
        "category": [
          {
            "coding": [
              {
                "system": "http://terminology.hl7.org/CodeSystem/observation-category",
                "code": "laboratory"
              }
            ]
          }
        ],
        "code": {
          "coding": [
            {
              "code": "2947-0",
              "system": "http://loinc.org",
              "display": "Sodium [Moles/volume] in Blood"
            }
          ],
          "text": "Sodium [Moles/volume] in Blood"
        },
        "valueQuantity": {
          "system": "http://unitsofmeasure.org",
          "value": 143.3,
          "unit": "mmol/L",
          "code": "mmol/L"
        },
        "referenceRange": [
          {
            "low": {
              "value": 135,
              "code": "mmol/L",
              "system": "http://unitsofmeasure.org"
            }
          },
          {
            "high": {
              "value": 145,
              "code": "mmol/L",
              "system": "http://unitsofmeasure.org"
            }
          }
        ],
        "text": {
          "status": "generated",
          "div": "<div xmlns=\"http://www.w3.org/1999/xhtml\"><table class=\"hl7__eu__lab__report\"><tr><th>Test</th><th>12-Apr-2021</th><th>Reference&#xA0;Range</th><th>Unit</th></tr><tr><td>Sodium [Moles/volume] in Blood</td><td>143.3</td><td>135 - 145</td><td></td><td>mmol/L</td></tr></table></div>"
        },
        "status": "final",
        "subject": {
          "reference": "urn:uuid:89fbe331-a063-48e8-9b36-5cc10dbf6b7b",
          "display": "Eileen Taylor"
        },
        "effectiveDateTime": "2021-04-12T05:47:02Z",
        "specimen": {
          "reference": "urn:uuid:d8d94748-aabe-4a80-b01c-91154abd19a7"
        }
      }
    },
    {
      "fullUrl": "urn:uuid:b88442db-e2a3-4113-9095-b49174ca00c3",
      "resource": {
        "resourceType": "Observation",
        "id": "b88442db-e2a3-4113-9095-b49174ca00c3",
        "meta": {
          "profile": [
            "http://hl7.eu/fhir/laboratory/StructureDefinition/Observation-resultslab-eu-lab"
          ]
        },
        "performer": [
          {
            "display": "The Central European Lab"
          }
        ],
        "category": [
          {
            "coding": [
              {
                "system": "http://terminology.hl7.org/CodeSystem/observation-category",
                "code": "laboratory"
              }
            ]
          }
        ],
        "code": {
          "coding": [
            {
              "code": "6298-4",
              "system": "http://loinc.org",
              "display": "Potassium [Moles/volume] in Blood"
            }
          ],
          "text": "Potassium [Moles/volume] in Blood"
        },
        "valueQuantity": {
          "system": "http://unitsofmeasure.org",
          "value": 4.4,
          "unit": "mmol/L",
          "code": "mmol/L"
        },
        "referenceRange": [
          {
            "low": {
              "value": 3.5,
              "code": "mmol/L",
              "system": "http://unitsofmeasure.org"
            }
          },
          {
            "high": {
              "value": 5.1,
              "code": "mmol/L",
              "system": "http://unitsofmeasure.org"
            }
          }
        ],
        "text": {
          "status": "generated",
          "div": "<div xmlns=\"http://www.w3.org/1999/xhtml\"><table class=\"hl7__eu__lab__report\"><tr><th>Test</th><th>12-Apr-2021</th><th>Reference&#xA0;Range</th><th>Unit</th></tr><tr><td>Potassium [Moles/volume] in Blood</td><td>4.4</td><td>3.5 - 5.1</td><td></td><td>mmol/L</td></tr></table></div>"
        },
        "status": "final",
        "subject": {
          "reference": "urn:uuid:89fbe331-a063-48e8-9b36-5cc10dbf6b7b",
          "display": "Eileen Taylor"
        },
        "effectiveDateTime": "2021-04-12T05:47:02Z",
        "specimen": {
          "reference": "urn:uuid:d8d94748-aabe-4a80-b01c-91154abd19a7"
        }
      }
    },
    {
      "fullUrl": "urn:uuid:80319364-9520-4f57-b105-68d8c06d7f63",
      "resource": {
        "resourceType": "Observation",
        "id": "80319364-9520-4f57-b105-68d8c06d7f63",
        "meta": {
          "profile": [
            "http://hl7.eu/fhir/laboratory/StructureDefinition/Observation-resultslab-eu-lab"
          ]
        },
        "performer": [
          {
            "display": "The Central European Lab"
          }
        ],
        "category": [
          {
            "coding": [
              {
                "system": "http://terminology.hl7.org/CodeSystem/observation-category",
                "code": "laboratory"
              }
            ]
          }
        ],
        "code": {
          "coding": [
            {
              "code": "2069-3",
              "system": "http://loinc.org",
              "display": "Chloride [Moles/volume] in Blood"
            }
          ],
          "text": "Chloride [Moles/volume] in Blood"
        },
        "valueQuantity": {
          "system": "http://unitsofmeasure.org",
          "value": 101.9,
          "unit": "mmol/L",
          "code": "mmol/L"
        },
        "referenceRange": [
          {
            "low": {
              "value": 98,
              "code": "mmol/L",
              "system": "http://unitsofmeasure.org"
            }
          },
          {
            "high": {
              "value": 108,
              "code": "mmol/L",
              "system": "http://unitsofmeasure.org"
            }
          }
        ],
        "text": {
          "status": "generated",
          "div": "<div xmlns=\"http://www.w3.org/1999/xhtml\"><table class=\"hl7__eu__lab__report\"><tr><th>Test</th><th>12-Apr-2021</th><th>Reference&#xA0;Range</th><th>Unit</th></tr><tr><td>Chloride [Moles/volume] in Blood</td><td>101.9</td><td>98 - 108</td><td></td><td>mmol/L</td></tr></table></div>"
        },
        "status": "final",
        "subject": {
          "reference": "urn:uuid:89fbe331-a063-48e8-9b36-5cc10dbf6b7b",
          "display": "Eileen Taylor"
        },
        "effectiveDateTime": "2021-04-12T05:47:02Z",
        "specimen": {
          "reference": "urn:uuid:d8d94748-aabe-4a80-b01c-91154abd19a7"
        }
      }
    },
    {
      "fullUrl": "urn:uuid:0468df5d-159e-4fe9-8725-3c3b4fc205d4",
      "resource": {
        "resourceType": "Observation",
        "id": "0468df5d-159e-4fe9-8725-3c3b4fc205d4",
        "meta": {
          "profile": [
            "http://hl7.eu/fhir/laboratory/StructureDefinition/Observation-resultslab-eu-lab"
          ]
        },
        "performer": [
          {
            "display": "The Central European Lab"
          }
        ],
        "category": [
          {
            "coding": [
              {
                "system": "http://terminology.hl7.org/CodeSystem/observation-category",
                "code": "laboratory"
              }
            ]
          }
        ],
        "code": {
          "coding": [
            {
              "code": "20565-8",
              "system": "http://loinc.org",
              "display": "Carbon dioxide, total [Moles/volume] in Blood"
            }
          ],
          "text": "Carbon dioxide, total [Moles/volume] in Blood"
        },
        "valueQuantity": {
          "system": "http://unitsofmeasure.org",
          "value": 25,
          "unit": "mmol/L",
          "code": "mmol/L"
        },
        "referenceRange": [
          {
            "low": {
              "value": 22,
              "code": "mmol/L",
              "system": "http://unitsofmeasure.org"
            }
          },
          {
            "high": {
              "value": 29,
              "code": "mmol/L",
              "system": "http://unitsofmeasure.org"
            }
          }
        ],
        "text": {
          "status": "generated",
          "div": "<div xmlns=\"http://www.w3.org/1999/xhtml\"><table class=\"hl7__eu__lab__report\"><tr><th>Test</th><th>12-Apr-2021</th><th>Reference&#xA0;Range</th><th>Unit</th></tr><tr><td>Carbon dioxide, total [Moles/volume] in Blood</td><td>25.0</td><td>22 - 29</td><td></td><td>mmol/L</td></tr></table></div>"
        },
        "status": "final",
        "subject": {
          "reference": "urn:uuid:89fbe331-a063-48e8-9b36-5cc10dbf6b7b",
          "display": "Eileen Taylor"
        },
        "effectiveDateTime": "2021-04-12T05:47:02Z",
        "specimen": {
          "reference": "urn:uuid:d8d94748-aabe-4a80-b01c-91154abd19a7"
        }
      }
    },
    {
      "fullUrl": "urn:uuid:984df040-e969-4355-8fea-553b157fa5fd",
      "resource": {
        "resourceType": "Observation",
        "id": "984df040-e969-4355-8fea-553b157fa5fd",
        "meta": {
          "profile": [
            "http://hl7.eu/fhir/laboratory/StructureDefinition/Observation-resultslab-eu-lab"
          ]
        },
        "performer": [
          {
            "display": "The Central European Lab"
          }
        ],
        "category": [
          {
            "coding": [
              {
                "system": "http://terminology.hl7.org/CodeSystem/observation-category",
                "code": "laboratory"
              }
            ]
          }
        ],
        "code": {
          "coding": [
            {
              "code": "2885-2",
              "system": "http://loinc.org",
              "display": "Protein [Mass/volume] in Serum or Plasma"
            }
          ],
          "text": "Protein [Mass/volume] in Serum or Plasma"
        },
        "valueQuantity": {
          "system": "http://unitsofmeasure.org",
          "value": 7.3,
          "unit": "g/dL",
          "code": "g/dL"
        },
        "referenceRange": [
          {
            "low": {
              "value": 6,
              "code": "g/dL",
              "system": "http://unitsofmeasure.org"
            }
          },
          {
            "high": {
              "value": 8.3,
              "code": "g/dL",
              "system": "http://unitsofmeasure.org"
            }
          }
        ],
        "text": {
          "status": "generated",
          "div": "<div xmlns=\"http://www.w3.org/1999/xhtml\"><table class=\"hl7__eu__lab__report\"><tr><th>Test</th><th>12-Apr-2021</th><th>Reference&#xA0;Range</th><th>Unit</th></tr><tr><td>Protein [Mass/volume] in Serum or Plasma</td><td>7.3</td><td>6 - 8.3</td><td></td><td>g/dL</td></tr></table></div>"
        },
        "status": "final",
        "subject": {
          "reference": "urn:uuid:89fbe331-a063-48e8-9b36-5cc10dbf6b7b",
          "display": "Eileen Taylor"
        },
        "effectiveDateTime": "2021-04-12T05:47:02Z",
        "specimen": {
          "reference": "urn:uuid:cd414d0a-3a62-465e-9db3-a96212bdc3f5"
        }
      }
    },
    {
      "fullUrl": "urn:uuid:c61f8a5a-cf27-4ed7-ad62-9c23cc6c0824",
      "resource": {
        "resourceType": "Observation",
        "id": "c61f8a5a-cf27-4ed7-ad62-9c23cc6c0824",
        "meta": {
          "profile": [
            "http://hl7.eu/fhir/laboratory/StructureDefinition/Observation-resultslab-eu-lab"
          ]
        },
        "performer": [
          {
            "display": "The Central European Lab"
          }
        ],
        "category": [
          {
            "coding": [
              {
                "system": "http://terminology.hl7.org/CodeSystem/observation-category",
                "code": "laboratory"
              }
            ]
          }
        ],
        "code": {
          "coding": [
            {
              "code": "1751-7",
              "system": "http://loinc.org",
              "display": "Albumin [Mass/volume] in Serum or Plasma"
            }
          ],
          "text": "Albumin [Mass/volume] in Serum or Plasma"
        },
        "valueQuantity": {
          "system": "http://unitsofmeasure.org",
          "value": 4.9,
          "unit": "g/dL",
          "code": "g/dL"
        },
        "referenceRange": [
          {
            "low": {
              "value": 3.4,
              "code": "g/dL",
              "system": "http://unitsofmeasure.org"
            }
          },
          {
            "high": {
              "value": 5,
              "code": "g/dL",
              "system": "http://unitsofmeasure.org"
            }
          }
        ],
        "text": {
          "status": "generated",
          "div": "<div xmlns=\"http://www.w3.org/1999/xhtml\"><table class=\"hl7__eu__lab__report\"><tr><th>Test</th><th>12-Apr-2021</th><th>Reference&#xA0;Range</th><th>Unit</th></tr><tr><td>Albumin [Mass/volume] in Serum or Plasma</td><td>4.9</td><td>3.4 - 5</td><td></td><td>g/dL</td></tr></table></div>"
        },
        "status": "final",
        "subject": {
          "reference": "urn:uuid:89fbe331-a063-48e8-9b36-5cc10dbf6b7b",
          "display": "Eileen Taylor"
        },
        "effectiveDateTime": "2021-04-12T05:47:02Z",
        "specimen": {
          "reference": "urn:uuid:cd414d0a-3a62-465e-9db3-a96212bdc3f5"
        }
      }
    },
    {
      "fullUrl": "urn:uuid:597a79de-dd56-4148-a736-5e4859f5d8cb",
      "resource": {
        "resourceType": "Observation",
        "id": "597a79de-dd56-4148-a736-5e4859f5d8cb",
        "meta": {
          "profile": [
            "http://hl7.eu/fhir/laboratory/StructureDefinition/Observation-resultslab-eu-lab"
          ]
        },
        "performer": [
          {
            "display": "The Central European Lab"
          }
        ],
        "category": [
          {
            "coding": [
              {
                "system": "http://terminology.hl7.org/CodeSystem/observation-category",
                "code": "laboratory"
              }
            ]
          }
        ],
        "code": {
          "coding": [
            {
              "code": "10834-0",
              "system": "http://loinc.org",
              "display": "Globulin [Mass/volume] in Serum by calculation"
            }
          ],
          "text": "Globulin [Mass/volume] in Serum by calculation"
        },
        "valueQuantity": {
          "system": "http://unitsofmeasure.org",
          "value": 2.5,
          "unit": "g/L",
          "code": "g/L"
        },
        "referenceRange": [
          {
            "low": {
              "value": 2,
              "code": "g/L",
              "system": "http://unitsofmeasure.org"
            }
          },
          {
            "high": {
              "value": 3.5,
              "code": "g/L",
              "system": "http://unitsofmeasure.org"
            }
          }
        ],
        "text": {
          "status": "generated",
          "div": "<div xmlns=\"http://www.w3.org/1999/xhtml\"><table class=\"hl7__eu__lab__report\"><tr><th>Test</th><th>12-Apr-2021</th><th>Reference&#xA0;Range</th><th>Unit</th></tr><tr><td>Globulin [Mass/volume] in Serum by calculation</td><td>2.5</td><td>2 - 3.5</td><td></td><td>g/L</td></tr></table></div>"
        },
        "status": "final",
        "subject": {
          "reference": "urn:uuid:89fbe331-a063-48e8-9b36-5cc10dbf6b7b",
          "display": "Eileen Taylor"
        },
        "effectiveDateTime": "2021-04-12T05:47:02Z",
        "specimen": {
          "reference": "urn:uuid:22e32d01-c324-4598-b8a9-d1dbf27e0916"
        }
      }
    },
    {
      "fullUrl": "urn:uuid:43423bb9-bb8b-4ac4-a142-23c5f4e886b3",
      "resource": {
        "resourceType": "Observation",
        "id": "43423bb9-bb8b-4ac4-a142-23c5f4e886b3",
        "meta": {
          "profile": [
            "http://hl7.eu/fhir/laboratory/StructureDefinition/Observation-resultslab-eu-lab"
          ]
        },
        "performer": [
          {
            "display": "The Central European Lab"
          }
        ],
        "category": [
          {
            "coding": [
              {
                "system": "http://terminology.hl7.org/CodeSystem/observation-category",
                "code": "laboratory"
              }
            ]
          }
        ],
        "code": {
          "coding": [
            {
              "code": "1975-2",
              "system": "http://loinc.org",
              "display": "Bilirubin.total [Mass/volume] in Serum or Plasma"
            }
          ],
          "text": "Bilirubin.total [Mass/volume] in Serum or Plasma"
        },
        "valueQuantity": {
          "system": "http://unitsofmeasure.org",
          "value": 0.8,
          "unit": "mg/dL",
          "code": "mg/dL"
        },
        "referenceRange": [
          {
            "low": {
              "value": 0.2,
              "code": "mg/dL",
              "system": "http://unitsofmeasure.org"
            }
          },
          {
            "high": {
              "value": 1.2,
              "code": "mg/dL",
              "system": "http://unitsofmeasure.org"
            }
          }
        ],
        "text": {
          "status": "generated",
          "div": "<div xmlns=\"http://www.w3.org/1999/xhtml\"><table class=\"hl7__eu__lab__report\"><tr><th>Test</th><th>12-Apr-2021</th><th>Reference&#xA0;Range</th><th>Unit</th></tr><tr><td>Bilirubin.total [Mass/volume] in Serum or Plasma</td><td>0.8</td><td>0.2 - 1.2</td><td></td><td>mg/dL</td></tr></table></div>"
        },
        "status": "final",
        "subject": {
          "reference": "urn:uuid:89fbe331-a063-48e8-9b36-5cc10dbf6b7b",
          "display": "Eileen Taylor"
        },
        "effectiveDateTime": "2021-04-12T05:47:02Z",
        "specimen": {
          "reference": "urn:uuid:cd414d0a-3a62-465e-9db3-a96212bdc3f5"
        }
      }
    },
    {
      "fullUrl": "urn:uuid:8819c4ac-dcee-4c5b-929b-28e947743287",
      "resource": {
        "resourceType": "Observation",
        "id": "8819c4ac-dcee-4c5b-929b-28e947743287",
        "meta": {
          "profile": [
            "http://hl7.eu/fhir/laboratory/StructureDefinition/Observation-resultslab-eu-lab"
          ]
        },
        "performer": [
          {
            "display": "The Central European Lab"
          }
        ],
        "category": [
          {
            "coding": [
              {
                "system": "http://terminology.hl7.org/CodeSystem/observation-category",
                "code": "laboratory"
              }
            ]
          }
        ],
        "code": {
          "coding": [
            {
              "code": "6768-6",
              "system": "http://loinc.org",
              "display": "Alkaline phosphatase [Enzymatic activity/volume] in Serum or Plasma"
            }
          ],
          "text": "Alkaline phosphatase [Enzymatic activity/volume] in Serum or Plasma"
        },
        "valueQuantity": {
          "system": "http://unitsofmeasure.org",
          "value": 127.7,
          "unit": "U/L",
          "code": "U/L"
        },
        "referenceRange": [
          {
            "low": {
              "value": 44,
              "code": "U/L",
              "system": "http://unitsofmeasure.org"
            }
          },
          {
            "high": {
              "value": 104,
              "code": "U/L",
              "system": "http://unitsofmeasure.org"
            }
          }
        ],
        "interpretation": [
          {
            "coding": [
              {
                "code": "H",
                "system": "http://terminology.hl7.org/CodeSystem/v3-ObservationInterpretation",
                "display": "High"
              }
            ]
          }
        ],
        "text": {
          "status": "generated",
          "div": "<div xmlns=\"http://www.w3.org/1999/xhtml\"><table class=\"hl7__eu__lab__report\"><tr><th>Test</th><th>12-Apr-2021</th><th>Reference&#xA0;Range</th><th>Unit</th></tr><tr><td>Alkaline phosphatase [Enzymatic activity/volume] in Serum or Plasma</td><td>127.7</td><td>44 - 104</td><td>H</td><td>U/L</td></tr></table></div>"
        },
        "status": "final",
        "subject": {
          "reference": "urn:uuid:89fbe331-a063-48e8-9b36-5cc10dbf6b7b",
          "display": "Eileen Taylor"
        },
        "effectiveDateTime": "2021-04-12T05:47:02Z",
        "specimen": {
          "reference": "urn:uuid:cd414d0a-3a62-465e-9db3-a96212bdc3f5"
        }
      }
    },
    {
      "fullUrl": "urn:uuid:fe902a2c-188a-4099-982e-4bb32da344d1",
      "resource": {
        "resourceType": "Observation",
        "id": "fe902a2c-188a-4099-982e-4bb32da344d1",
        "meta": {
          "profile": [
            "http://hl7.eu/fhir/laboratory/StructureDefinition/Observation-resultslab-eu-lab"
          ]
        },
        "performer": [
          {
            "display": "The Central European Lab"
          }
        ],
        "category": [
          {
            "coding": [
              {
                "system": "http://terminology.hl7.org/CodeSystem/observation-category",
                "code": "laboratory"
              }
            ]
          }
        ],
        "code": {
          "coding": [
            {
              "code": "1742-6",
              "system": "http://loinc.org",
              "display": "Alanine aminotransferase [Enzymatic activity/volume] in Serum or Plasma"
            }
          ],
          "text": "Alanine aminotransferase [Enzymatic activity/volume] in Serum or Plasma"
        },
        "valueQuantity": {
          "system": "http://unitsofmeasure.org",
          "value": 20.5,
          "unit": "U/L",
          "code": "U/L"
        },
        "referenceRange": [
          {
            "low": {
              "value": 13,
              "code": "U/L",
              "system": "http://unitsofmeasure.org"
            }
          },
          {
            "high": {
              "value": 36,
              "code": "U/L",
              "system": "http://unitsofmeasure.org"
            }
          }
        ],
        "text": {
          "status": "generated",
          "div": "<div xmlns=\"http://www.w3.org/1999/xhtml\"><table class=\"hl7__eu__lab__report\"><tr><th>Test</th><th>12-Apr-2021</th><th>Reference&#xA0;Range</th><th>Unit</th></tr><tr><td>Alanine aminotransferase [Enzymatic activity/volume] in Serum or Plasma</td><td>20.5</td><td>13 - 36</td><td></td><td>U/L</td></tr></table></div>"
        },
        "status": "final",
        "subject": {
          "reference": "urn:uuid:89fbe331-a063-48e8-9b36-5cc10dbf6b7b",
          "display": "Eileen Taylor"
        },
        "effectiveDateTime": "2021-04-12T05:47:02Z",
        "specimen": {
          "reference": "urn:uuid:cd414d0a-3a62-465e-9db3-a96212bdc3f5"
        }
      }
    },
    {
      "fullUrl": "urn:uuid:ad08400e-954d-40ae-b3a3-760e9a222481",
      "resource": {
        "resourceType": "Observation",
        "id": "ad08400e-954d-40ae-b3a3-760e9a222481",
        "meta": {
          "profile": [
            "http://hl7.eu/fhir/laboratory/StructureDefinition/Observation-resultslab-eu-lab"
          ]
        },
        "performer": [
          {
            "display": "The Central European Lab"
          }
        ],
        "category": [
          {
            "coding": [
              {
                "system": "http://terminology.hl7.org/CodeSystem/observation-category",
                "code": "laboratory"
              }
            ]
          }
        ],
        "code": {
          "coding": [
            {
              "code": "1920-8",
              "system": "http://loinc.org",
              "display": "Aspartate aminotransferase [Enzymatic activity/volume] in Serum or Plasma"
            }
          ],
          "text": "Aspartate aminotransferase [Enzymatic activity/volume] in Serum or Plasma"
        },
        "valueQuantity": {
          "system": "http://unitsofmeasure.org",
          "value": 7.2,
          "unit": "U/L",
          "code": "U/L"
        },
        "referenceRange": [
          {
            "low": {
              "value": 10,
              "code": "U/L",
              "system": "http://unitsofmeasure.org"
            }
          },
          {
            "high": {
              "value": 40,
              "code": "U/L",
              "system": "http://unitsofmeasure.org"
            }
          }
        ],
        "interpretation": [
          {
            "coding": [
              {
                "code": "L",
                "system": "http://terminology.hl7.org/CodeSystem/v3-ObservationInterpretation",
                "display": "Low"
              }
            ]
          }
        ],
        "text": {
          "status": "generated",
          "div": "<div xmlns=\"http://www.w3.org/1999/xhtml\"><table class=\"hl7__eu__lab__report\"><tr><th>Test</th><th>12-Apr-2021</th><th>Reference&#xA0;Range</th><th>Unit</th></tr><tr><td>Aspartate aminotransferase [Enzymatic activity/volume] in Serum or Plasma</td><td>7.2</td><td>10 - 40</td><td>L</td><td>U/L</td></tr></table></div>"
        },
        "status": "final",
        "subject": {
          "reference": "urn:uuid:89fbe331-a063-48e8-9b36-5cc10dbf6b7b",
          "display": "Eileen Taylor"
        },
        "effectiveDateTime": "2021-04-12T05:47:02Z",
        "specimen": {
          "reference": "urn:uuid:cd414d0a-3a62-465e-9db3-a96212bdc3f5"
        }
      }
    },
    {
      "fullUrl": "urn:uuid:ced29e7f-bd64-4e2a-b8ae-9676931c12b4",
      "resource": {
        "resourceType": "Observation",
        "id": "ced29e7f-bd64-4e2a-b8ae-9676931c12b4",
        "meta": {
          "profile": [
            "http://hl7.eu/fhir/laboratory/StructureDefinition/Observation-resultslab-eu-lab"
          ]
        },
        "performer": [
          {
            "display": "The Central European Lab"
          }
        ],
        "category": [
          {
            "coding": [
              {
                "system": "http://terminology.hl7.org/CodeSystem/observation-category",
                "code": "laboratory"
              }
            ]
          }
        ],
        "code": {
          "coding": [
            {
              "code": "2093-3",
              "system": "http://loinc.org",
              "display": "Cholesterol [Mass/volume] in Serum or Plasma"
            }
          ],
          "text": "Cholesterol [Mass/volume] in Serum or Plasma"
        },
        "valueQuantity": {
          "system": "http://unitsofmeasure.org",
          "value": 152.6,
          "unit": "mg/dL",
          "code": "mg/dL"
        },
        "referenceRange": [
          {
            "low": {
              "value": 130,
              "code": "mg/dL",
              "system": "http://unitsofmeasure.org"
            }
          },
          {
            "high": {
              "value": 200,
              "code": "mg/dL",
              "system": "http://unitsofmeasure.org"
            }
          }
        ],
        "text": {
          "status": "generated",
          "div": "<div xmlns=\"http://www.w3.org/1999/xhtml\"><table class=\"hl7__eu__lab__report\"><tr><th>Test</th><th>12-Apr-2021</th><th>Reference&#xA0;Range</th><th>Unit</th></tr><tr><td>Cholesterol [Mass/volume] in Serum or Plasma</td><td>152.6</td><td>130 - 200</td><td></td><td>mg/dL</td></tr></table></div>"
        },
        "status": "final",
        "subject": {
          "reference": "urn:uuid:89fbe331-a063-48e8-9b36-5cc10dbf6b7b",
          "display": "Eileen Taylor"
        },
        "effectiveDateTime": "2021-04-12T05:47:02Z",
        "specimen": {
          "reference": "urn:uuid:cd414d0a-3a62-465e-9db3-a96212bdc3f5"
        }
      }
    },
    {
      "fullUrl": "urn:uuid:9c535c6f-8529-4a53-a1ac-1a18259b7674",
      "resource": {
        "resourceType": "Observation",
        "id": "9c535c6f-8529-4a53-a1ac-1a18259b7674",
        "meta": {
          "profile": [
            "http://hl7.eu/fhir/laboratory/StructureDefinition/Observation-resultslab-eu-lab"
          ]
        },
        "performer": [
          {
            "display": "The Central European Lab"
          }
        ],
        "category": [
          {
            "coding": [
              {
                "system": "http://terminology.hl7.org/CodeSystem/observation-category",
                "code": "laboratory"
              }
            ]
          }
        ],
        "code": {
          "coding": [
            {
              "code": "2571-8",
              "system": "http://loinc.org",
              "display": "Triglyceride [Mass/volume] in Serum or Plasma"
            }
          ],
          "text": "Triglyceride [Mass/volume] in Serum or Plasma"
        },
        "valueQuantity": {
          "system": "http://unitsofmeasure.org",
          "value": 156.9,
          "unit": "mg/dL",
          "code": "mg/dL"
        },
        "referenceRange": [
          {
            "low": {
              "value": 35,
              "code": "mg/dL",
              "system": "http://unitsofmeasure.org"
            }
          },
          {
            "high": {
              "value": 175,
              "code": "mg/dL",
              "system": "http://unitsofmeasure.org"
            }
          }
        ],
        "text": {
          "status": "generated",
          "div": "<div xmlns=\"http://www.w3.org/1999/xhtml\"><table class=\"hl7__eu__lab__report\"><tr><th>Test</th><th>12-Apr-2021</th><th>Reference&#xA0;Range</th><th>Unit</th></tr><tr><td>Triglyceride [Mass/volume] in Serum or Plasma</td><td>156.9</td><td>35 - 175</td><td></td><td>mg/dL</td></tr></table></div>"
        },
        "status": "final",
        "subject": {
          "reference": "urn:uuid:89fbe331-a063-48e8-9b36-5cc10dbf6b7b",
          "display": "Eileen Taylor"
        },
        "effectiveDateTime": "2021-04-12T05:47:02Z",
        "specimen": {
          "reference": "urn:uuid:cd414d0a-3a62-465e-9db3-a96212bdc3f5"
        }
      }
    },
    {
      "fullUrl": "urn:uuid:1613e8e8-dc21-4204-a5bd-fb75113b84e4",
      "resource": {
        "resourceType": "Observation",
        "id": "1613e8e8-dc21-4204-a5bd-fb75113b84e4",
        "meta": {
          "profile": [
            "http://hl7.eu/fhir/laboratory/StructureDefinition/Observation-resultslab-eu-lab"
          ]
        },
        "performer": [
          {
            "display": "The Central European Lab"
          }
        ],
        "category": [
          {
            "coding": [
              {
                "system": "http://terminology.hl7.org/CodeSystem/observation-category",
                "code": "laboratory"
              }
            ]
          }
        ],
        "code": {
          "coding": [
            {
              "code": "18262-6",
              "system": "http://loinc.org",
              "display": "Cholesterol in LDL [Mass/volume] in Serum or Plasma by Direct assay"
            }
          ],
          "text": "Cholesterol in LDL [Mass/volume] in Serum or Plasma by Direct assay"
        },
        "valueQuantity": {
          "system": "http://unitsofmeasure.org",
          "value": 120.4,
          "unit": "mg/dL",
          "code": "mg/dL"
        },
        "referenceRange": [
          {
            "low": {
              "value": 0,
              "code": "mg/dL",
              "system": "http://unitsofmeasure.org"
            }
          },
          {
            "high": {
              "value": 190,
              "code": "mg/dL",
              "system": "http://unitsofmeasure.org"
            }
          }
        ],
        "text": {
          "status": "generated",
          "div": "<div xmlns=\"http://www.w3.org/1999/xhtml\"><table class=\"hl7__eu__lab__report\"><tr><th>Test</th><th>12-Apr-2021</th><th>Reference&#xA0;Range</th><th>Unit</th></tr><tr><td>Cholesterol in LDL [Mass/volume] in Serum or Plasma by Direct assay</td><td>120.4</td><td>0 - 190</td><td></td><td>mg/dL</td></tr></table></div>"
        },
        "status": "final",
        "subject": {
          "reference": "urn:uuid:89fbe331-a063-48e8-9b36-5cc10dbf6b7b",
          "display": "Eileen Taylor"
        },
        "effectiveDateTime": "2021-04-12T05:47:02Z",
        "specimen": {
          "reference": "urn:uuid:cd414d0a-3a62-465e-9db3-a96212bdc3f5"
        }
      }
    },
    {
      "fullUrl": "urn:uuid:2b4f8536-7d8b-4d43-9432-43a49b5c9427",
      "resource": {
        "resourceType": "Observation",
        "id": "2b4f8536-7d8b-4d43-9432-43a49b5c9427",
        "meta": {
          "profile": [
            "http://hl7.eu/fhir/laboratory/StructureDefinition/Observation-resultslab-eu-lab"
          ]
        },
        "performer": [
          {
            "display": "The Central European Lab"
          }
        ],
        "category": [
          {
            "coding": [
              {
                "system": "http://terminology.hl7.org/CodeSystem/observation-category",
                "code": "laboratory"
              }
            ]
          }
        ],
        "code": {
          "coding": [
            {
              "code": "2085-9",
              "system": "http://loinc.org",
              "display": "Cholesterol in HDL [Mass/volume] in Serum or Plasma"
            }
          ],
          "text": "Cholesterol in HDL [Mass/volume] in Serum or Plasma"
        },
        "valueQuantity": {
          "system": "http://unitsofmeasure.org",
          "value": 66.6,
          "unit": "mg/dL",
          "code": "mg/dL"
        },
        "referenceRange": [
          {
            "low": {
              "value": 50,
              "code": "mg/dL",
              "system": "http://unitsofmeasure.org"
            }
          },
          {
            "high": {
              "value": 100,
              "code": "mg/dL",
              "system": "http://unitsofmeasure.org"
            }
          }
        ],
        "text": {
          "status": "generated",
          "div": "<div xmlns=\"http://www.w3.org/1999/xhtml\"><table class=\"hl7__eu__lab__report\"><tr><th>Test</th><th>12-Apr-2021</th><th>Reference&#xA0;Range</th><th>Unit</th></tr><tr><td>Cholesterol in HDL [Mass/volume] in Serum or Plasma</td><td>66.6</td><td>50 - 100</td><td></td><td>mg/dL</td></tr></table></div>"
        },
        "status": "final",
        "subject": {
          "reference": "urn:uuid:89fbe331-a063-48e8-9b36-5cc10dbf6b7b",
          "display": "Eileen Taylor"
        },
        "effectiveDateTime": "2021-04-12T05:47:02Z",
        "specimen": {
          "reference": "urn:uuid:cd414d0a-3a62-465e-9db3-a96212bdc3f5"
        }
      }
    },
    {
      "fullUrl": "urn:uuid:b768b8ac-2f13-440a-b2ab-950d44a1b3e6",
      "resource": {
        "resourceType": "Device",
        "id": "b768b8ac-2f13-440a-b2ab-950d44a1b3e6",
        "deviceName": [
          {
            "name": "SYNDERAI Synthetic Generator",
            "type": "manufacturer-name"
          }
        ],
        "version": [
          {
            "value": "5.0"
          }
        ],
        "text": {
          "status": "generated",
          "div": "<div xmlns=\"http://www.w3.org/1999/xhtml\">SYNDERAI Synthetic Generator v5.0</div>"
        },
        "status": "active\"",
        "distinctIdentifier": "synderai-generator-50",
        "manufacturer": "SYNDERAI Project"
      }
    },
    {
      "fullUrl": "urn:uuid:47ee0ced-2c5d-4102-9555-a3e2190ab2b6",
      "resource": {
        "resourceType": "Provenance",
        "id": "47ee0ced-2c5d-4102-9555-a3e2190ab2b6",
        "target": [
          {
            "reference": "Patient/89fbe331-a063-48e8-9b36-5cc10dbf6b7b"
          },
          {
            "reference": "Bundle/24abe25d-ba6c-4307-ac0c-d1a763901186"
          },
          {
            "reference": "Composition/8fd3e775-d2bd-43bd-8bcf-9c943dcfde13"
          },
          {
            "reference": "PractitionerRole/0b22dc72-b64c-4057-9509-9477e645d7b9"
          },
          {
            "reference": "Practitioner/2e706205-8642-400b-91b9-bae040356b0d"
          },
          {
            "reference": "PractitionerRole/1de860c5-6872-459d-b9b2-a5b32f299b14"
          },
          {
            "reference": "Organization/633473ed-6cc3-4fe2-90fb-4a9b5ce75670"
          }
        ],
        "activity": {
          "text": "Synthetic Example Data Generation"
        },
        "policy": [
          "https://synderai.net/synderai-synthetic-data-policy"
        ],
        "agent": [
          {
            "type": {
              "text": "author"
            },
            "who": {
              "reference": "Device/b768b8ac-2f13-440a-b2ab-950d44a1b3e6"
            }
          }
        ],
        "reason": [
          {
            "text": "Interoperability Testing and Training (non-clinical use)"
          }
        ],
        "text": {
          "status": "generated",
          "div": "<div xmlns=\"http://www.w3.org/1999/xhtml\">Provenance for SYNDERAI Synthetic Example Data Resource</div>"
        },
        "recorded": "2021-04-12T07:47:02Z"
      }
    },
    {
      "fullUrl": "urn:uuid:0b22dc72-b64c-4057-9509-9477e645d7b9",
      "resource": {
        "resourceType": "PractitionerRole",
        "id": "0b22dc72-b64c-4057-9509-9477e645d7b9",
        "meta": {
          "profile": [
            "http://hl7.eu/fhir/base/StructureDefinition/practitionerRole-eu"
          ]
        },
        "text": {
          "status": "generated",
          "div": "<div xmlns=\"http://www.w3.org/1999/xhtml\">Laboratory Role Id: 0b22dc72-b64c-4057-9509-9477e645d7b9</div>"
        },
        "practitioner": {
          "reference": "urn:uuid:2e706205-8642-400b-91b9-bae040356b0d"
        }
      }
    },
    {
      "fullUrl": "urn:uuid:2e706205-8642-400b-91b9-bae040356b0d",
      "resource": {
        "resourceType": "Practitioner",
        "id": "2e706205-8642-400b-91b9-bae040356b0d",
        "meta": {
          "profile": [
            "http://hl7.eu/fhir/base/StructureDefinition/practitioner-eu"
          ]
        },
        "identifier": [
          {
            "assigner": {
              "display": "HL7 Europe"
            },
            "system": "urn:oid:2.16.840.1.113883.2.51.999",
            "value": "98ebaa0e-2029-4013-9884-22a873384cf6"
          }
        ],
        "name": [
          {
            "prefix": [
              "dr"
            ],
            "given": [
              "Ex"
            ],
            "family": "Ample"
          }
        ],
        "address": [
          {
            "line": [
              "Laboratoire Central Européenne",
              "Boulevard du Jardin Botanique 32"
            ],
            "postalCode": "1000",
            "city": "Brussels",
            "country": "Belgium"
          }
        ],
        "text": {
          "status": "generated",
          "div": "<div xmlns=\"http://www.w3.org/1999/xhtml\">Laboratory: Laboratoire Central Européenne, 1000 Brussels, Belgium</div>"
        }
      }
    }
  ],
  "type": "document",
  "timestamp": "2021-04-12T07:47:02Z"
}
